Acell X;Acell Y;Acell Z;Gyro X;Gyro Y;Gyro Z

-0.1544036865234375;-0.047027587890625;-1.0104522705078125;-0.037529267370700836;-0.06350813806056976;0.010583136230707169
-0.1442413330078125;-0.0706329345703125;-0.9124755859375;-0.06671778112649918;0.030772825703024864;0.01733637973666191
-0.1442413330078125;-0.0706329345703125;-0.9124755859375;-0.06671778112649918;0.030772825703024864;0.01733637973666191
-0.1442413330078125;-0.0706329345703125;-0.9124755859375;-0.06671778112649918;0.030772825703024864;0.01733637973666191
-0.1442413330078125;-0.0706329345703125;-0.9124755859375;-0.06671778112649918;0.030772825703024864;0.01733637973666191
-0.1442413330078125;-0.0706329345703125;-0.9124755859375;-0.06671778112649918;0.030772825703024864;0.01733637973666191
-0.163818359375;-0.0247039794921875;-0.988189697265625;-0.05138835683465004;-0.003513508476316929;0.005593969952315092
-0.163818359375;-0.0247039794921875;-0.988189697265625;-0.05138835683465004;-0.003513508476316929;0.005593969952315092
-0.163818359375;-0.0247039794921875;-0.988189697265625;-0.05138835683465004;-0.003513508476316929;0.005593969952315092
-0.163818359375;-0.0247039794921875;-0.988189697265625;-0.05138835683465004;-0.003513508476316929;0.005593969952315092
-0.163818359375;-0.0247039794921875;-0.988189697265625;-0.05138835683465004;-0.003513508476316929;0.005593969952315092
-0.1665802001953125;0.00323486328125;-1.032562255859375;-0.03400670364499092;-0.0070304786786437035;-0.0022274679504334927
-0.1665802001953125;0.00323486328125;-1.032562255859375;-0.03400670364499092;-0.0070304786786437035;-0.0022274679504334927
-0.1665802001953125;0.00323486328125;-1.032562255859375;-0.03400670364499092;-0.0070304786786437035;-0.0022274679504334927
-0.1665802001953125;0.00323486328125;-1.032562255859375;-0.03400670364499092;-0.0070304786786437035;-0.0022274679504334927
-0.1665802001953125;0.00323486328125;-1.032562255859375;-0.03400670364499092;-0.0070304786786437035;-0.0022274679504334927
-0.16131591796875;0.0072174072265625;-1.0088043212890625;-0.041914694011211395;-0.00771837355569005;0.002653839997947216
-0.16131591796875;0.0072174072265625;-1.0088043212890625;-0.041914694011211395;-0.00771837355569005;0.002653839997947216
-0.16131591796875;0.0072174072265625;-1.0088043212890625;-0.041914694011211395;-0.00771837355569005;0.002653839997947216
-0.16131591796875;0.0072174072265625;-1.0088043212890625;-0.041914694011211395;-0.00771837355569005;0.002653839997947216
-0.16131591796875;0.0072174072265625;-1.0088043212890625;-0.041914694011211395;-0.00771837355569005;0.002653839997947216
-0.1584014892578125;0.0008544921875;-1.003570556640625;-0.055685367435216904;-0.00983425509184599;0.006786799523979425
-0.1584014892578125;0.0008544921875;-1.003570556640625;-0.055685367435216904;-0.00983425509184599;0.006786799523979425
-0.1584014892578125;0.0008544921875;-1.003570556640625;-0.055685367435216904;-0.00983425509184599;0.006786799523979425
-0.1584014892578125;0.0008544921875;-1.003570556640625;-0.055685367435216904;-0.00983425509184599;0.006786799523979425
-0.1584014892578125;0.0008544921875;-1.003570556640625;-0.055685367435216904;-0.00983425509184599;0.006786799523979425
-0.1605987548828125;-0.0027618408203125;-1.0027618408203125;-0.051053863018751144;0.0018871158827096224;0.004965996369719505
-0.1605987548828125;-0.0027618408203125;-1.0027618408203125;-0.051053863018751144;0.0018871158827096224;0.004965996369719505
-0.1605987548828125;-0.0027618408203125;-1.0027618408203125;-0.051053863018751144;0.0018871158827096224;0.004965996369719505
-0.1605987548828125;-0.0027618408203125;-1.0027618408203125;-0.051053863018751144;0.0018871158827096224;0.004965996369719505
-0.1605987548828125;-0.0027618408203125;-1.0027618408203125;-0.051053863018751144;0.0018871158827096224;0.004965996369719505
-0.1626129150390625;-0.00341796875;-1.0050811767578125;-0.04062545672059059;-0.0009052084642462432;0.004880775231868029
-0.1626129150390625;-0.00341796875;-1.0050811767578125;-0.04062545672059059;-0.0009052084642462432;0.004880775231868029
-0.1626129150390625;-0.00341796875;-1.0050811767578125;-0.04062545672059059;-0.0009052084642462432;0.004880775231868029
-0.1626129150390625;-0.00341796875;-1.0050811767578125;-0.04062545672059059;-0.0009052084642462432;0.004880775231868029
-0.1626129150390625;-0.00341796875;-1.0050811767578125;-0.04062545672059059;-0.0009052084642462432;0.004880775231868029
-0.1632537841796875;-0.0020294189453125;-1.009002685546875;-0.028240691870450974;-0.01468466967344284;0.0005840312223881483
-0.1632537841796875;-0.0020294189453125;-1.009002685546875;-0.028240691870450974;-0.01468466967344284;0.0005840312223881483
-0.1632537841796875;-0.0020294189453125;-1.009002685546875;-0.028240691870450974;-0.01468466967344284;0.0005840312223881483
-0.1632537841796875;-0.0020294189453125;-1.009002685546875;-0.028240691870450974;-0.01468466967344284;0.0005840312223881483
-0.1632537841796875;-0.0020294189453125;-1.009002685546875;-0.028240691870450974;-0.01468466967344284;0.0005840312223881483
-0.1634521484375;-0.0020294189453125;-1.007293701171875;-0.026135995984077454;-0.024652082473039627;0.0016050871927291155
-0.1634521484375;-0.0020294189453125;-1.007293701171875;-0.026135995984077454;-0.024652082473039627;0.0016050871927291155
-0.1634521484375;-0.0020294189453125;-1.007293701171875;-0.026135995984077454;-0.024652082473039627;0.0016050871927291155
-0.1634521484375;-0.0020294189453125;-1.007293701171875;-0.026135995984077454;-0.024652082473039627;0.0016050871927291155
-0.1634521484375;-0.0020294189453125;-1.007293701171875;-0.026135995984077454;-0.024652082473039627;0.0016050871927291155
-0.16650390625;-0.0012054443359375;-1.00421142578125;-0.01913214847445488;-0.02510055899620056;0.0030487868934869766
-0.16650390625;-0.0012054443359375;-1.00421142578125;-0.01913214847445488;-0.02510055899620056;0.0030487868934869766
-0.16650390625;-0.0012054443359375;-1.00421142578125;-0.01913214847445488;-0.02510055899620056;0.0030487868934869766
-0.16650390625;-0.0012054443359375;-1.00421142578125;-0.01913214847445488;-0.02510055899620056;0.0030487868934869766
-0.16650390625;-0.0012054443359375;-1.00421142578125;-0.01913214847445488;-0.02510055899620056;0.0030487868934869766
-0.1683807373046875;0.0001678466796875;-1.0041656494140625;-0.010951983742415905;-0.017610153183341026;0.0013848437229171395
-0.1683807373046875;0.0001678466796875;-1.0041656494140625;-0.010951983742415905;-0.017610153183341026;0.0013848437229171395
-0.1683807373046875;0.0001678466796875;-1.0041656494140625;-0.010951983742415905;-0.017610153183341026;0.0013848437229171395
-0.1683807373046875;0.0001678466796875;-1.0041656494140625;-0.010951983742415905;-0.017610153183341026;0.0013848437229171395
-0.1683807373046875;0.0001678466796875;-1.0041656494140625;-0.010951983742415905;-0.017610153183341026;0.0013848437229171395
-0.167327880859375;0.0009002685546875;-1.0037078857421875;-0.005075186025351286;-0.013451093807816505;0.003534547286108136
-0.167327880859375;0.0009002685546875;-1.0037078857421875;-0.005075186025351286;-0.013451093807816505;0.003534547286108136
-0.167327880859375;0.0009002685546875;-1.0037078857421875;-0.005075186025351286;-0.013451093807816505;0.003534547286108136
-0.167327880859375;0.0009002685546875;-1.0037078857421875;-0.005075186025351286;-0.013451093807816505;0.003534547286108136
-0.167327880859375;0.0009002685546875;-1.0037078857421875;-0.005075186025351286;-0.013451093807816505;0.003534547286108136
-0.16375732421875;-0.0005950927734375;-1.0045623779296875;-0.004799815360456705;-0.009778594598174095;0.0032445292454212904
-0.16375732421875;-0.0005950927734375;-1.0045623779296875;-0.004799815360456705;-0.009778594598174095;0.0032445292454212904
-0.16375732421875;-0.0005950927734375;-1.0045623779296875;-0.004799815360456705;-0.009778594598174095;0.0032445292454212904
-0.16375732421875;-0.0005950927734375;-1.0045623779296875;-0.004799815360456705;-0.009778594598174095;0.0032445292454212904
-0.16375732421875;-0.0005950927734375;-1.0045623779296875;-0.004799815360456705;-0.009778594598174095;0.0032445292454212904
-0.163543701171875;-0.0030059814453125;-1.004486083984375;-0.0023369237314909697;-0.012465724721550941;0.0027260116767138243
-0.163543701171875;-0.0030059814453125;-1.004486083984375;-0.0023369237314909697;-0.012465724721550941;0.0027260116767138243
-0.163543701171875;-0.0030059814453125;-1.004486083984375;-0.0023369237314909697;-0.012465724721550941;0.0027260116767138243
-0.163543701171875;-0.0030059814453125;-1.004486083984375;-0.0023369237314909697;-0.012465724721550941;0.0027260116767138243
-0.163543701171875;-0.0030059814453125;-1.004486083984375;-0.0023369237314909697;-0.012465724721550941;0.0027260116767138243
-0.1654052734375;-0.0068817138671875;-1.00531005859375;-0.006734601687639952;-0.004551608581095934;0.006502640433609486
-0.1654052734375;-0.0068817138671875;-1.00531005859375;-0.006734601687639952;-0.004551608581095934;0.006502640433609486
-0.1654052734375;-0.0068817138671875;-1.00531005859375;-0.006734601687639952;-0.004551608581095934;0.006502640433609486
-0.1654052734375;-0.0068817138671875;-1.00531005859375;-0.006734601687639952;-0.004551608581095934;0.006502640433609486
-0.1654052734375;-0.0068817138671875;-1.00531005859375;-0.006734601687639952;-0.004551608581095934;0.006502640433609486
-0.1679840087890625;-0.00897216796875;-1.0052642822265625;-0.010145312175154686;-0.0005928196478635073;0.006737797521054745
-0.1679840087890625;-0.00897216796875;-1.0052642822265625;-0.010145312175154686;-0.0005928196478635073;0.006737797521054745
-0.1679840087890625;-0.00897216796875;-1.0052642822265625;-0.010145312175154686;-0.0005928196478635073;0.006737797521054745
-0.1679840087890625;-0.00897216796875;-1.0052642822265625;-0.010145312175154686;-0.0005928196478635073;0.006737797521054745
-0.1679840087890625;-0.00897216796875;-1.0052642822265625;-0.010145312175154686;-0.0005928196478635073;0.006737797521054745
-0.167144775390625;-0.0099334716796875;-1.00714111328125;-0.018211495131254196;-0.0055063520558178425;0.0052016861736774445
-0.167144775390625;-0.0099334716796875;-1.00714111328125;-0.018211495131254196;-0.0055063520558178425;0.0052016861736774445
-0.167144775390625;-0.0099334716796875;-1.00714111328125;-0.018211495131254196;-0.0055063520558178425;0.0052016861736774445
-0.167144775390625;-0.0099334716796875;-1.00714111328125;-0.018211495131254196;-0.0055063520558178425;0.0052016861736774445
-0.167144775390625;-0.0099334716796875;-1.00714111328125;-0.018211495131254196;-0.0055063520558178425;0.0052016861736774445
-0.164703369140625;-0.0086822509765625;-1.0067291259765625;-0.026010561734437943;-0.010570619255304337;0.006682936567813158
-0.164703369140625;-0.0086822509765625;-1.0067291259765625;-0.026010561734437943;-0.010570619255304337;0.006682936567813158
-0.164703369140625;-0.0086822509765625;-1.0067291259765625;-0.026010561734437943;-0.010570619255304337;0.006682936567813158
-0.164703369140625;-0.0086822509765625;-1.0067291259765625;-0.026010561734437943;-0.010570619255304337;0.006682936567813158
-0.164703369140625;-0.0086822509765625;-1.0067291259765625;-0.026010561734437943;-0.010570619255304337;0.006682936567813158
-0.1621856689453125;-0.0067138671875;-1.00250244140625;-0.023685354739427567;-0.013321930542588234;0.006935404147952795
-0.1621856689453125;-0.0067138671875;-1.00250244140625;-0.023685354739427567;-0.013321930542588234;0.006935404147952795
-0.1621856689453125;-0.0067138671875;-1.00250244140625;-0.023685354739427567;-0.013321930542588234;0.006935404147952795
-0.1621856689453125;-0.0067138671875;-1.00250244140625;-0.023685354739427567;-0.013321930542588234;0.006935404147952795
-0.1621856689453125;-0.0067138671875;-1.00250244140625;-0.023685354739427567;-0.013321930542588234;0.006935404147952795
-0.1615142822265625;-0.0055389404296875;-0.9975433349609375;-0.023861391469836235;-0.011667841114103794;0.006936469115316868
-0.1615142822265625;-0.0055389404296875;-0.9975433349609375;-0.023861391469836235;-0.011667841114103794;0.006936469115316868
-0.1615142822265625;-0.0055389404296875;-0.9975433349609375;-0.023861391469836235;-0.011667841114103794;0.006936469115316868
-0.1615142822265625;-0.0055389404296875;-0.9975433349609375;-0.023861391469836235;-0.011667841114103794;0.006936469115316868
-0.1615142822265625;-0.0055389404296875;-0.9975433349609375;-0.023861391469836235;-0.011667841114103794;0.006936469115316868
-0.1624755859375;-0.00201416015625;-1.0014190673828125;-0.01575765758752823;-0.015182415023446083;0.004786232952028513
-0.1624755859375;-0.00201416015625;-1.0014190673828125;-0.01575765758752823;-0.015182415023446083;0.004786232952028513
-0.1624755859375;-0.00201416015625;-1.0014190673828125;-0.01575765758752823;-0.015182415023446083;0.004786232952028513
-0.1624755859375;-0.00201416015625;-1.0014190673828125;-0.01575765758752823;-0.015182415023446083;0.004786232952028513
-0.1624755859375;-0.00201416015625;-1.0014190673828125;-0.01575765758752823;-0.015182415023446083;0.004786232952028513
-0.1628875732421875;0.00128173828125;-1.0069427490234375;-0.011935222893953323;-0.012917396612465382;0.000595216522924602
-0.1628875732421875;0.00128173828125;-1.0069427490234375;-0.011935222893953323;-0.012917396612465382;0.000595216522924602
-0.1628875732421875;0.00128173828125;-1.0069427490234375;-0.011935222893953323;-0.012917396612465382;0.000595216522924602
-0.1628875732421875;0.00128173828125;-1.0069427490234375;-0.011935222893953323;-0.012917396612465382;0.000595216522924602
-0.1628875732421875;0.00128173828125;-1.0069427490234375;-0.011935222893953323;-0.012917396612465382;0.000595216522924602
-0.1617431640625;0.002685546875;-1.0052337646484375;-0.012808206491172314;-0.015093998052179813;0.0021728731226176023
-0.1617431640625;0.002685546875;-1.0052337646484375;-0.012808206491172314;-0.015093998052179813;0.0021728731226176023
-0.1617431640625;0.002685546875;-1.0052337646484375;-0.012808206491172314;-0.015093998052179813;0.0021728731226176023
-0.1617431640625;0.002685546875;-1.0052337646484375;-0.012808206491172314;-0.015093998052179813;0.0021728731226176023
-0.1617431640625;0.002685546875;-1.0052337646484375;-0.012808206491172314;-0.015093998052179813;0.0021728731226176023
-0.16094970703125;0.0003662109375;-1.0009002685546875;-0.013777331449091434;-0.011914449743926525;-0.0011720572365447879
-0.16094970703125;0.0003662109375;-1.0009002685546875;-0.013777331449091434;-0.011914449743926525;-0.0011720572365447879
-0.16094970703125;0.0003662109375;-1.0009002685546875;-0.013777331449091434;-0.011914449743926525;-0.0011720572365447879
-0.16094970703125;0.0003662109375;-1.0009002685546875;-0.013777331449091434;-0.011914449743926525;-0.0011720572365447879
-0.16094970703125;0.0003662109375;-1.0009002685546875;-0.013777331449091434;-0.011914449743926525;-0.0011720572365447879
-0.160064697265625;0.000274658203125;-0.999359130859375;-0.011083277873694897;-0.013502492569386959;0.0006079996819607913
-0.160064697265625;0.000274658203125;-0.999359130859375;-0.011083277873694897;-0.013502492569386959;0.0006079996819607913
-0.160064697265625;0.000274658203125;-0.999359130859375;-0.011083277873694897;-0.013502492569386959;0.0006079996819607913
-0.160064697265625;0.000274658203125;-0.999359130859375;-0.011083277873694897;-0.013502492569386959;0.0006079996819607913
-0.160064697265625;0.000274658203125;-0.999359130859375;-0.011083277873694897;-0.013502492569386959;0.0006079996819607913
-0.1612701416015625;0.001220703125;-1.0019683837890625;-0.010262491181492805;-0.011758388951420784;0.0006114617572166026
-0.1612701416015625;0.001220703125;-1.0019683837890625;-0.010262491181492805;-0.011758388951420784;0.0006114617572166026
-0.1612701416015625;0.001220703125;-1.0019683837890625;-0.010262491181492805;-0.011758388951420784;0.0006114617572166026
-0.1612701416015625;0.001220703125;-1.0019683837890625;-0.010262491181492805;-0.011758388951420784;0.0006114617572166026
-0.1612701416015625;0.001220703125;-1.0019683837890625;-0.010262491181492805;-0.011758388951420784;0.0006114617572166026
-0.163177490234375;0.0008544921875;-1.000274658203125;-0.012695289216935635;-0.00908723846077919;0.002034655073657632
-0.163177490234375;0.0008544921875;-1.000274658203125;-0.012695289216935635;-0.00908723846077919;0.002034655073657632
-0.163177490234375;0.0008544921875;-1.000274658203125;-0.012695289216935635;-0.00908723846077919;0.002034655073657632
-0.163177490234375;0.0008544921875;-1.000274658203125;-0.012695289216935635;-0.00908723846077919;0.002034655073657632
-0.163177490234375;0.0008544921875;-1.000274658203125;-0.012695289216935635;-0.00908723846077919;0.002034655073657632
-0.163360595703125;-0.0005645751953125;-0.999786376953125;-0.016386697068810463;-0.005215268116444349;0.0024953819811344147
-0.163360595703125;-0.0005645751953125;-0.999786376953125;-0.016386697068810463;-0.005215268116444349;0.0024953819811344147
-0.163360595703125;-0.0005645751953125;-0.999786376953125;-0.016386697068810463;-0.005215268116444349;0.0024953819811344147
-0.163360595703125;-0.0005645751953125;-0.999786376953125;-0.016386697068810463;-0.005215268116444349;0.0024953819811344147
-0.163360595703125;-0.0005645751953125;-0.999786376953125;-0.016386697068810463;-0.005215268116444349;0.0024953819811344147
-0.164337158203125;-0.0016632080078125;-1.001190185546875;-0.01846715807914734;-0.004559065215289593;0.0032019184436649084
-0.164337158203125;-0.0016632080078125;-1.001190185546875;-0.01846715807914734;-0.004559065215289593;0.0032019184436649084
-0.164337158203125;-0.0016632080078125;-1.001190185546875;-0.01846715807914734;-0.004559065215289593;0.0032019184436649084
-0.164337158203125;-0.0016632080078125;-1.001190185546875;-0.01846715807914734;-0.004559065215289593;0.0032019184436649084
-0.164337158203125;-0.0016632080078125;-1.001190185546875;-0.01846715807914734;-0.004559065215289593;0.0032019184436649084
-0.1645660400390625;-0.0023956298828125;-1.001129150390625;-0.019634954631328583;-0.0033124396577477455;0.0018170748371630907
-0.1645660400390625;-0.0023956298828125;-1.001129150390625;-0.019634954631328583;-0.0033124396577477455;0.0018170748371630907
-0.1645660400390625;-0.0023956298828125;-1.001129150390625;-0.019634954631328583;-0.0033124396577477455;0.0018170748371630907
-0.1645660400390625;-0.0023956298828125;-1.001129150390625;-0.019634954631328583;-0.0033124396577477455;0.0018170748371630907
-0.1645660400390625;-0.0023956298828125;-1.001129150390625;-0.019634954631328583;-0.0033124396577477455;0.0018170748371630907
-0.1640625;-0.0034027099609375;-0.999176025390625;-0.0203420240432024;0.0010197244118899107;0.002779541304334998
-0.1640625;-0.0034027099609375;-0.999176025390625;-0.0203420240432024;0.0010197244118899107;0.002779541304334998
-0.1640625;-0.0034027099609375;-0.999176025390625;-0.0203420240432024;0.0010197244118899107;0.002779541304334998
-0.1640625;-0.0034027099609375;-0.999176025390625;-0.0203420240432024;0.0010197244118899107;0.002779541304334998
-0.1640625;-0.0034027099609375;-0.999176025390625;-0.0203420240432024;0.0010197244118899107;0.002779541304334998
-0.1635284423828125;-0.00201416015625;-1.0042266845703125;-0.0179305300116539;-0.0007297061383724213;0.005066930316388607
-0.1635284423828125;-0.00201416015625;-1.0042266845703125;-0.0179305300116539;-0.0007297061383724213;0.005066930316388607
-0.1635284423828125;-0.00201416015625;-1.0042266845703125;-0.0179305300116539;-0.0007297061383724213;0.005066930316388607
-0.1635284423828125;-0.00201416015625;-1.0042266845703125;-0.0179305300116539;-0.0007297061383724213;0.005066930316388607
-0.1635284423828125;-0.00201416015625;-1.0042266845703125;-0.01570332981646061;-0.0027803401462733746;0.004989432170987129
-0.162933349609375;-0.0017852783203125;-1.0054931640625;-0.01570332981646061;-0.0027803401462733746;0.004989432170987129
-0.162933349609375;-0.0017852783203125;-1.0054931640625;-0.01570332981646061;-0.0027803401462733746;0.004989432170987129
-0.162933349609375;-0.0017852783203125;-1.0054931640625;-0.01570332981646061;-0.0027803401462733746;0.004989432170987129
-0.162933349609375;-0.0017852783203125;-1.0054931640625;-0.01570332981646061;-0.0027803401462733746;0.004989432170987129
-0.162933349609375;-0.0017852783203125;-1.0054931640625;-0.019349729642271996;-0.004443750716745853;0.0070704263634979725
-0.1633758544921875;-0.0005950927734375;-1.004852294921875;-0.019349729642271996;-0.004443750716745853;0.0070704263634979725
-0.1633758544921875;-0.0005950927734375;-1.004852294921875;-0.019349729642271996;-0.004443750716745853;0.0070704263634979725
-0.1633758544921875;-0.0005950927734375;-1.004852294921875;-0.019349729642271996;-0.004443750716745853;0.0070704263634979725
-0.1633758544921875;-0.0005950927734375;-1.004852294921875;-0.019349729642271996;-0.004443750716745853;0.0070704263634979725
-0.1633758544921875;-0.0005950927734375;-1.004852294921875;-0.020912472158670425;-0.008124771527945995;0.005584382452070713
-0.165130615234375;-0.0008544921875;-1.0027008056640625;-0.020912472158670425;-0.008124771527945995;0.005584382452070713
-0.165130615234375;-0.0008544921875;-1.0027008056640625;-0.020912472158670425;-0.008124771527945995;0.005584382452070713
-0.165130615234375;-0.0008544921875;-1.0027008056640625;-0.020912472158670425;-0.008124771527945995;0.005584382452070713
-0.165130615234375;-0.0008544921875;-1.0027008056640625;-0.020912472158670425;-0.008124771527945995;0.005584382452070713
-0.165130615234375;-0.0008544921875;-1.0027008056640625;-0.027946945279836655;-0.009370066225528717;0.004169445019215345
-0.1673583984375;-0.00244140625;-1.0034942626953125;-0.027946945279836655;-0.009370066225528717;0.004169445019215345
-0.1673583984375;-0.00244140625;-1.0034942626953125;-0.027946945279836655;-0.009370066225528717;0.004169445019215345
-0.1673583984375;-0.00244140625;-1.0034942626953125;-0.027946945279836655;-0.009370066225528717;0.004169445019215345
-0.1673583984375;-0.00244140625;-1.0034942626953125;-0.027946945279836655;-0.009370066225528717;0.004169445019215345
-0.1681365966796875;-0.0030059814453125;-0.9998321533203125;-0.03977511078119278;-0.008583101443946362;4.394215648062527e-05
-0.1681365966796875;-0.0030059814453125;-0.9998321533203125;-0.03977511078119278;-0.008583101443946362;4.394215648062527e-05
-0.1681365966796875;-0.0030059814453125;-0.9998321533203125;-0.03977511078119278;-0.008583101443946362;4.394215648062527e-05
-0.1681365966796875;-0.0030059814453125;-0.9998321533203125;-0.03977511078119278;-0.008583101443946362;4.394215648062527e-05
-0.1681365966796875;-0.0030059814453125;-0.9998321533203125;-0.03977511078119278;-0.008583101443946362;4.394215648062527e-05
-0.1675567626953125;-0.00341796875;-0.990631103515625;-0.04855981096625328;-0.006298375781625509;-0.0028399948496371508
-0.1675567626953125;-0.00341796875;-0.990631103515625;-0.04855981096625328;-0.006298375781625509;-0.0028399948496371508
-0.1675567626953125;-0.00341796875;-0.990631103515625;-0.04855981096625328;-0.006298375781625509;-0.0028399948496371508
-0.1675567626953125;-0.00341796875;-0.990631103515625;-0.04855981096625328;-0.006298375781625509;-0.0028399948496371508
-0.1675567626953125;-0.00341796875;-0.990631103515625;-0.04855981096625328;-0.006298375781625509;-0.0028399948496371508
-0.1659698486328125;-0.0026702880859375;-0.9943389892578125;-0.05058381333947182;-0.0054882424883544445;-0.002960369922220707
-0.1659698486328125;-0.0026702880859375;-0.9943389892578125;-0.05058381333947182;-0.0054882424883544445;-0.002960369922220707
-0.1659698486328125;-0.0026702880859375;-0.9943389892578125;-0.05058381333947182;-0.0054882424883544445;-0.002960369922220707
-0.1659698486328125;-0.0026702880859375;-0.9943389892578125;-0.05058381333947182;-0.0054882424883544445;-0.002960369922220707
-0.1659698486328125;-0.0026702880859375;-0.9943389892578125;-0.05058381333947182;-0.0054882424883544445;-0.002960369922220707
-0.1646575927734375;0.0003814697265625;-1.006317138671875;-0.04165423661470413;-0.011292335577309132;1.864212754298933e-05
-0.1646575927734375;0.0003814697265625;-1.006317138671875;-0.04165423661470413;-0.011292335577309132;1.864212754298933e-05
-0.1646575927734375;0.0003814697265625;-1.006317138671875;-0.04165423661470413;-0.011292335577309132;1.864212754298933e-05
-0.1646575927734375;0.0003814697265625;-1.006317138671875;-0.04165423661470413;-0.011292335577309132;1.864212754298933e-05
-0.1646575927734375;0.0003814697265625;-1.006317138671875;-0.04165423661470413;-0.011292335577309132;1.864212754298933e-05
-0.164276123046875;0.0034027099609375;-1.010772705078125;-0.032220520079135895;-0.010568754747509956;0.000520647969096899
-0.164276123046875;0.0034027099609375;-1.010772705078125;-0.032220520079135895;-0.010568754747509956;0.000520647969096899
-0.164276123046875;0.0034027099609375;-1.010772705078125;-0.032220520079135895;-0.010568754747509956;0.000520647969096899
-0.164276123046875;0.0034027099609375;-1.010772705078125;-0.032220520079135895;-0.010568754747509956;0.000520647969096899
-0.164276123046875;0.0034027099609375;-1.010772705078125;-0.032220520079135895;-0.010568754747509956;0.000520647969096899
-0.1651153564453125;0.0043487548828125;-1.00701904296875;-0.0237005352973938;-0.010762100107967854;0.00384427304379642
-0.1651153564453125;0.0043487548828125;-1.00701904296875;-0.0237005352973938;-0.010762100107967854;0.00384427304379642
-0.1651153564453125;0.0043487548828125;-1.00701904296875;-0.0237005352973938;-0.010762100107967854;0.00384427304379642
-0.1651153564453125;0.0043487548828125;-1.00701904296875;-0.0237005352973938;-0.010762100107967854;0.00384427304379642
-0.1651153564453125;0.0043487548828125;-1.00701904296875;-0.0237005352973938;-0.010762100107967854;0.00384427304379642
-0.1665191650390625;0.00408935546875;-1.0045623779296875;-0.019514312967658043;-0.005422994960099459;0.004969458561390638
-0.1665191650390625;0.00408935546875;-1.0045623779296875;-0.019514312967658043;-0.005422994960099459;0.004969458561390638
-0.1665191650390625;0.00408935546875;-1.0045623779296875;-0.019514312967658043;-0.005422994960099459;0.004969458561390638
-0.1665191650390625;0.00408935546875;-1.0045623779296875;-0.019514312967658043;-0.005422994960099459;0.004969458561390638
-0.1665191650390625;0.00408935546875;-1.0045623779296875;-0.019514312967658043;-0.005422994960099459;0.004969458561390638
-0.1658172607421875;0.0065460205078125;-1.007080078125;-0.012695555575191975;-0.0014199974248185754;0.0044205812737345695
-0.1658172607421875;0.0065460205078125;-1.007080078125;-0.012695555575191975;-0.0014199974248185754;0.0044205812737345695
-0.1658172607421875;0.0065460205078125;-1.007080078125;-0.012695555575191975;-0.0014199974248185754;0.0044205812737345695
-0.1658172607421875;0.0065460205078125;-1.007080078125;-0.012695555575191975;-0.0014199974248185754;0.0044205812737345695
-0.1658172607421875;0.0065460205078125;-1.007080078125;-0.012695555575191975;-0.0014199974248185754;0.0044205812737345695
-0.16546630859375;0.0057525634765625;-1.0087127685546875;-0.00953757856041193;-0.0059713395312428474;0.0041156490333378315
-0.16546630859375;0.0057525634765625;-1.0087127685546875;-0.00953757856041193;-0.0059713395312428474;0.0041156490333378315
-0.16546630859375;0.0057525634765625;-1.0087127685546875;-0.00953757856041193;-0.0059713395312428474;0.0041156490333378315
-0.16546630859375;0.0057525634765625;-1.0087127685546875;-0.00953757856041193;-0.0059713395312428474;0.0041156490333378315
-0.16546630859375;0.0057525634765625;-1.0087127685546875;-0.00953757856041193;-0.0059713395312428474;0.0041156490333378315
-0.165008544921875;0.0037994384765625;-1.0056610107421875;-0.015594139695167542;-0.006020075641572475;0.007556986063718796
-0.165008544921875;0.0037994384765625;-1.0056610107421875;-0.015594139695167542;-0.006020075641572475;0.007556986063718796
-0.165008544921875;0.0037994384765625;-1.0056610107421875;-0.015594139695167542;-0.006020075641572475;0.007556986063718796
-0.165008544921875;0.0037994384765625;-1.0056610107421875;-0.015594139695167542;-0.006020075641572475;0.007556986063718796
-0.165008544921875;0.0037994384765625;-1.0056610107421875;-0.015594139695167542;-0.006020075641572475;0.007556986063718796
-0.1646881103515625;0.00274658203125;-1.0025177001953125;-0.01932176575064659;-0.003481284249573946;0.0067481836304068565
-0.1646881103515625;0.00274658203125;-1.0025177001953125;-0.01932176575064659;-0.003481284249573946;0.0067481836304068565
-0.1646881103515625;0.00274658203125;-1.0025177001953125;-0.01932176575064659;-0.003481284249573946;0.0067481836304068565
-0.1646881103515625;0.00274658203125;-1.0025177001953125;-0.01932176575064659;-0.003481284249573946;0.0067481836304068565
-0.1646881103515625;0.00274658203125;-1.0025177001953125;-0.01932176575064659;-0.003481284249573946;0.0067481836304068565
-0.1644439697265625;0.002288818359375;-0.9984893798828125;-0.023755397647619247;0.00282002124004066;0.004447212442755699
-0.1644439697265625;0.002288818359375;-0.9984893798828125;-0.023755397647619247;0.00282002124004066;0.004447212442755699
-0.1644439697265625;0.002288818359375;-0.9984893798828125;-0.023755397647619247;0.00282002124004066;0.004447212442755699
-0.1644439697265625;0.002288818359375;-0.9984893798828125;-0.023755397647619247;0.00282002124004066;0.004447212442755699
-0.1644439697265625;0.002288818359375;-0.9984893798828125;-0.023755397647619247;0.00282002124004066;0.004447212442755699
-0.1634674072265625;0.0025482177734375;-0.999176025390625;-0.025373000651597977;0.003628556849434972;0.004423776641488075
-0.1634674072265625;0.0025482177734375;-0.999176025390625;-0.025373000651597977;0.003628556849434972;0.004423776641488075
-0.1634674072265625;0.0025482177734375;-0.999176025390625;-0.025373000651597977;0.003628556849434972;0.004423776641488075
-0.1634674072265625;0.0025482177734375;-0.999176025390625;-0.025373000651597977;0.003628556849434972;0.004423776641488075
-0.1634674072265625;0.0025482177734375;-0.999176025390625;-0.025373000651597977;0.003628556849434972;0.004423776641488075
-0.1622314453125;0.002227783203125;-1.0028228759765625;-0.02612374536693096;0.0022825952619314194;0.001446096459403634
-0.1622314453125;0.002227783203125;-1.0028228759765625;-0.02612374536693096;0.0022825952619314194;0.001446096459403634
-0.1622314453125;0.002227783203125;-1.0028228759765625;-0.02612374536693096;0.0022825952619314194;0.001446096459403634
-0.1622314453125;0.002227783203125;-1.0028228759765625;-0.02612374536693096;0.0022825952619314194;0.001446096459403634
-0.1622314453125;0.002227783203125;-1.0028228759765625;-0.02612374536693096;0.0022825952619314194;0.001446096459403634
-0.1622467041015625;0.00323486328125;-1.005096435546875;-0.020844561979174614;0.0024714134633541107;0.003850131994113326
-0.1622467041015625;0.00323486328125;-1.005096435546875;-0.020844561979174614;0.0024714134633541107;0.003850131994113326
-0.1622467041015625;0.00323486328125;-1.005096435546875;-0.020844561979174614;0.0024714134633541107;0.003850131994113326
-0.1622467041015625;0.00323486328125;-1.005096435546875;-0.020844561979174614;0.0024714134633541107;0.003850131994113326
-0.1622467041015625;0.00323486328125;-1.005096435546875;-0.020844561979174614;0.0024714134633541107;0.003850131994113326
-0.16314697265625;0.0028076171875;-1.005584716796875;-0.021229654550552368;0.0001073253879440017;0.002243180526420474
-0.16314697265625;0.0028076171875;-1.005584716796875;-0.021229654550552368;0.0001073253879440017;0.002243180526420474
-0.16314697265625;0.0028076171875;-1.005584716796875;-0.021229654550552368;0.0001073253879440017;0.002243180526420474
-0.16314697265625;0.0028076171875;-1.005584716796875;-0.021229654550552368;0.0001073253879440017;0.002243180526420474
-0.16314697265625;0.0028076171875;-1.005584716796875;-0.021229654550552368;0.0001073253879440017;0.002243180526420474
-0.165313720703125;0.0003662109375;-1.0042724609375;-0.02840367890894413;-0.004403270315378904;0.0006854976527392864
-0.165313720703125;0.0003662109375;-1.0042724609375;-0.02840367890894413;-0.004403270315378904;0.0006854976527392864
-0.165313720703125;0.0003662109375;-1.0042724609375;-0.02840367890894413;-0.004403270315378904;0.0006854976527392864
-0.165313720703125;0.0003662109375;-1.0042724609375;-0.02840367890894413;-0.004403270315378904;0.0006854976527392864
-0.165313720703125;0.0003662109375;-1.0042724609375;-0.02840367890894413;-0.004403270315378904;0.0006854976527392864
-0.1662750244140625;-0.001678466796875;-1.0016326904296875;-0.03608423471450806;-0.0073133064433932304;0.0011526161106303334
-0.1662750244140625;-0.001678466796875;-1.0016326904296875;-0.03608423471450806;-0.0073133064433932304;0.0011526161106303334
-0.1662750244140625;-0.001678466796875;-1.0016326904296875;-0.03608423471450806;-0.0073133064433932304;0.0011526161106303334
-0.1662750244140625;-0.001678466796875;-1.0016326904296875;-0.03608423471450806;-0.0073133064433932304;0.0011526161106303334
-0.1662750244140625;-0.001678466796875;-1.0016326904296875;-0.03608423471450806;-0.0073133064433932304;0.0011526161106303334
-0.1666412353515625;0.0002288818359375;-1.001800537109375;-0.03688904270529747;-0.0010167949367314577;0.0014503574930131435
-0.1666412353515625;0.0002288818359375;-1.001800537109375;-0.03688904270529747;-0.0010167949367314577;0.0014503574930131435
-0.1666412353515625;0.0002288818359375;-1.001800537109375;-0.03688904270529747;-0.0010167949367314577;0.0014503574930131435
-0.1666412353515625;0.0002288818359375;-1.001800537109375;-0.03688904270529747;-0.0010167949367314577;0.0014503574930131435
-0.1666412353515625;0.0002288818359375;-1.001800537109375;-0.03688904270529747;-0.0010167949367314577;0.0014503574930131435
-0.1655120849609375;0.003082275390625;-1.0043792724609375;-0.03038267232477665;0.0024487765040248632;-0.00037710359902121127
-0.1655120849609375;0.003082275390625;-1.0043792724609375;-0.03038267232477665;0.0024487765040248632;-0.00037710359902121127
-0.1655120849609375;0.003082275390625;-1.0043792724609375;-0.03038267232477665;0.0024487765040248632;-0.00037710359902121127
-0.1655120849609375;0.003082275390625;-1.0043792724609375;-0.03038267232477665;0.0024487765040248632;-0.00037710359902121127
-0.1655120849609375;0.003082275390625;-1.0043792724609375;-0.03038267232477665;0.0024487765040248632;-0.00037710359902121127
-0.163421630859375;0.00543212890625;-1.00836181640625;-0.020170515403151512;0.007363107521086931;0.004335626028478146
-0.163421630859375;0.00543212890625;-1.00836181640625;-0.020170515403151512;0.007363107521086931;0.004335626028478146
-0.163421630859375;0.00543212890625;-1.00836181640625;-0.020170515403151512;0.007363107521086931;0.004335626028478146
-0.163421630859375;0.00543212890625;-1.00836181640625;-0.020170515403151512;0.007363107521086931;0.004335626028478146
-0.163421630859375;0.00543212890625;-1.00836181640625;-0.020170515403151512;0.007363107521086931;0.004335626028478146
-0.163330078125;0.0077972412109375;-1.003570556640625;-0.007383081596344709;0.026702184230089188;0.0011824434623122215
-0.163330078125;0.0077972412109375;-1.003570556640625;-0.007383081596344709;0.026702184230089188;0.0011824434623122215
-0.163330078125;0.0077972412109375;-1.003570556640625;-0.007383081596344709;0.026702184230089188;0.0011824434623122215
-0.163330078125;0.0077972412109375;-1.003570556640625;-0.007383081596344709;0.026702184230089188;0.0011824434623122215
-0.163330078125;0.0077972412109375;-1.003570556640625;-0.007383081596344709;0.026702184230089188;0.0011824434623122215
-0.1645355224609375;0.009429931640625;-0.98876953125;-0.005662679206579924;0.018824022263288498;-0.0037113812286406755
-0.1645355224609375;0.009429931640625;-0.98876953125;-0.005662679206579924;0.018824022263288498;-0.0037113812286406755
-0.1645355224609375;0.009429931640625;-0.98876953125;-0.005662679206579924;0.018824022263288498;-0.0037113812286406755
-0.1645355224609375;0.009429931640625;-0.98876953125;-0.005662679206579924;0.018824022263288498;-0.0037113812286406755
-0.1645355224609375;0.009429931640625;-0.98876953125;-0.005662679206579924;0.018824022263288498;-0.0037113812286406755
-0.165008544921875;0.01080322265625;-0.9993896484375;-0.006733004003763199;0.011140535585582256;0.0003528688393998891
-0.165008544921875;0.01080322265625;-0.9993896484375;-0.006733004003763199;0.011140535585582256;0.0003528688393998891
-0.165008544921875;0.01080322265625;-0.9993896484375;-0.006733004003763199;0.011140535585582256;0.0003528688393998891
-0.165008544921875;0.01080322265625;-0.9993896484375;-0.006733004003763199;0.011140535585582256;0.0003528688393998891
-0.165008544921875;0.01080322265625;-0.9993896484375;-0.006733004003763199;0.011140535585582256;0.0003528688393998891
-0.166351318359375;0.010772705078125;-1.0130615234375;-0.020127106457948685;-0.010041449218988419;0.0026959178503602743
-0.166351318359375;0.010772705078125;-1.0130615234375;-0.020127106457948685;-0.010041449218988419;0.0026959178503602743
-0.166351318359375;0.010772705078125;-1.0130615234375;-0.020127106457948685;-0.010041449218988419;0.0026959178503602743
-0.166351318359375;0.010772705078125;-1.0130615234375;-0.020127106457948685;-0.010041449218988419;0.0026959178503602743
-0.166351318359375;0.010772705078125;-1.0130615234375;-0.020127106457948685;-0.010041449218988419;0.0026959178503602743
-0.1648712158203125;0.0077056884765625;-1.0057525634765625;-0.030644727870821953;-0.03948722034692764;0.003983822651207447
-0.1648712158203125;0.0077056884765625;-1.0057525634765625;-0.030644727870821953;-0.03948722034692764;0.003983822651207447
-0.1648712158203125;0.0077056884765625;-1.0057525634765625;-0.030644727870821953;-0.03948722034692764;0.003983822651207447
-0.1648712158203125;0.0077056884765625;-1.0057525634765625;-0.030644727870821953;-0.03948722034692764;0.003983822651207447
-0.1648712158203125;0.0077056884765625;-1.0057525634765625;-0.030644727870821953;-0.03948722034692764;0.003983822651207447
-0.1629638671875;0.0085296630859375;-1.0002899169921875;-0.0351414754986763;-0.02695092372596264;0.0062246061861515045
-0.1629638671875;0.0085296630859375;-1.0002899169921875;-0.0351414754986763;-0.02695092372596264;0.0062246061861515045
-0.1629638671875;0.0085296630859375;-1.0002899169921875;-0.0351414754986763;-0.02695092372596264;0.0062246061861515045
-0.1629638671875;0.0085296630859375;-1.0002899169921875;-0.0351414754986763;-0.02695092372596264;0.0062246061861515045
-0.1629638671875;0.0085296630859375;-1.0002899169921875;-0.0351414754986763;-0.02695092372596264;0.0062246061861515045
-0.166290283203125;0.0102081298828125;-0.9913330078125;-0.026796992868185043;-0.007226753979921341;0.0034352114889770746
-0.166290283203125;0.0102081298828125;-0.9913330078125;-0.026796992868185043;-0.007226753979921341;0.0034352114889770746
-0.166290283203125;0.0102081298828125;-0.9913330078125;-0.026796992868185043;-0.007226753979921341;0.0034352114889770746
-0.166290283203125;0.0102081298828125;-0.9913330078125;-0.026796992868185043;-0.007226753979921341;0.0034352114889770746
-0.166290283203125;0.0102081298828125;-0.9913330078125;-0.026796992868185043;-0.007226753979921341;0.0034352114889770746
-0.167022705078125;0.010284423828125;-1.0008697509765625;0.003132942598313093;0.002282062778249383;0.0014684670604765415
-0.167022705078125;0.010284423828125;-1.0008697509765625;0.003132942598313093;0.002282062778249383;0.0014684670604765415
-0.167022705078125;0.010284423828125;-1.0008697509765625;0.003132942598313093;0.002282062778249383;0.0014684670604765415
-0.167022705078125;0.010284423828125;-1.0008697509765625;0.003132942598313093;0.002282062778249383;0.0014684670604765415
-0.167022705078125;0.010284423828125;-1.0008697509765625;0.003132942598313093;0.002282062778249383;0.0014684670604765415
-0.1646575927734375;0.0083465576171875;-1.0100250244140625;0.018309764564037323;0.016145680099725723;0.00023329291434492916
-0.1646575927734375;0.0083465576171875;-1.0100250244140625;0.018309764564037323;0.016145680099725723;0.00023329291434492916
-0.1646575927734375;0.0083465576171875;-1.0100250244140625;0.018309764564037323;0.016145680099725723;0.00023329291434492916
-0.1646575927734375;0.0083465576171875;-1.0100250244140625;0.018309764564037323;0.016145680099725723;0.00023329291434492916
-0.1646575927734375;0.0083465576171875;-1.0100250244140625;0.018309764564037323;0.016145680099725723;0.00023329291434492916
-0.16278076171875;0.0038604736328125;-1.0027618408203125;-0.002609098795801401;0.004423776641488075;-0.0020775320008397102
-0.16278076171875;0.0038604736328125;-1.0027618408203125;-0.002609098795801401;0.004423776641488075;-0.0020775320008397102
-0.16278076171875;0.0038604736328125;-1.0027618408203125;-0.002609098795801401;0.004423776641488075;-0.0020775320008397102
-0.16278076171875;0.0038604736328125;-1.0027618408203125;-0.002609098795801401;0.004423776641488075;-0.0020775320008397102
-0.16278076171875;0.0038604736328125;-1.0027618408203125;-0.002609098795801401;0.004423776641488075;-0.0020775320008397102
-0.1601104736328125;-0.0010528564453125;-0.9999237060546875;-0.0287014190107584;-0.00629038643091917;-0.0023547669406980276
-0.1601104736328125;-0.0010528564453125;-0.9999237060546875;-0.0287014190107584;-0.00629038643091917;-0.0023547669406980276
-0.1601104736328125;-0.0010528564453125;-0.9999237060546875;-0.0287014190107584;-0.00629038643091917;-0.0023547669406980276
-0.1601104736328125;-0.0010528564453125;-0.9999237060546875;-0.0287014190107584;-0.00629038643091917;-0.0023547669406980276
-0.1601104736328125;-0.0010528564453125;-0.9999237060546875;-0.0287014190107584;-0.00629038643091917;-0.0023547669406980276
-0.1613616943359375;-0.0031280517578125;-1.0028839111328125;-0.03837987780570984;-0.0060112872160971165;-0.0019504991360008717
-0.1613616943359375;-0.0031280517578125;-1.0028839111328125;-0.03837987780570984;-0.0060112872160971165;-0.0019504991360008717
-0.1613616943359375;-0.0031280517578125;-1.0028839111328125;-0.03837987780570984;-0.0060112872160971165;-0.0019504991360008717
-0.1613616943359375;-0.0031280517578125;-1.0028839111328125;-0.03837987780570984;-0.0060112872160971165;-0.0019504991360008717
-0.1613616943359375;-0.0031280517578125;-1.0028839111328125;-0.03837987780570984;-0.0060112872160971165;-0.0019504991360008717
-0.1635894775390625;0.000457763671875;-1.0037841796875;-0.039263781160116196;0.0007265103631652892;-0.000401604687795043
-0.1635894775390625;0.000457763671875;-1.0037841796875;-0.039263781160116196;0.0007265103631652892;-0.000401604687795043
-0.1635894775390625;0.000457763671875;-1.0037841796875;-0.039263781160116196;0.0007265103631652892;-0.000401604687795043
-0.1635894775390625;0.000457763671875;-1.0037841796875;-0.039263781160116196;0.0007265103631652892;-0.000401604687795043
-0.1635894775390625;0.000457763671875;-1.0037841796875;-0.039263781160116196;0.0007265103631652892;-0.000401604687795043
-0.1663970947265625;0.0028839111328125;-1.0009613037109375;-0.03056296892464161;0.004312190227210522;0.0020213392563164234
-0.1663970947265625;0.0028839111328125;-1.0009613037109375;-0.03056296892464161;0.004312190227210522;0.0020213392563164234
-0.1663970947265625;0.0028839111328125;-1.0009613037109375;-0.03056296892464161;0.004312190227210522;0.0020213392563164234
-0.1663970947265625;0.0028839111328125;-1.0009613037109375;-0.03056296892464161;0.004312190227210522;0.0020213392563164234
-0.1663970947265625;0.0028839111328125;-1.0009613037109375;-0.03056296892464161;0.004312190227210522;0.0020213392563164234
-0.1684722900390625;0.0062255859375;-1.00567626953125;-0.018997127190232277;0.00663499953225255;0.0037297571543604136
-0.1684722900390625;0.0062255859375;-1.00567626953125;-0.018997127190232277;0.00663499953225255;0.0037297571543604136
-0.1684722900390625;0.0062255859375;-1.00567626953125;-0.018997127190232277;0.00663499953225255;0.0037297571543604136
-0.1684722900390625;0.0062255859375;-1.00567626953125;-0.018997127190232277;0.00663499953225255;0.0037297571543604136
-0.1684722900390625;0.0062255859375;-1.00567626953125;-0.01738884299993515;0.010522948578000069;0.004895688965916634
-0.16815185546875;0.00762939453125;-1.0072021484375;-0.01738884299993515;0.010522948578000069;0.004895688965916634
-0.16815185546875;0.00762939453125;-1.0072021484375;-0.01738884299993515;0.010522948578000069;0.004895688965916634
-0.16815185546875;0.00762939453125;-1.0072021484375;-0.01738884299993515;0.010522948578000069;0.004895688965916634
-0.16815185546875;0.00762939453125;-1.0072021484375;-0.01738884299993515;0.010522948578000069;0.004895688965916634
-0.16815185546875;0.00762939453125;-1.0072021484375;-0.011125355027616024;0.011983159929513931;0.00042637207661755383
-0.1663818359375;0.010589599609375;-1.0049591064453125;-0.011125355027616024;0.011983159929513931;0.00042637207661755383
-0.1663818359375;0.010589599609375;-1.0049591064453125;-0.011125355027616024;0.011983159929513931;0.00042637207661755383
-0.1663818359375;0.010589599609375;-1.0049591064453125;-0.011125355027616024;0.011983159929513931;0.00042637207661755383
-0.1663818359375;0.010589599609375;-1.0049591064453125;-0.011125355027616024;0.011983159929513931;0.00042637207661755383
-0.1663818359375;0.010589599609375;-1.0049591064453125;-0.009675264358520508;0.007976965978741646;0.0029585056472569704
-0.16448974609375;0.011383056640625;-1.005828857421875;-0.009675264358520508;0.007976965978741646;0.0029585056472569704
-0.16448974609375;0.011383056640625;-1.005828857421875;-0.009675264358520508;0.007976965978741646;0.0029585056472569704
-0.16448974609375;0.011383056640625;-1.005828857421875;-0.009675264358520508;0.007976965978741646;0.0029585056472569704
-0.16448974609375;0.011383056640625;-1.005828857421875;-0.009675264358520508;0.007976965978741646;0.0029585056472569704
-0.16448974609375;0.011383056640625;-1.005828857421875;-0.0054142065346241;0.005256281234323978;0.003346261801198125
-0.163177490234375;0.01336669921875;-1.0055389404296875;-0.0054142065346241;0.005256281234323978;0.003346261801198125
-0.163177490234375;0.01336669921875;-1.0055389404296875;-0.0054142065346241;0.005256281234323978;0.003346261801198125
-0.163177490234375;0.01336669921875;-1.0055389404296875;-0.0054142065346241;0.005256281234323978;0.003346261801198125
-0.163177490234375;0.01336669921875;-1.0055389404296875;-0.0054142065346241;0.005256281234323978;0.003346261801198125
-0.1618194580078125;0.014862060546875;-1.00750732421875;-0.001085770782083273;0.000945954816415906;0.000898550555575639
-0.1618194580078125;0.014862060546875;-1.00750732421875;-0.001085770782083273;0.000945954816415906;0.000898550555575639
-0.1618194580078125;0.014862060546875;-1.00750732421875;-0.001085770782083273;0.000945954816415906;0.000898550555575639
-0.1618194580078125;0.014862060546875;-1.00750732421875;-0.001085770782083273;0.000945954816415906;0.000898550555575639
-0.1618194580078125;0.014862060546875;-1.00750732421875;-0.001085770782083273;0.000945954816415906;0.000898550555575639
-0.1618194580078125;0.014862060546875;-1.00750732421875;0.001094825565814972;-0.0008740494376979768;0.0032051142770797014
-0.162628173828125;0.0134735107421875;-1.007110595703125;0.001094825565814972;-0.0008740494376979768;0.0032051142770797014
-0.162628173828125;0.0134735107421875;-1.007110595703125;0.001094825565814972;-0.0008740494376979768;0.0032051142770797014
-0.162628173828125;0.0134735107421875;-1.007110595703125;0.001094825565814972;-0.0008740494376979768;0.0032051142770797014
-0.162628173828125;0.0134735107421875;-1.007110595703125;0.001094825565814972;-0.0008740494376979768;0.0032051142770797014
-0.1643829345703125;0.01263427734375;-1.0025482177734375;0.00361737166531384;0.0018216022290289402;0.0030056436080485582
-0.1643829345703125;0.01263427734375;-1.0025482177734375;0.00361737166531384;0.0018216022290289402;0.0030056436080485582
-0.1643829345703125;0.01263427734375;-1.0025482177734375;0.00361737166531384;0.0018216022290289402;0.0030056436080485582
-0.1643829345703125;0.01263427734375;-1.0025482177734375;0.00361737166531384;0.0018216022290289402;0.0030056436080485582
-0.1643829345703125;0.01263427734375;-1.0025482177734375;0.00361737166531384;0.0018216022290289402;0.0030056436080485582
-0.1649169921875;0.0103759765625;-1.0042266845703125;0.00384453940205276;-0.0004295678809285164;0.001936650718562305
-0.1649169921875;0.0103759765625;-1.0042266845703125;0.00384453940205276;-0.0004295678809285164;0.001936650718562305
-0.1649169921875;0.0103759765625;-1.0042266845703125;0.00384453940205276;-0.0004295678809285164;0.001936650718562305
-0.1649169921875;0.0103759765625;-1.0042266845703125;0.00384453940205276;-0.0004295678809285164;0.001936650718562305
-0.1649169921875;0.0103759765625;-1.0042266845703125;0.00384453940205276;-0.0004295678809285164;0.001936650718562305
-0.163970947265625;0.0091094970703125;-1.00567626953125;0.000660463934764266;-0.000300404557492584;0.001984587637707591
-0.163970947265625;0.0091094970703125;-1.00567626953125;0.000660463934764266;-0.000300404557492584;0.001984587637707591
-0.163970947265625;0.0091094970703125;-1.00567626953125;0.000660463934764266;-0.000300404557492584;0.001984587637707591
-0.163970947265625;0.0091094970703125;-1.00567626953125;0.000660463934764266;-0.000300404557492584;0.001984587637707591
-0.163970947265625;0.0091094970703125;-1.00567626953125;0.000660463934764266;-0.000300404557492584;0.001984587637707591
-0.1634063720703125;0.0068817138671875;-1.004119873046875;-0.0022927154786884785;-0.0008559399866499007;-0.00040852889651432633
-0.1634063720703125;0.0068817138671875;-1.004119873046875;-0.0022927154786884785;-0.0008559399866499007;-0.00040852889651432633
-0.1634063720703125;0.0068817138671875;-1.004119873046875;-0.0022927154786884785;-0.0008559399866499007;-0.00040852889651432633
-0.1634063720703125;0.0068817138671875;-1.004119873046875;-0.0022927154786884785;-0.0008559399866499007;-0.00040852889651432633
-0.1634063720703125;0.0068817138671875;-1.004119873046875;-0.0022927154786884785;-0.0008559399866499007;-0.00040852889651432633
-0.163177490234375;0.0064239501953125;-1.001434326171875;-0.004540689755231142;0.0011124024167656898;0.0054938350804150105
-0.163177490234375;0.0064239501953125;-1.001434326171875;-0.004540689755231142;0.0011124024167656898;0.0054938350804150105
-0.163177490234375;0.0064239501953125;-1.001434326171875;-0.004540689755231142;0.0011124024167656898;0.0054938350804150105
-0.163177490234375;0.0064239501953125;-1.001434326171875;-0.004540689755231142;0.0011124024167656898;0.0054938350804150105
-0.163177490234375;0.0064239501953125;-1.001434326171875;-0.004540689755231142;0.0011124024167656898;0.0054938350804150105
-0.1638946533203125;0.0058441162109375;-1.004058837890625;0.0004799016169272363;0.003947603516280651;0.0036509274505078793
-0.1638946533203125;0.0058441162109375;-1.004058837890625;0.0004799016169272363;0.003947603516280651;0.0036509274505078793
-0.1638946533203125;0.0058441162109375;-1.004058837890625;0.0004799016169272363;0.003947603516280651;0.0036509274505078793
-0.1638946533203125;0.0058441162109375;-1.004058837890625;0.0004799016169272363;0.003947603516280651;0.0036509274505078793
-0.1638946533203125;0.0058441162109375;-1.004058837890625;0.0004799016169272363;0.003947603516280651;0.0036509274505078793
-0.1638641357421875;0.0050048828125;-1.006072998046875;-0.0006215817993506789;0.0013038836186751723;0.0014761901693418622
-0.1638641357421875;0.0050048828125;-1.006072998046875;-0.0006215817993506789;0.0013038836186751723;0.0014761901693418622
-0.1638641357421875;0.0050048828125;-1.006072998046875;-0.0006215817993506789;0.0013038836186751723;0.0014761901693418622
-0.1638641357421875;0.0050048828125;-1.006072998046875;-0.0006215817993506789;0.0013038836186751723;0.0014761901693418622
-0.1638641357421875;0.0050048828125;-1.006072998046875;-0.0006215817993506789;0.0013038836186751723;0.0014761901693418622
-0.1638641357421875;0.004791259765625;-1.000823974609375;-0.00529676117002964;0.006609965581446886;0.0026354643050581217
-0.1638641357421875;0.004791259765625;-1.000823974609375;-0.00529676117002964;0.006609965581446886;0.0026354643050581217
-0.1638641357421875;0.004791259765625;-1.000823974609375;-0.00529676117002964;0.006609965581446886;0.0026354643050581217
-0.1638641357421875;0.004791259765625;-1.000823974609375;-0.00529676117002964;0.006609965581446886;0.0026354643050581217
-0.1638641357421875;0.004791259765625;-1.000823974609375;-0.00529676117002964;0.006609965581446886;0.0026354643050581217
-0.163482666015625;0.003509521484375;-0.9992218017578125;-0.0017608820926398039;0.006388124544173479;0.0011478224769234657
-0.163482666015625;0.003509521484375;-0.9992218017578125;-0.0017608820926398039;0.006388124544173479;0.0011478224769234657
-0.163482666015625;0.003509521484375;-0.9992218017578125;-0.0017608820926398039;0.006388124544173479;0.0011478224769234657
-0.163482666015625;0.003509521484375;-0.9992218017578125;-0.0017608820926398039;0.006388124544173479;0.0011478224769234657
-0.163482666015625;0.003509521484375;-0.9992218017578125;-0.0017608820926398039;0.006388124544173479;0.0011478224769234657
-0.1623687744140625;0.0046844482421875;-1.0048065185546875;-0.006079730577766895;-0.0004924184759147465;0.0018953717080876231
-0.1623687744140625;0.0046844482421875;-1.0048065185546875;-0.006079730577766895;-0.0004924184759147465;0.0018953717080876231
-0.1623687744140625;0.0046844482421875;-1.0048065185546875;-0.006079730577766895;-0.0004924184759147465;0.0018953717080876231
-0.1623687744140625;0.0046844482421875;-1.0048065185546875;-0.006079730577766895;-0.0004924184759147465;0.0018953717080876231
-0.1623687744140625;0.0046844482421875;-1.0048065185546875;-0.006079730577766895;-0.0004924184759147465;0.0018953717080876231
-0.16070556640625;0.00531005859375;-1.0029144287109375;-0.02606302499771118;-0.013621536083519459;0.003222425002604723
-0.16070556640625;0.00531005859375;-1.0029144287109375;-0.02606302499771118;-0.013621536083519459;0.003222425002604723
-0.16070556640625;0.00531005859375;-1.0029144287109375;-0.02606302499771118;-0.013621536083519459;0.003222425002604723
-0.16070556640625;0.00531005859375;-1.0029144287109375;-0.02606302499771118;-0.013621536083519459;0.003222425002604723
-0.16070556640625;0.00531005859375;-1.0029144287109375;-0.02606302499771118;-0.013621536083519459;0.003222425002604723
-0.159515380859375;0.0041656494140625;-0.99786376953125;-0.043108854442834854;-0.01683890074491501;0.004043211229145527
-0.159515380859375;0.0041656494140625;-0.99786376953125;-0.043108854442834854;-0.01683890074491501;0.004043211229145527
-0.159515380859375;0.0041656494140625;-0.99786376953125;-0.043108854442834854;-0.01683890074491501;0.004043211229145527
-0.159515380859375;0.0041656494140625;-0.99786376953125;-0.043108854442834854;-0.01683890074491501;0.004043211229145527
-0.159515380859375;0.0041656494140625;-0.99786376953125;-0.043108854442834854;-0.01683890074491501;0.004043211229145527
-0.1602325439453125;0.0090484619140625;-1.0009002685546875;-0.02912645973265171;-0.0059689427725970745;0.004145210143178701
-0.1602325439453125;0.0090484619140625;-1.0009002685546875;-0.02912645973265171;-0.0059689427725970745;0.004145210143178701
-0.1602325439453125;0.0090484619140625;-1.0009002685546875;-0.02912645973265171;-0.0059689427725970745;0.004145210143178701
-0.1602325439453125;0.0090484619140625;-1.0009002685546875;-0.02912645973265171;-0.0059689427725970745;0.004145210143178701
-0.1602325439453125;0.0090484619140625;-1.0009002685546875;-0.02912645973265171;-0.0059689427725970745;0.004145210143178701
-0.1624908447265625;0.0150299072265625;-1.00738525390625;-0.008872320875525475;-0.01290594507008791;0.006849383935332298
-0.1624908447265625;0.0150299072265625;-1.00738525390625;-0.008872320875525475;-0.01290594507008791;0.006849383935332298
-0.1624908447265625;0.0150299072265625;-1.00738525390625;-0.008872320875525475;-0.01290594507008791;0.006849383935332298
-0.1624908447265625;0.0150299072265625;-1.00738525390625;-0.008872320875525475;-0.01290594507008791;0.006849383935332298
-0.1624908447265625;0.0150299072265625;-1.00738525390625;-0.008872320875525475;-0.01290594507008791;0.006849383935332298
-0.16412353515625;0.01531982421875;-1.01397705078125;-0.011723235249519348;-0.011569038033485413;0.0037055222783237696
-0.16412353515625;0.01531982421875;-1.01397705078125;-0.011723235249519348;-0.011569038033485413;0.0037055222783237696
-0.16412353515625;0.01531982421875;-1.01397705078125;-0.011723235249519348;-0.011569038033485413;0.0037055222783237696
-0.16412353515625;0.01531982421875;-1.01397705078125;-0.011723235249519348;-0.011569038033485413;0.0037055222783237696
-0.16412353515625;0.01531982421875;-1.01397705078125;-0.011723235249519348;-0.011569038033485413;0.0037055222783237696
-0.166412353515625;0.0114288330078125;-1.00341796875;-0.024630244821310043;-0.0024852619972079992;0.005299957003444433
-0.166412353515625;0.0114288330078125;-1.00341796875;-0.024630244821310043;-0.0024852619972079992;0.005299957003444433
-0.166412353515625;0.0114288330078125;-1.00341796875;-0.024630244821310043;-0.0024852619972079992;0.005299957003444433
-0.166412353515625;0.0114288330078125;-1.00341796875;-0.024630244821310043;-0.0024852619972079992;0.005299957003444433
-0.166412353515625;0.0114288330078125;-1.00341796875;-0.024630244821310043;-0.0024852619972079992;0.005299957003444433
-0.1667633056640625;0.0097198486328125;-0.99713134765625;-0.022227540612220764;-0.01329796202480793;0.005008340813219547
-0.1667633056640625;0.0097198486328125;-0.99713134765625;-0.022227540612220764;-0.01329796202480793;0.005008340813219547
-0.1667633056640625;0.0097198486328125;-0.99713134765625;-0.022227540612220764;-0.01329796202480793;0.005008340813219547
-0.1667633056640625;0.0097198486328125;-0.99713134765625;-0.022227540612220764;-0.01329796202480793;0.005008340813219547
-0.1667633056640625;0.0097198486328125;-0.99713134765625;-0.022227540612220764;-0.01329796202480793;0.005008340813219547
-0.1644134521484375;0.01251220703125;-1.00250244140625;-0.009594570845365524;-0.023505326360464096;0.004582235123962164
-0.1644134521484375;0.01251220703125;-1.00250244140625;-0.009594570845365524;-0.023505326360464096;0.004582235123962164
-0.1644134521484375;0.01251220703125;-1.00250244140625;-0.009594570845365524;-0.023505326360464096;0.004582235123962164
-0.1644134521484375;0.01251220703125;-1.00250244140625;-0.009594570845365524;-0.023505326360464096;0.004582235123962164
-0.1644134521484375;0.01251220703125;-1.00250244140625;-0.009594570845365524;-0.023505326360464096;0.004582235123962164
-0.1633148193359375;0.0143585205078125;-1.006988525390625;0.002412823960185051;-0.028865735977888107;0.0037638454232364893
-0.1633148193359375;0.0143585205078125;-1.006988525390625;0.002412823960185051;-0.028865735977888107;0.0037638454232364893
-0.1633148193359375;0.0143585205078125;-1.006988525390625;0.002412823960185051;-0.028865735977888107;0.0037638454232364893
-0.1633148193359375;0.0143585205078125;-1.006988525390625;0.002412823960185051;-0.028865735977888107;0.0037638454232364893
-0.1633148193359375;0.0143585205078125;-1.006988525390625;0.002412823960185051;-0.028865735977888107;0.0037638454232364893
-0.165191650390625;0.0135955810546875;-1.0091552734375;0.008327438496053219;-0.029883863404393196;0.0028663603588938713
-0.165191650390625;0.0135955810546875;-1.0091552734375;0.008327438496053219;-0.029883863404393196;0.0028663603588938713
-0.165191650390625;0.0135955810546875;-1.0091552734375;0.008327438496053219;-0.029883863404393196;0.0028663603588938713
-0.165191650390625;0.0135955810546875;-1.0091552734375;0.008327438496053219;-0.029883863404393196;0.0028663603588938713
-0.165191650390625;0.0135955810546875;-1.0091552734375;0.008327438496053219;-0.029883863404393196;0.0028663603588938713
-0.1688232421875;0.0106201171875;-1.0081787109375;0.01107582077383995;-0.029626069590449333;0.003020024625584483
-0.1688232421875;0.0106201171875;-1.0081787109375;0.01107582077383995;-0.029626069590449333;0.003020024625584483
-0.1688232421875;0.0106201171875;-1.0081787109375;0.01107582077383995;-0.029626069590449333;0.003020024625584483
-0.1688232421875;0.0106201171875;-1.0081787109375;0.01107582077383995;-0.029626069590449333;0.003020024625584483
-0.1688232421875;0.0106201171875;-1.0081787109375;0.01107582077383995;-0.029626069590449333;0.003020024625584483
-0.169403076171875;0.0060272216796875;-1.009735107421875;0.013846839778125286;-0.021886922419071198;0.0041244374588131905
-0.169403076171875;0.0060272216796875;-1.009735107421875;0.013846839778125286;-0.021886922419071198;0.0041244374588131905
-0.169403076171875;0.0060272216796875;-1.009735107421875;0.013846839778125286;-0.021886922419071198;0.0041244374588131905
-0.169403076171875;0.0060272216796875;-1.009735107421875;0.013846839778125286;-0.021886922419071198;0.0041244374588131905
-0.169403076171875;0.0060272216796875;-1.009735107421875;0.013846839778125286;-0.021886922419071198;0.0041244374588131905
-0.1678009033203125;0.0031585693359375;-1.007354736328125;0.010176737792789936;-0.013674799352884293;0.002698581200093031
-0.1678009033203125;0.0031585693359375;-1.007354736328125;0.010176737792789936;-0.013674799352884293;0.002698581200093031
-0.1678009033203125;0.0031585693359375;-1.007354736328125;0.010176737792789936;-0.013674799352884293;0.002698581200093031
-0.1678009033203125;0.0031585693359375;-1.007354736328125;0.010176737792789936;-0.013674799352884293;0.002698581200093031
-0.1662445068359375;0.0045166015625;-1.001800537109375;0.010311493650078773;-0.0076299565844237804;0.0034610440488904715
-0.1662445068359375;0.0045166015625;-1.001800537109375;0.010311493650078773;-0.0076299565844237804;0.0034610440488904715
-0.1662445068359375;0.0045166015625;-1.001800537109375;0.010311493650078773;-0.0076299565844237804;0.0034610440488904715
-0.1662445068359375;0.0045166015625;-1.001800537109375;0.010311493650078773;-0.0076299565844237804;0.0034610440488904715
-0.1662445068359375;0.0045166015625;-1.001800537109375;0.010311493650078773;-0.0076299565844237804;0.0034610440488904715
-0.16448974609375;0.00775146484375;-1.0020904541015625;0.023503461852669716;-0.007570568006485701;0.006301305256783962
-0.16448974609375;0.00775146484375;-1.0020904541015625;0.023503461852669716;-0.007570568006485701;0.006301305256783962
-0.16448974609375;0.00775146484375;-1.0020904541015625;0.023503461852669716;-0.007570568006485701;0.006301305256783962
-0.16448974609375;0.00775146484375;-1.0020904541015625;0.023503461852669716;-0.007570568006485701;0.006301305256783962
-0.16448974609375;0.00775146484375;-1.0020904541015625;0.023503461852669716;-0.007570568006485701;0.006301305256783962
-0.1636505126953125;0.0099945068359375;-1.0088043212890625;0.022473882883787155;-0.001329982653260231;0.005527124274522066
-0.1636505126953125;0.0099945068359375;-1.0088043212890625;0.022473882883787155;-0.001329982653260231;0.005527124274522066
-0.1636505126953125;0.0099945068359375;-1.0088043212890625;0.022473882883787155;-0.001329982653260231;0.005527124274522066
-0.1636505126953125;0.0099945068359375;-1.0088043212890625;0.022473882883787155;-0.001329982653260231;0.005527124274522066
-0.1636505126953125;0.0099945068359375;-1.0088043212890625;0.022473882883787155;-0.001329982653260231;0.005527124274522066
-0.1647186279296875;0.01202392578125;-1.00360107421875;0.021975606679916382;0.006667756475508213;0.0029880667570978403
-0.1647186279296875;0.01202392578125;-1.00360107421875;0.021975606679916382;0.006667756475508213;0.0029880667570978403
-0.1647186279296875;0.01202392578125;-1.00360107421875;0.021975606679916382;0.006667756475508213;0.0029880667570978403
-0.1647186279296875;0.01202392578125;-1.00360107421875;0.021975606679916382;0.006667756475508213;0.0029880667570978403
-0.1647186279296875;0.01202392578125;-1.00360107421875;0.021975606679916382;0.006667756475508213;0.0029880667570978403
-0.16717529296875;0.01202392578125;-0.9954071044921875;0.02750113233923912;0.005228584166616201;0.0007821703911758959
-0.16717529296875;0.01202392578125;-0.9954071044921875;0.02750113233923912;0.005228584166616201;0.0007821703911758959
-0.16717529296875;0.01202392578125;-0.9954071044921875;0.02750113233923912;0.005228584166616201;0.0007821703911758959
-0.16717529296875;0.01202392578125;-0.9954071044921875;0.02750113233923912;0.005228584166616201;0.0007821703911758959
-0.16717529296875;0.01202392578125;-0.9954071044921875;0.02750113233923912;0.005228584166616201;0.0007821703911758959
-0.1663665771484375;0.0113525390625;-0.9975738525390625;0.030171217396855354;0.005576925817877054;0.00025513084256090224
-0.1663665771484375;0.0113525390625;-0.9975738525390625;0.030171217396855354;0.005576925817877054;0.00025513084256090224
-0.1663665771484375;0.0113525390625;-0.9975738525390625;0.030171217396855354;0.005576925817877054;0.00025513084256090224
-0.1663665771484375;0.0113525390625;-0.9975738525390625;0.030171217396855354;0.005576925817877054;0.00025513084256090224
-0.1663665771484375;0.0113525390625;-0.9975738525390625;0.030171217396855354;0.005576925817877054;0.00025513084256090224
-0.163330078125;0.01043701171875;-1.002197265625;0.031137412413954735;-0.003111371072009206;-0.0026413232553750277
-0.163330078125;0.01043701171875;-1.002197265625;0.031137412413954735;-0.003111371072009206;-0.0026413232553750277
-0.163330078125;0.01043701171875;-1.002197265625;0.031137412413954735;-0.003111371072009206;-0.0026413232553750277
-0.163330078125;0.01043701171875;-1.002197265625;0.031137412413954735;-0.003111371072009206;-0.0026413232553750277
-0.163330078125;0.01043701171875;-1.002197265625;0.031137412413954735;-0.003111371072009206;-0.0026413232553750277
-0.1603546142578125;0.0081024169921875;-0.9988250732421875;0.02135801874101162;-0.007533550262451172;-0.00039015308720991015
-0.1603546142578125;0.0081024169921875;-0.9988250732421875;0.02135801874101162;-0.007533550262451172;-0.00039015308720991015
-0.1603546142578125;0.0081024169921875;-0.9988250732421875;0.02135801874101162;-0.007533550262451172;-0.00039015308720991015
-0.1603546142578125;0.0081024169921875;-0.9988250732421875;0.02135801874101162;-0.007533550262451172;-0.00039015308720991015
-0.1603546142578125;0.0081024169921875;-0.9988250732421875;0.02135801874101162;-0.007533550262451172;-0.00039015308720991015
-0.1589813232421875;0.006439208984375;-0.9958343505859375;0.016750751063227654;-0.005736981518566608;-0.0022543659433722496
-0.1589813232421875;0.006439208984375;-0.9958343505859375;0.016750751063227654;-0.005736981518566608;-0.0022543659433722496
-0.1589813232421875;0.006439208984375;-0.9958343505859375;0.016750751063227654;-0.005736981518566608;-0.0022543659433722496
-0.1589813232421875;0.006439208984375;-0.9958343505859375;0.016750751063227654;-0.005736981518566608;-0.0022543659433722496
-0.1589813232421875;0.006439208984375;-0.9958343505859375;0.016750751063227654;-0.005736981518566608;-0.0022543659433722496
-0.1596832275390625;0.0060882568359375;-0.997802734375;0.017079384997487068;-0.005705023650079966;-0.0021515677217394114
-0.1596832275390625;0.0060882568359375;-0.997802734375;0.017079384997487068;-0.005705023650079966;-0.0021515677217394114
-0.1596832275390625;0.0060882568359375;-0.997802734375;0.017079384997487068;-0.005705023650079966;-0.0021515677217394114
-0.1596832275390625;0.0060882568359375;-0.997802734375;0.017079384997487068;-0.005705023650079966;-0.0021515677217394114
-0.1596832275390625;0.0060882568359375;-0.997802734375;0.017079384997487068;-0.005705023650079966;-0.0021515677217394114
-0.1597442626953125;0.007354736328125;-0.999053955078125;0.021520204842090607;-0.002841326640918851;-0.002552639925852418
-0.1597442626953125;0.007354736328125;-0.999053955078125;0.021520204842090607;-0.002841326640918851;-0.002552639925852418
-0.1597442626953125;0.007354736328125;-0.999053955078125;0.021520204842090607;-0.002841326640918851;-0.002552639925852418
-0.1597442626953125;0.007354736328125;-0.999053955078125;0.021520204842090607;-0.002841326640918851;-0.002552639925852418
-0.1597442626953125;0.007354736328125;-0.999053955078125;0.021520204842090607;-0.002841326640918851;-0.002552639925852418
-0.161712646484375;0.007659912109375;-0.998626708984375;0.019765449687838554;-0.0006578007596544921;0.0044381581246852875
-0.161712646484375;0.007659912109375;-0.998626708984375;0.019765449687838554;-0.0006578007596544921;0.0044381581246852875
-0.161712646484375;0.007659912109375;-0.998626708984375;0.019765449687838554;-0.0006578007596544921;0.0044381581246852875
-0.161712646484375;0.007659912109375;-0.998626708984375;0.019765449687838554;-0.0006578007596544921;0.0044381581246852875
-0.161712646484375;0.007659912109375;-0.998626708984375;0.021383851766586304;-0.001044758129864931;0.006450974848121405
-0.1643524169921875;0.0086669921875;-0.9989166259765625;0.021383851766586304;-0.001044758129864931;0.006450974848121405
-0.1643524169921875;0.0086669921875;-0.9989166259765625;0.021383851766586304;-0.001044758129864931;0.006450974848121405
-0.1643524169921875;0.0086669921875;-0.9989166259765625;0.021383851766586304;-0.001044758129864931;0.006450974848121405
-0.1643524169921875;0.0086669921875;-0.9989166259765625;0.021383851766586304;-0.001044758129864931;0.006450974848121405
-0.1643524169921875;0.0086669921875;-0.9989166259765625;0.021383851766586304;-0.001044758129864931;0.006450974848121405
-0.1660919189453125;0.010589599609375;-1.001220703125;0.025302426889538765;0.0008335694437846541;0.006193980108946562
-0.1660919189453125;0.010589599609375;-1.001220703125;0.025302426889538765;0.0008335694437846541;0.006193980108946562
-0.1660919189453125;0.010589599609375;-1.001220703125;0.025302426889538765;0.0008335694437846541;0.006193980108946562
-0.1660919189453125;0.010589599609375;-1.001220703125;0.025302426889538765;0.0008335694437846541;0.006193980108946562
-0.1660919189453125;0.010589599609375;-1.001220703125;0.02624225616455078;0.009114402346313;0.007998271845281124
-0.168548583984375;0.010498046875;-1.0026092529296875;0.02624225616455078;0.009114402346313;0.007998271845281124
-0.168548583984375;0.010498046875;-1.0026092529296875;0.02624225616455078;0.009114402346313;0.007998271845281124
-0.168548583984375;0.010498046875;-1.0026092529296875;0.02624225616455078;0.009114402346313;0.007998271845281124
-0.168548583984375;0.010498046875;-1.0026092529296875;0.02624225616455078;0.009114402346313;0.007998271845281124
-0.168548583984375;0.010498046875;-1.0026092529296875;0.022905582562088966;0.008673915639519691;0.006470416206866503
-0.1693878173828125;0.00982666015625;-1.0037841796875;0.022905582562088966;0.008673915639519691;0.006470416206866503
-0.1693878173828125;0.00982666015625;-1.0037841796875;0.022905582562088966;0.008673915639519691;0.006470416206866503
-0.1693878173828125;0.00982666015625;-1.0037841796875;0.022905582562088966;0.008673915639519691;0.006470416206866503
-0.1693878173828125;0.00982666015625;-1.0037841796875;0.022905582562088966;0.008673915639519691;0.006470416206866503
-0.168670654296875;0.0077362060546875;-1.003692626953125;0.02159344218671322;0.006533266510814428;0.0060110208578407764
-0.168670654296875;0.0077362060546875;-1.003692626953125;0.02159344218671322;0.006533266510814428;0.0060110208578407764
-0.168670654296875;0.0077362060546875;-1.003692626953125;0.02159344218671322;0.006533266510814428;0.0060110208578407764
-0.168670654296875;0.0077362060546875;-1.003692626953125;0.02159344218671322;0.006533266510814428;0.0060110208578407764
-0.168670654296875;0.0077362060546875;-1.003692626953125;0.02159344218671322;0.006533266510814428;0.0060110208578407764
-0.1668548583984375;0.006378173828125;-1.00604248046875;0.015394669026136398;0.004026699345558882;0.006589991971850395
-0.1668548583984375;0.006378173828125;-1.00604248046875;0.015394669026136398;0.004026699345558882;0.006589991971850395
-0.1668548583984375;0.006378173828125;-1.00604248046875;0.015394669026136398;0.004026699345558882;0.006589991971850395
-0.1668548583984375;0.006378173828125;-1.00604248046875;0.015394669026136398;0.004026699345558882;0.006589991971850395
-0.1668548583984375;0.006378173828125;-1.00604248046875;0.015394669026136398;0.004026699345558882;0.006589991971850395
-0.1668548583984375;0.006378173828125;-1.00604248046875;0.015394669026136398;0.004026699345558882;0.006589991971850395
-0.16729736328125;0.0045928955078125;-1.0036773681640625;0.011818842962384224;0.004834169987589121;0.003531351685523987
-0.16729736328125;0.0045928955078125;-1.0036773681640625;0.011818842962384224;0.004834169987589121;0.003531351685523987
-0.16729736328125;0.0045928955078125;-1.0036773681640625;0.011818842962384224;0.004834169987589121;0.003531351685523987
-0.16729736328125;0.0045928955078125;-1.0036773681640625;0.011818842962384224;0.004834169987589121;0.003531351685523987
-0.1668243408203125;0.0045623779296875;-0.9997406005859375;0.004304733593016863;0.0026671558152884245;-0.0006325007416307926
-0.1668243408203125;0.0045623779296875;-0.9997406005859375;0.004304733593016863;0.0026671558152884245;-0.0006325007416307926
-0.1668243408203125;0.0045623779296875;-0.9997406005859375;0.004304733593016863;0.0026671558152884245;-0.0006325007416307926
-0.1668243408203125;0.0045623779296875;-0.9997406005859375;0.004304733593016863;0.0026671558152884245;-0.0006325007416307926
-0.1668243408203125;0.0045623779296875;-0.9997406005859375;0.004304733593016863;0.0026671558152884245;-0.0006325007416307926
-0.166259765625;0.0040435791015625;-1.001251220703125;0.009497364982962608;0.006642456166446209;-0.001401089015416801
-0.166259765625;0.0040435791015625;-1.001251220703125;0.009497364982962608;0.006642456166446209;-0.001401089015416801
-0.166259765625;0.0040435791015625;-1.001251220703125;0.009497364982962608;0.006642456166446209;-0.001401089015416801
-0.166259765625;0.0040435791015625;-1.001251220703125;0.009497364982962608;0.006642456166446209;-0.001401089015416801
-0.166259765625;0.0040435791015625;-1.001251220703125;0.009497364982962608;0.006642456166446209;-0.001401089015416801
-0.16375732421875;0.002960205078125;-1.0028533935546875;0.011624698527157307;0.0006498112925328314;-0.0007382282637991011
-0.16375732421875;0.002960205078125;-1.0028533935546875;0.011624698527157307;0.0006498112925328314;-0.0007382282637991011
-0.16375732421875;0.002960205078125;-1.0028533935546875;0.011624698527157307;0.0006498112925328314;-0.0007382282637991011
-0.16375732421875;0.002960205078125;-1.0028533935546875;0.011624698527157307;0.0006498112925328314;-0.0007382282637991011
-0.16375732421875;0.002960205078125;-1.0028533935546875;0.011624698527157307;0.0006498112925328314;-0.0007382282637991011
-0.162322998046875;0.0048675537109375;-1.0035247802734375;0.012047342024743557;0.003251719754189253;0.00041625206358730793
-0.162322998046875;0.0048675537109375;-1.0035247802734375;0.012047342024743557;0.003251719754189253;0.00041625206358730793
-0.162322998046875;0.0048675537109375;-1.0035247802734375;0.012047342024743557;0.003251719754189253;0.00041625206358730793
-0.162322998046875;0.0048675537109375;-1.0035247802734375;0.012047342024743557;0.003251719754189253;0.00041625206358730793
-0.162322998046875;0.0048675537109375;-1.0035247802734375;0.012047342024743557;0.003251719754189253;0.00041625206358730793
-0.162628173828125;0.004913330078125;-1.00323486328125;0.01501117367297411;0.0041734399273991585;-0.0010402307379990816
-0.162628173828125;0.004913330078125;-1.00323486328125;0.01501117367297411;0.0041734399273991585;-0.0010402307379990816
-0.162628173828125;0.004913330078125;-1.00323486328125;0.01501117367297411;0.0041734399273991585;-0.0010402307379990816
-0.162628173828125;0.004913330078125;-1.00323486328125;0.01501117367297411;0.0041734399273991585;-0.0010402307379990816
-0.162628173828125;0.004913330078125;-1.00323486328125;0.01501117367297411;0.0041734399273991585;-0.0010402307379990816
-0.1630859375;0.004913330078125;-1.0049285888671875;0.01720188930630684;0.0012868394842371345;-0.0008522115531377494
-0.1630859375;0.004913330078125;-1.0049285888671875;0.01720188930630684;0.0012868394842371345;-0.0008522115531377494
-0.1630859375;0.004913330078125;-1.0049285888671875;0.01720188930630684;0.0012868394842371345;-0.0008522115531377494
-0.1630859375;0.004913330078125;-1.0049285888671875;0.01720188930630684;0.0012868394842371345;-0.0008522115531377494
-0.1630859375;0.004913330078125;-1.0049285888671875;0.01720188930630684;0.0012868394842371345;-0.0008522115531377494
-0.1631317138671875;0.00567626953125;-1.0069732666015625;0.024102939292788506;0.004677309654653072;0.003932157531380653
-0.1631317138671875;0.00567626953125;-1.0069732666015625;0.024102939292788506;0.004677309654653072;0.003932157531380653
-0.1631317138671875;0.00567626953125;-1.0069732666015625;0.024102939292788506;0.004677309654653072;0.003932157531380653
-0.1631317138671875;0.00567626953125;-1.0069732666015625;0.024102939292788506;0.004677309654653072;0.003932157531380653
-0.1631317138671875;0.00567626953125;-1.0069732666015625;0.024102939292788506;0.004677309654653072;0.003932157531380653
-0.1629791259765625;0.0052642822265625;-1.00653076171875;0.02654212899506092;0.004780374001711607;0.004712729714810848
-0.1629791259765625;0.0052642822265625;-1.00653076171875;0.02654212899506092;0.004780374001711607;0.004712729714810848
-0.1629791259765625;0.0052642822265625;-1.00653076171875;0.02654212899506092;0.004780374001711607;0.004712729714810848
-0.1629791259765625;0.0052642822265625;-1.00653076171875;0.02654212899506092;0.004780374001711607;0.004712729714810848
-0.1629791259765625;0.0052642822265625;-1.00653076171875;0.02654212899506092;0.004780374001711607;0.004712729714810848
-0.1634979248046875;0.0045013427734375;-1.0037994384765625;0.02665025368332863;0.0033214944414794445;0.0038224351592361927
-0.1634979248046875;0.0045013427734375;-1.0037994384765625;0.02665025368332863;0.0033214944414794445;0.0038224351592361927
-0.1634979248046875;0.0045013427734375;-1.0037994384765625;0.02665025368332863;0.0033214944414794445;0.0038224351592361927
-0.1634979248046875;0.0045013427734375;-1.0037994384765625;0.02665025368332863;0.0033214944414794445;0.0038224351592361927
-0.1634979248046875;0.0045013427734375;-1.0037994384765625;0.02665025368332863;0.0033214944414794445;0.0038224351592361927
-0.1641998291015625;0.0038299560546875;-1.0032501220703125;0.0239572636783123;0.00743155088275671;0.004039749037474394
-0.1641998291015625;0.0038299560546875;-1.0032501220703125;0.0239572636783123;0.00743155088275671;0.004039749037474394
-0.1641998291015625;0.0038299560546875;-1.0032501220703125;0.0239572636783123;0.00743155088275671;0.004039749037474394
-0.1641998291015625;0.0038299560546875;-1.0032501220703125;0.0239572636783123;0.00743155088275671;0.004039749037474394
-0.1641998291015625;0.0038299560546875;-1.0032501220703125;0.0239572636783123;0.00743155088275671;0.004039749037474394
-0.1634674072265625;0.0041961669921875;-1.002655029296875;0.02003629319369793;0.012327506206929684;0.002808569697663188
-0.1634674072265625;0.0041961669921875;-1.002655029296875;0.02003629319369793;0.012327506206929684;0.002808569697663188
-0.1634674072265625;0.0041961669921875;-1.002655029296875;0.02003629319369793;0.012327506206929684;0.002808569697663188
-0.1634674072265625;0.0041961669921875;-1.002655029296875;0.02003629319369793;0.012327506206929684;0.002808569697663188
-0.1634674072265625;0.0041961669921875;-1.002655029296875;0.02003629319369793;0.012327506206929684;0.002808569697663188
-0.1622161865234375;0.0043487548828125;-1.0026092529296875;0.02016492374241352;0.011631621979176998;-0.0011677960865199566
-0.1622161865234375;0.0043487548828125;-1.0026092529296875;0.02016492374241352;0.011631621979176998;-0.0011677960865199566
-0.1622161865234375;0.0043487548828125;-1.0026092529296875;0.02016492374241352;0.011631621979176998;-0.0011677960865199566
-0.1622161865234375;0.0043487548828125;-1.0026092529296875;0.02016492374241352;0.011631621979176998;-0.0011677960865199566
-0.1622161865234375;0.0043487548828125;-1.0026092529296875;0.02016492374241352;0.011631621979176998;-0.0011677960865199566
-0.16033935546875;0.00335693359375;-1.0031585693359375;0.019766246899962425;0.00890667550265789;0.00022157499915920198
-0.16033935546875;0.00335693359375;-1.0031585693359375;0.019766246899962425;0.00890667550265789;0.00022157499915920198
-0.16033935546875;0.00335693359375;-1.0031585693359375;0.019766246899962425;0.00890667550265789;0.00022157499915920198
-0.16033935546875;0.00335693359375;-1.0031585693359375;0.019766246899962425;0.00890667550265789;0.00022157499915920198
-0.16033935546875;0.00335693359375;-1.0031585693359375;0.019766246899962425;0.00890667550265789;0.00022157499915920198
-0.1605682373046875;0.0020751953125;-1.005096435546875;0.02167067490518093;0.0026525084394961596;-7.56337758502923e-05
-0.1605682373046875;0.0020751953125;-1.005096435546875;0.02167067490518093;0.0026525084394961596;-7.56337758502923e-05
-0.1605682373046875;0.0020751953125;-1.005096435546875;0.02167067490518093;0.0026525084394961596;-7.56337758502923e-05
-0.1605682373046875;0.0020751953125;-1.005096435546875;0.02167067490518093;0.0026525084394961596;-7.56337758502923e-05
-0.1605682373046875;0.0020751953125;-1.005096435546875;0.02167067490518093;0.0026525084394961596;-7.56337758502923e-05
-0.1615142822265625;0.001312255859375;-1.00445556640625;0.017529193311929703;0.0015643407823517919;4.820321555598639e-05
-0.1615142822265625;0.001312255859375;-1.00445556640625;0.017529193311929703;0.0015643407823517919;4.820321555598639e-05
-0.1615142822265625;0.001312255859375;-1.00445556640625;0.017529193311929703;0.0015643407823517919;4.820321555598639e-05
-0.1615142822265625;0.001312255859375;-1.00445556640625;0.017529193311929703;0.0015643407823517919;4.820321555598639e-05
-0.1615142822265625;0.001312255859375;-1.00445556640625;0.017529193311929703;0.0015643407823517919;4.820321555598639e-05
-0.1629180908203125;0.0007476806640625;-1.004852294921875;0.01654062792658806;0.003329484025016427;0.0038597192615270615
-0.1629180908203125;0.0007476806640625;-1.004852294921875;0.01654062792658806;0.003329484025016427;0.0038597192615270615
-0.1629180908203125;0.0007476806640625;-1.004852294921875;0.01654062792658806;0.003329484025016427;0.0038597192615270615
-0.1629180908203125;0.0007476806640625;-1.004852294921875;0.01654062792658806;0.003329484025016427;0.0038597192615270615
-0.1629180908203125;0.0007476806640625;-1.004852294921875;0.01654062792658806;0.003329484025016427;0.0038597192615270615
-0.16485595703125;0.0011138916015625;-1.005157470703125;0.02064322680234909;0.006767891347408295;0.0011286477092653513
-0.16485595703125;0.0011138916015625;-1.005157470703125;0.02064322680234909;0.006767891347408295;0.0011286477092653513
-0.16485595703125;0.0011138916015625;-1.005157470703125;0.02064322680234909;0.006767891347408295;0.0011286477092653513
-0.16485595703125;0.0011138916015625;-1.005157470703125;0.02064322680234909;0.006767891347408295;0.0011286477092653513
-0.16485595703125;0.0011138916015625;-1.005157470703125;0.02064322680234909;0.006767891347408295;0.0011286477092653513
-0.164794921875;0.0025634765625;-1.0027923583984375;0.024265658110380173;0.007392402272671461;0.004113518632948399
-0.164794921875;0.0025634765625;-1.0027923583984375;0.024265658110380173;0.007392402272671461;0.004113518632948399
-0.164794921875;0.0025634765625;-1.0027923583984375;0.024265658110380173;0.007392402272671461;0.004113518632948399
-0.164794921875;0.0025634765625;-1.0027923583984375;0.024265658110380173;0.007392402272671461;0.004113518632948399
-0.164794921875;0.0025634765625;-1.0027923583984375;0.024265658110380173;0.007392402272671461;0.004113518632948399
-0.163787841796875;0.003753662109375;-1.0037384033203125;0.036433108150959015;0.025775671005249023;0.001936384360305965
-0.163787841796875;0.003753662109375;-1.0037384033203125;0.036433108150959015;0.025775671005249023;0.001936384360305965
-0.163787841796875;0.003753662109375;-1.0037384033203125;0.036433108150959015;0.025775671005249023;0.001936384360305965
-0.163787841796875;0.003753662109375;-1.0037384033203125;0.036433108150959015;0.025775671005249023;0.001936384360305965
-0.163787841796875;0.003753662109375;-1.0037384033203125;0.036433108150959015;0.025775671005249023;0.001936384360305965
-0.1642608642578125;0.004547119140625;-0.9964447021484375;0.052442967891693115;0.043288618326187134;-0.002313754288479686
-0.1642608642578125;0.004547119140625;-0.9964447021484375;0.052442967891693115;0.043288618326187134;-0.002313754288479686
-0.1642608642578125;0.004547119140625;-0.9964447021484375;0.052442967891693115;0.043288618326187134;-0.002313754288479686
-0.1642608642578125;0.004547119140625;-0.9964447021484375;0.052442967891693115;0.043288618326187134;-0.002313754288479686
-0.1642608642578125;0.004547119140625;-0.9964447021484375;0.052442967891693115;0.043288618326187134;-0.002313754288479686
-0.164520263671875;0.0070953369140625;-0.9970550537109375;0.058635883033275604;0.010113620199263096;-0.0035723643377423286
-0.164520263671875;0.0070953369140625;-0.9970550537109375;0.058635883033275604;0.010113620199263096;-0.0035723643377423286
-0.164520263671875;0.0070953369140625;-0.9970550537109375;0.058635883033275604;0.010113620199263096;-0.0035723643377423286
-0.164520263671875;0.0070953369140625;-0.9970550537109375;0.058635883033275604;0.010113620199263096;-0.0035723643377423286
-0.164520263671875;0.0070953369140625;-0.9970550537109375;0.058635883033275604;0.010113620199263096;-0.0035723643377423286
-0.1637725830078125;0.0062713623046875;-1.0102691650390625;0.034514300525188446;-0.013497432693839073;0.0002849582233466208
-0.1637725830078125;0.0062713623046875;-1.0102691650390625;0.034514300525188446;-0.013497432693839073;0.0002849582233466208
-0.1637725830078125;0.0062713623046875;-1.0102691650390625;0.034514300525188446;-0.013497432693839073;0.0002849582233466208
-0.1637725830078125;0.0062713623046875;-1.0102691650390625;0.034514300525188446;-0.013497432693839073;0.0002849582233466208
-0.1637725830078125;0.0062713623046875;-1.0102691650390625;0.034514300525188446;-0.013497432693839073;0.0002849582233466208
-0.1634979248046875;0.0010986328125;-1.008331298828125;0.0062797339633107185;-0.026636937633156776;0.006734868045896292
-0.1634979248046875;0.0010986328125;-1.008331298828125;0.0062797339633107185;-0.026636937633156776;0.006734868045896292
-0.1634979248046875;0.0010986328125;-1.008331298828125;0.0062797339633107185;-0.026636937633156776;0.006734868045896292
-0.1634979248046875;0.0010986328125;-1.008331298828125;0.0062797339633107185;-0.026636937633156776;0.006734868045896292
-0.1634979248046875;0.0010986328125;-1.008331298828125;0.0062797339633107185;-0.026636937633156776;0.006734868045896292
-0.1637725830078125;-0.002105712890625;-0.9962005615234375;0.00043063313933089375;-0.025186846032738686;0.005132444202899933
-0.1637725830078125;-0.002105712890625;-0.9962005615234375;0.00043063313933089375;-0.025186846032738686;0.005132444202899933
-0.1637725830078125;-0.002105712890625;-0.9962005615234375;0.00043063313933089375;-0.025186846032738686;0.005132444202899933
-0.1637725830078125;-0.002105712890625;-0.9962005615234375;0.00043063313933089375;-0.025186846032738686;0.005132444202899933
-0.1637725830078125;-0.002105712890625;-0.9962005615234375;0.00043063313933089375;-0.025186846032738686;0.005132444202899933
-0.1635894775390625;-0.001251220703125;-0.9968109130859375;0.014855644665658474;-0.007247526664286852;0.004731105640530586
-0.1635894775390625;-0.001251220703125;-0.9968109130859375;0.014855644665658474;-0.007247526664286852;0.004731105640530586
-0.1635894775390625;-0.001251220703125;-0.9968109130859375;0.014855644665658474;-0.007247526664286852;0.004731105640530586
-0.1635894775390625;-0.001251220703125;-0.9968109130859375;0.014855644665658474;-0.007247526664286852;0.004731105640530586
-0.1635894775390625;-0.001251220703125;-0.9968109130859375;0.014855644665658474;-0.007247526664286852;0.004731105640530586
-0.1618194580078125;0.00213623046875;-0.9967041015625;0.036255743354558945;-0.008137022145092487;0.0012604740913957357
-0.1618194580078125;0.00213623046875;-0.9967041015625;0.036255743354558945;-0.008137022145092487;0.0012604740913957357
-0.1618194580078125;0.00213623046875;-0.9967041015625;0.036255743354558945;-0.008137022145092487;0.0012604740913957357
-0.1618194580078125;0.00213623046875;-0.9967041015625;0.036255743354558945;-0.008137022145092487;0.0012604740913957357
-0.1618194580078125;0.00213623046875;-0.9967041015625;0.036255743354558945;-0.008137022145092487;0.0012604740913957357
-0.16094970703125;0.0036163330078125;-1.00677490234375;0.05205148458480835;-0.008070975542068481;0.0026088326703757048
-0.16094970703125;0.0036163330078125;-1.00677490234375;0.05205148458480835;-0.008070975542068481;0.0026088326703757048
-0.16094970703125;0.0036163330078125;-1.00677490234375;0.05205148458480835;-0.008070975542068481;0.0026088326703757048
-0.16094970703125;0.0036163330078125;-1.00677490234375;0.05205148458480835;-0.008070975542068481;0.0026088326703757048
-0.16094970703125;0.0036163330078125;-1.00677490234375;0.05205148458480835;-0.008070975542068481;0.0026088326703757048
-0.1634674072265625;0.0030059814453125;-0.9968414306640625;0.048656485974788666;0.003084473079070449;0.0013901700731366873
-0.1634674072265625;0.0030059814453125;-0.9968414306640625;0.048656485974788666;0.003084473079070449;0.0013901700731366873
-0.1634674072265625;0.0030059814453125;-0.9968414306640625;0.048656485974788666;0.003084473079070449;0.0013901700731366873
-0.1634674072265625;0.0030059814453125;-0.9968414306640625;0.048656485974788666;0.003084473079070449;0.0013901700731366873
-0.1634674072265625;0.0030059814453125;-0.9968414306640625;0.048656485974788666;0.003084473079070449;0.0013901700731366873
-0.1645660400390625;-7.62939453125e-05;-1.0008544921875;0.03376249223947525;-0.0013571468880400062;-9.00148443179205e-05
-0.1645660400390625;-7.62939453125e-05;-1.0008544921875;0.03376249223947525;-0.0013571468880400062;-9.00148443179205e-05
-0.1645660400390625;-7.62939453125e-05;-1.0008544921875;0.03376249223947525;-0.0013571468880400062;-9.00148443179205e-05
-0.1645660400390625;-7.62939453125e-05;-1.0008544921875;0.03376249223947525;-0.0013571468880400062;-9.00148443179205e-05
-0.1645660400390625;-7.62939453125e-05;-1.0008544921875;0.03376249223947525;-0.0013571468880400062;-9.00148443179205e-05
-0.1631317138671875;-0.0041961669921875;-1.00537109375;0.021042700856924057;-0.005687180440872908;0.0019686087034642696
-0.1631317138671875;-0.0041961669921875;-1.00537109375;0.021042700856924057;-0.005687180440872908;0.0019686087034642696
-0.1631317138671875;-0.0041961669921875;-1.00537109375;0.021042700856924057;-0.005687180440872908;0.0019686087034642696
-0.1631317138671875;-0.0041961669921875;-1.00537109375;0.021042700856924057;-0.005687180440872908;0.0019686087034642696
-0.1631317138671875;-0.0041961669921875;-1.00537109375;0.021042700856924057;-0.005687180440872908;0.0019686087034642696
-0.160369873046875;-0.0079498291015625;-1.0082550048828125;0.013502226211130619;-0.0018269284628331661;0.001639441936276853
-0.160369873046875;-0.0079498291015625;-1.0082550048828125;0.013502226211130619;-0.0018269284628331661;0.001639441936276853
-0.160369873046875;-0.0079498291015625;-1.0082550048828125;0.013502226211130619;-0.0018269284628331661;0.001639441936276853
-0.160369873046875;-0.0079498291015625;-1.0082550048828125;0.013502226211130619;-0.0018269284628331661;0.001639441936276853
-0.160369873046875;-0.0079498291015625;-1.0082550048828125;0.013502226211130619;-0.0018269284628331661;0.001639441936276853
-0.1613006591796875;-0.0087738037109375;-1.004730224609375;0.012970659881830215;-0.003403253620490432;0.00133877107873559
-0.1613006591796875;-0.0087738037109375;-1.004730224609375;0.012970659881830215;-0.003403253620490432;0.00133877107873559
-0.1613006591796875;-0.0087738037109375;-1.004730224609375;0.012970659881830215;-0.003403253620490432;0.00133877107873559
-0.1613006591796875;-0.0087738037109375;-1.004730224609375;0.012970659881830215;-0.003403253620490432;0.00133877107873559
-0.1613006591796875;-0.0087738037109375;-1.004730224609375;0.010037720203399658;-0.005404619034379721;0.0017728663515299559
-0.1625518798828125;-0.0070648193359375;-1.0021514892578125;0.010037720203399658;-0.005404619034379721;0.0017728663515299559
-0.1625518798828125;-0.0070648193359375;-1.0021514892578125;0.010037720203399658;-0.005404619034379721;0.0017728663515299559
-0.1625518798828125;-0.0070648193359375;-1.0021514892578125;0.010037720203399658;-0.005404619034379721;0.0017728663515299559
-0.1625518798828125;-0.0070648193359375;-1.0021514892578125;0.010037720203399658;-0.005404619034379721;0.0017728663515299559
-0.1625518798828125;-0.0070648193359375;-1.0021514892578125;0.012828979641199112;-0.0011550129856914282;0.0031441280152648687
-0.1647491455078125;-0.004730224609375;-1.0041961669921875;0.012828979641199112;-0.0011550129856914282;0.0031441280152648687
-0.1647491455078125;-0.004730224609375;-1.0041961669921875;0.012828979641199112;-0.0011550129856914282;0.0031441280152648687
-0.1647491455078125;-0.004730224609375;-1.0041961669921875;0.012828979641199112;-0.0011550129856914282;0.0031441280152648687
-0.1647491455078125;-0.004730224609375;-1.0041961669921875;0.012828979641199112;-0.0011550129856914282;0.0031441280152648687
-0.1647491455078125;-0.004730224609375;-1.0041961669921875;0.012828979641199112;-0.0011550129856914282;0.0031441280152648687
-0.1651458740234375;-0.00299072265625;-1.0048065185546875;0.01600266806781292;0.0019086875254288316;0.004174771253019571
-0.1651458740234375;-0.00299072265625;-1.0048065185546875;0.01600266806781292;0.0019086875254288316;0.004174771253019571
-0.1651458740234375;-0.00299072265625;-1.0048065185546875;0.01600266806781292;0.0019086875254288316;0.004174771253019571
-0.1651458740234375;-0.00299072265625;-1.0048065185546875;0.01600266806781292;0.0019086875254288316;0.004174771253019571
-0.1651458740234375;-0.00299072265625;-1.0048065185546875;0.018387796357274055;0.0033598439767956734;0.003906058380380273
-0.164337158203125;-0.00048828125;-1.0051422119140625;0.018387796357274055;0.0033598439767956734;0.003906058380380273
-0.164337158203125;-0.00048828125;-1.0051422119140625;0.018387796357274055;0.0033598439767956734;0.003906058380380273
-0.164337158203125;-0.00048828125;-1.0051422119140625;0.018387796357274055;0.0033598439767956734;0.003906058380380273
-0.164337158203125;-0.00048828125;-1.0051422119140625;0.018387796357274055;0.0033598439767956734;0.003906058380380273
-0.164337158203125;-0.00048828125;-1.0051422119140625;0.021338045597076416;0.0009478190331719816;0.006208361126482487
-0.1630859375;0.00054931640625;-1.0044097900390625;0.021338045597076416;0.0009478190331719816;0.006208361126482487
-0.1630859375;0.00054931640625;-1.0044097900390625;0.021338045597076416;0.0009478190331719816;0.006208361126482487
-0.1630859375;0.00054931640625;-1.0044097900390625;0.021338045597076416;0.0009478190331719816;0.006208361126482487
-0.1630859375;0.00054931640625;-1.0044097900390625;0.021338045597076416;0.0009478190331719816;0.006208361126482487
-0.161956787109375;0.001708984375;-1.004730224609375;0.026734407991170883;0.0008849684381857514;0.004562527406960726
-0.161956787109375;0.001708984375;-1.004730224609375;0.026734407991170883;0.0008849684381857514;0.004562527406960726
-0.161956787109375;0.001708984375;-1.004730224609375;0.026734407991170883;0.0008849684381857514;0.004562527406960726
-0.161956787109375;0.001708984375;-1.004730224609375;0.026734407991170883;0.0008849684381857514;0.004562527406960726
-0.161956787109375;0.001708984375;-1.004730224609375;0.026734407991170883;0.0008849684381857514;0.004562527406960726
-0.161376953125;0.0028533935546875;-1.0040283203125;0.027355458587408066;-0.004817658569663763;0.004044010303914547
-0.161376953125;0.0028533935546875;-1.0040283203125;0.027355458587408066;-0.004817658569663763;0.004044010303914547
-0.161376953125;0.0028533935546875;-1.0040283203125;0.027355458587408066;-0.004817658569663763;0.004044010303914547
-0.161376953125;0.0028533935546875;-1.0040283203125;0.027355458587408066;-0.004817658569663763;0.004044010303914547
-0.161376953125;0.0028533935546875;-1.0040283203125;0.027355458587408066;-0.004817658569663763;0.004044010303914547
-0.161895751953125;0.00244140625;-1.0046234130859375;0.030039126053452492;-0.0028003137558698654;0.0015110776294022799
-0.161895751953125;0.00244140625;-1.0046234130859375;0.030039126053452492;-0.0028003137558698654;0.0015110776294022799
-0.161895751953125;0.00244140625;-1.0046234130859375;0.030039126053452492;-0.0028003137558698654;0.0015110776294022799
-0.161895751953125;0.00244140625;-1.0046234130859375;0.030039126053452492;-0.0028003137558698654;0.0015110776294022799
-0.161895751953125;0.00244140625;-1.0046234130859375;0.030039126053452492;-0.0028003137558698654;0.0015110776294022799
-0.1621551513671875;0.0002899169921875;-1.005126953125;0.030952589586377144;-0.0028181569650769234;-0.00021118867152836174
-0.1621551513671875;0.0002899169921875;-1.005126953125;0.030952589586377144;-0.0028181569650769234;-0.00021118867152836174
-0.1621551513671875;0.0002899169921875;-1.005126953125;0.030952589586377144;-0.0028181569650769234;-0.00021118867152836174
-0.1621551513671875;0.0002899169921875;-1.005126953125;0.030952589586377144;-0.0028181569650769234;-0.00021118867152836174
-0.1621551513671875;0.0002899169921875;-1.005126953125;0.030952589586377144;-0.0028181569650769234;-0.00021118867152836174
-0.1619873046875;-0.00244140625;-1.005340576171875;0.030901189893484116;-0.003921770956367254;-0.0020149475894868374
-0.1619873046875;-0.00244140625;-1.005340576171875;0.030901189893484116;-0.003921770956367254;-0.0020149475894868374
-0.1619873046875;-0.00244140625;-1.005340576171875;0.030901189893484116;-0.003921770956367254;-0.0020149475894868374
-0.1619873046875;-0.00244140625;-1.005340576171875;0.030901189893484116;-0.003921770956367254;-0.0020149475894868374
-0.1619873046875;-0.00244140625;-1.005340576171875;0.030901189893484116;-0.003921770956367254;-0.0020149475894868374
-0.16180419921875;-0.0050201416015625;-1.005279541015625;0.02706916816532612;-0.003602191573008895;-0.0019433086272329092
-0.16180419921875;-0.0050201416015625;-1.005279541015625;0.02706916816532612;-0.003602191573008895;-0.0019433086272329092
-0.16180419921875;-0.0050201416015625;-1.005279541015625;0.02706916816532612;-0.003602191573008895;-0.0019433086272329092
-0.16180419921875;-0.0050201416015625;-1.005279541015625;0.02706916816532612;-0.003602191573008895;-0.0019433086272329092
-0.16180419921875;-0.0050201416015625;-1.005279541015625;0.02706916816532612;-0.003602191573008895;-0.0019433086272329092
-0.1617889404296875;-0.00634765625;-1.0035247802734375;0.023807328194379807;-0.0021819279063493013;-0.0008918926469050348
-0.1617889404296875;-0.00634765625;-1.0035247802734375;0.023807328194379807;-0.0021819279063493013;-0.0008918926469050348
-0.1617889404296875;-0.00634765625;-1.0035247802734375;0.023807328194379807;-0.0021819279063493013;-0.0008918926469050348
-0.1617889404296875;-0.00634765625;-1.0035247802734375;0.023807328194379807;-0.0021819279063493013;-0.0008918926469050348
-0.1617889404296875;-0.00634765625;-1.0035247802734375;0.023807328194379807;-0.0021819279063493013;-0.0008918926469050348
-0.1613616943359375;-0.00787353515625;-1.00152587890625;0.024688567966222763;0.00038589202449657023;9.214537567459047e-05
-0.1613616943359375;-0.00787353515625;-1.00152587890625;0.024688567966222763;0.00038589202449657023;9.214537567459047e-05
-0.1613616943359375;-0.00787353515625;-1.00152587890625;0.024688567966222763;0.00038589202449657023;9.214537567459047e-05
-0.1613616943359375;-0.00787353515625;-1.00152587890625;0.024688567966222763;0.00038589202449657023;9.214537567459047e-05
-0.1613616943359375;-0.00787353515625;-1.00152587890625;0.024688567966222763;0.00038589202449657023;9.214537567459047e-05
-0.1614532470703125;-0.00909423828125;-1.0015716552734375;0.02299133501946926;0.000928111607208848;-0.00017656758427619934
-0.1614532470703125;-0.00909423828125;-1.0015716552734375;0.02299133501946926;0.000928111607208848;-0.00017656758427619934
-0.1614532470703125;-0.00909423828125;-1.0015716552734375;0.02299133501946926;0.000928111607208848;-0.00017656758427619934
-0.1614532470703125;-0.00909423828125;-1.0015716552734375;0.02299133501946926;0.000928111607208848;-0.00017656758427619934
-0.1614532470703125;-0.00909423828125;-1.0015716552734375;0.02299133501946926;0.000928111607208848;-0.00017656758427619934
-0.161590576171875;-0.00860595703125;-1.0016326904296875;0.023976439610123634;0.004353735595941544;0.0022833943367004395
-0.161590576171875;-0.00860595703125;-1.0016326904296875;0.023976439610123634;0.004353735595941544;0.0022833943367004395
-0.161590576171875;-0.00860595703125;-1.0016326904296875;0.023976439610123634;0.004353735595941544;0.0022833943367004395
-0.161590576171875;-0.00860595703125;-1.0016326904296875;0.023976439610123634;0.004353735595941544;0.0022833943367004395
-0.161590576171875;-0.00860595703125;-1.0016326904296875;0.023976439610123634;0.004353735595941544;0.0022833943367004395
-0.1616973876953125;-0.0087127685546875;-1.000823974609375;0.02274313010275364;0.0007257114048115909;0.004839496221393347
-0.1616973876953125;-0.0087127685546875;-1.000823974609375;0.02274313010275364;0.0007257114048115909;0.004839496221393347
-0.1616973876953125;-0.0087127685546875;-1.000823974609375;0.02274313010275364;0.0007257114048115909;0.004839496221393347
-0.1616973876953125;-0.0087127685546875;-1.000823974609375;0.02274313010275364;0.0007257114048115909;0.004839496221393347
-0.1616973876953125;-0.0087127685546875;-1.000823974609375;0.02274313010275364;0.0007257114048115909;0.004839496221393347
-0.1611785888671875;-0.008056640625;-1.002105712890625;0.022652847692370415;0.00038216362008824944;0.0055817193351686
-0.1611785888671875;-0.008056640625;-1.002105712890625;0.022652847692370415;0.00038216362008824944;0.0055817193351686
-0.1611785888671875;-0.008056640625;-1.002105712890625;0.022652847692370415;0.00038216362008824944;0.0055817193351686
-0.1611785888671875;-0.008056640625;-1.002105712890625;0.022652847692370415;0.00038216362008824944;0.0055817193351686
-0.1611785888671875;-0.008056640625;-1.002105712890625;0.022652847692370415;0.00038216362008824944;0.0055817193351686
-0.160797119140625;-0.0060577392578125;-1.0042877197265625;0.025136245414614677;0.0023156185634434223;0.0037015276029706
-0.160797119140625;-0.0060577392578125;-1.0042877197265625;0.025136245414614677;0.0023156185634434223;0.0037015276029706
-0.160797119140625;-0.0060577392578125;-1.0042877197265625;0.025136245414614677;0.0023156185634434223;0.0037015276029706
-0.160797119140625;-0.0060577392578125;-1.0042877197265625;0.025136245414614677;0.0023156185634434223;0.0037015276029706
-0.160797119140625;-0.0060577392578125;-1.0042877197265625;0.025136245414614677;0.0023156185634434223;0.0037015276029706
-0.1618499755859375;-0.0071563720703125;-1.0082244873046875;0.02473703771829605;-0.00560994865372777;0.002519882982596755
-0.1618499755859375;-0.0071563720703125;-1.0082244873046875;0.02473703771829605;-0.00560994865372777;0.002519882982596755
-0.1618499755859375;-0.0071563720703125;-1.0082244873046875;0.02473703771829605;-0.00560994865372777;0.002519882982596755
-0.1618499755859375;-0.0071563720703125;-1.0082244873046875;0.02473703771829605;-0.00560994865372777;0.002519882982596755
-0.1618499755859375;-0.0071563720703125;-1.0082244873046875;0.02473703771829605;-0.00560994865372777;0.002519882982596755
-0.1623382568359375;-0.0067138671875;-1.0063018798828125;0.014652712270617485;-0.012922722846269608;-9.108010999625549e-05
-0.1623382568359375;-0.0067138671875;-1.0063018798828125;0.014652712270617485;-0.012922722846269608;-9.108010999625549e-05
-0.1623382568359375;-0.0067138671875;-1.0063018798828125;0.014652712270617485;-0.012922722846269608;-9.108010999625549e-05
-0.1623382568359375;-0.0067138671875;-1.0063018798828125;0.014652712270617485;-0.012922722846269608;-9.108010999625549e-05
-0.1623382568359375;-0.0067138671875;-1.0063018798828125;0.014652712270617485;-0.012922722846269608;-9.108010999625549e-05
-0.1618194580078125;-0.00897216796875;-1.0025177001953125;0.00401471508666873;-0.008435828611254692;0.002162486780434847
-0.1618194580078125;-0.00897216796875;-1.0025177001953125;0.00401471508666873;-0.008435828611254692;0.002162486780434847
-0.1618194580078125;-0.00897216796875;-1.0025177001953125;0.00401471508666873;-0.008435828611254692;0.002162486780434847
-0.1618194580078125;-0.00897216796875;-1.0025177001953125;0.00401471508666873;-0.008435828611254692;0.002162486780434847
-0.1618194580078125;-0.00897216796875;-1.0025177001953125;0.00401471508666873;-0.008435828611254692;0.002162486780434847
-0.1612091064453125;-0.0088348388671875;-1.00311279296875;-0.0024410535115748644;-0.0020117517560720444;0.0032147017773240805
-0.1612091064453125;-0.0088348388671875;-1.00311279296875;-0.0024410535115748644;-0.0020117517560720444;0.0032147017773240805
-0.1612091064453125;-0.0088348388671875;-1.00311279296875;-0.0024410535115748644;-0.0020117517560720444;0.0032147017773240805
-0.1612091064453125;-0.0088348388671875;-1.00311279296875;-0.0024410535115748644;-0.0020117517560720444;0.0032147017773240805
-0.1612091064453125;-0.0088348388671875;-1.00311279296875;-0.0024410535115748644;-0.0020117517560720444;0.0032147017773240805
-0.162109375;-0.0064697265625;-1.0010986328125;0.0023342606145888567;0.00392709719017148;0.002201635157689452
-0.162109375;-0.0064697265625;-1.0010986328125;0.0023342606145888567;0.00392709719017148;0.002201635157689452
-0.162109375;-0.0064697265625;-1.0010986328125;0.0023342606145888567;0.00392709719017148;0.002201635157689452
-0.162109375;-0.0064697265625;-1.0010986328125;0.0023342606145888567;0.00392709719017148;0.002201635157689452
-0.162109375;-0.0064697265625;-1.0010986328125;0.0023342606145888567;0.00392709719017148;0.002201635157689452
-0.1626739501953125;-0.0034942626953125;-1.000946044921875;0.010028133168816566;-0.002531068166717887;-0.00039707732503302395
-0.1626739501953125;-0.0034942626953125;-1.000946044921875;0.010028133168816566;-0.002531068166717887;-0.00039707732503302395
-0.1626739501953125;-0.0034942626953125;-1.000946044921875;0.010028133168816566;-0.002531068166717887;-0.00039707732503302395
-0.1626739501953125;-0.0034942626953125;-1.000946044921875;0.010028133168816566;-0.002531068166717887;-0.00039707732503302395
-0.1626739501953125;-0.0034942626953125;-1.000946044921875;0.010028133168816566;-0.002531068166717887;-0.00039707732503302395
-0.1623687744140625;-0.0028228759765625;-1.0037078857421875;0.008685899898409843;-0.01124945841729641;-0.0011430287268012762
-0.1623687744140625;-0.0028228759765625;-1.0037078857421875;0.008685899898409843;-0.01124945841729641;-0.0011430287268012762
-0.1623687744140625;-0.0028228759765625;-1.0037078857421875;0.008685899898409843;-0.01124945841729641;-0.0011430287268012762
-0.1623687744140625;-0.0028228759765625;-1.0037078857421875;0.008685899898409843;-0.01124945841729641;-0.0011430287268012762
-0.1623687744140625;-0.0028228759765625;-1.0037078857421875;0.008685899898409843;-0.01124945841729641;-0.0011430287268012762
-0.1639556884765625;-0.00396728515625;-1.0020599365234375;0.016025038436055183;-0.0070429956540465355;0.0008815063047222793
-0.1639556884765625;-0.00396728515625;-1.0020599365234375;0.016025038436055183;-0.0070429956540465355;0.0008815063047222793
-0.1639556884765625;-0.00396728515625;-1.0020599365234375;0.016025038436055183;-0.0070429956540465355;0.0008815063047222793
-0.1639556884765625;-0.00396728515625;-1.0020599365234375;0.016025038436055183;-0.0070429956540465355;0.0008815063047222793
-0.1639556884765625;-0.00396728515625;-1.0020599365234375;0.016025038436055183;-0.0070429956540465355;0.0008815063047222793
-0.166168212890625;-0.0038604736328125;-1.0030670166015625;0.022426478564739227;-0.0041761030443012714;-0.001716939965263009
-0.166168212890625;-0.0038604736328125;-1.0030670166015625;0.022426478564739227;-0.0041761030443012714;-0.001716939965263009
-0.166168212890625;-0.0038604736328125;-1.0030670166015625;0.022426478564739227;-0.0041761030443012714;-0.001716939965263009
-0.166168212890625;-0.0038604736328125;-1.0030670166015625;0.022426478564739227;-0.0041761030443012714;-0.001716939965263009
-0.166168212890625;-0.0038604736328125;-1.0030670166015625;0.022426478564739227;-0.0041761030443012714;-0.001716939965263009
-0.164764404296875;-0.003021240234375;-1.0034027099609375;0.022101573646068573;-0.001234907773323357;-0.0013454289874061942
-0.164764404296875;-0.003021240234375;-1.0034027099609375;0.022101573646068573;-0.001234907773323357;-0.0013454289874061942
-0.164764404296875;-0.003021240234375;-1.0034027099609375;0.022101573646068573;-0.001234907773323357;-0.0013454289874061942
-0.164764404296875;-0.003021240234375;-1.0034027099609375;0.022101573646068573;-0.001234907773323357;-0.0013454289874061942
-0.164764404296875;-0.003021240234375;-1.0034027099609375;0.022101573646068573;-0.001234907773323357;-0.0013454289874061942
-0.16107177734375;-0.00506591796875;-1.0019989013671875;0.022366026416420937;-0.0016442356863990426;0.0030772825703024864
-0.16107177734375;-0.00506591796875;-1.0019989013671875;0.022366026416420937;-0.0016442356863990426;0.0030772825703024864
-0.16107177734375;-0.00506591796875;-1.0019989013671875;0.022366026416420937;-0.0016442356863990426;0.0030772825703024864
-0.16107177734375;-0.00506591796875;-1.0019989013671875;0.022366026416420937;-0.0016442356863990426;0.0030772825703024864
-0.16107177734375;-0.00506591796875;-1.0019989013671875;0.022366026416420937;-0.0016442356863990426;0.0030772825703024864
-0.1597442626953125;-0.00836181640625;-1.0009765625;0.023732759058475494;-0.01167529821395874;0.0028011128306388855
-0.1597442626953125;-0.00836181640625;-1.0009765625;0.023732759058475494;-0.01167529821395874;0.0028011128306388855
-0.1597442626953125;-0.00836181640625;-1.0009765625;0.023732759058475494;-0.01167529821395874;0.0028011128306388855
-0.1597442626953125;-0.00836181640625;-1.0009765625;0.023732759058475494;-0.01167529821395874;0.0028011128306388855
-0.1597442626953125;-0.00836181640625;-1.0009765625;0.023732759058475494;-0.01167529821395874;0.0028011128306388855
-0.16156005859375;-0.010467529296875;-1.004730224609375;0.022672289982438087;-0.013140303082764149;0.005906624719500542
-0.16156005859375;-0.010467529296875;-1.004730224609375;0.022672289982438087;-0.013140303082764149;0.005906624719500542
-0.16156005859375;-0.010467529296875;-1.004730224609375;0.022672289982438087;-0.013140303082764149;0.005906624719500542
-0.16156005859375;-0.010467529296875;-1.004730224609375;0.022672289982438087;-0.013140303082764149;0.005906624719500542
-0.16156005859375;-0.010467529296875;-1.004730224609375;0.022672289982438087;-0.013140303082764149;0.005906624719500542
-0.1650238037109375;-0.012420654296875;-1.0070953369140625;0.022361498326063156;-0.011973039247095585;0.0028783443849533796
-0.1650238037109375;-0.012420654296875;-1.0070953369140625;0.022361498326063156;-0.011973039247095585;0.0028783443849533796
-0.1650238037109375;-0.012420654296875;-1.0070953369140625;0.022361498326063156;-0.011973039247095585;0.0028783443849533796
-0.1650238037109375;-0.012420654296875;-1.0070953369140625;0.022361498326063156;-0.011973039247095585;0.0028783443849533796
-0.1650238037109375;-0.012420654296875;-1.0070953369140625;0.022361498326063156;-0.011973039247095585;0.0028783443849533796
-0.1668548583984375;-0.0133056640625;-1.00732421875;0.02455141581594944;-0.010659036226570606;0.008254467509686947
-0.1668548583984375;-0.0133056640625;-1.00732421875;0.02455141581594944;-0.010659036226570606;0.008254467509686947
-0.1668548583984375;-0.0133056640625;-1.00732421875;0.02455141581594944;-0.010659036226570606;0.008254467509686947
-0.1668548583984375;-0.0133056640625;-1.00732421875;0.02455141581594944;-0.010659036226570606;0.008254467509686947
-0.1668548583984375;-0.0133056640625;-1.00732421875;0.02455141581594944;-0.010659036226570606;0.008254467509686947
-0.1667633056640625;-0.0141448974609375;-1.0086669921875;0.016272446140646935;-0.013639112934470177;0.003978762775659561
-0.1667633056640625;-0.0141448974609375;-1.0086669921875;0.016272446140646935;-0.013639112934470177;0.003978762775659561
-0.1667633056640625;-0.0141448974609375;-1.0086669921875;0.016272446140646935;-0.013639112934470177;0.003978762775659561
-0.1667633056640625;-0.0141448974609375;-1.0086669921875;0.016272446140646935;-0.013639112934470177;0.003978762775659561
-0.1667633056640625;-0.0141448974609375;-1.0086669921875;0.016272446140646935;-0.013639112934470177;0.003978762775659561
-0.166412353515625;-0.0139007568359375;-1.0088348388671875;0.012358132749795914;-0.013708354905247688;0.004848284646868706
-0.166412353515625;-0.0139007568359375;-1.0088348388671875;0.012358132749795914;-0.013708354905247688;0.004848284646868706
-0.166412353515625;-0.0139007568359375;-1.0088348388671875;0.012358132749795914;-0.013708354905247688;0.004848284646868706
-0.166412353515625;-0.0139007568359375;-1.0088348388671875;0.012358132749795914;-0.013708354905247688;0.004848284646868706
-0.166412353515625;-0.0139007568359375;-1.0088348388671875;0.012358132749795914;-0.013708354905247688;0.004848284646868706
-0.163848876953125;-0.0124664306640625;-1.0075531005859375;0.0123645244166255;-0.012270781211555004;0.003972104750573635
-0.163848876953125;-0.0124664306640625;-1.0075531005859375;0.0123645244166255;-0.012270781211555004;0.003972104750573635
-0.163848876953125;-0.0124664306640625;-1.0075531005859375;0.0123645244166255;-0.012270781211555004;0.003972104750573635
-0.163848876953125;-0.0124664306640625;-1.0075531005859375;0.0123645244166255;-0.012270781211555004;0.003972104750573635
-0.163848876953125;-0.0124664306640625;-1.0075531005859375;0.0123645244166255;-0.012270781211555004;0.003972104750573635
-0.1627655029296875;-0.0095672607421875;-1.00323486328125;0.012712866067886353;-0.005549495108425617;-0.0007539408979937434
-0.1627655029296875;-0.0095672607421875;-1.00323486328125;0.012712866067886353;-0.005549495108425617;-0.0007539408979937434
-0.1627655029296875;-0.0095672607421875;-1.00323486328125;0.012712866067886353;-0.005549495108425617;-0.0007539408979937434
-0.1627655029296875;-0.0095672607421875;-1.00323486328125;0.012712866067886353;-0.005549495108425617;-0.0007539408979937434
-0.1627655029296875;-0.0095672607421875;-1.00323486328125;0.012712866067886353;-0.005549495108425617;-0.0007539408979937434
-0.1616058349609375;-0.00555419921875;-1.0017547607421875;0.02508830837905407;-0.00028868665685877204;0.0014077469240874052
-0.1616058349609375;-0.00555419921875;-1.0017547607421875;0.02508830837905407;-0.00028868665685877204;0.0014077469240874052
-0.1616058349609375;-0.00555419921875;-1.0017547607421875;0.02508830837905407;-0.00028868665685877204;0.0014077469240874052
-0.1616058349609375;-0.00555419921875;-1.0017547607421875;0.02508830837905407;-0.00028868665685877204;0.0014077469240874052
-0.1616058349609375;-0.00555419921875;-1.0017547607421875;0.02508830837905407;-0.00028868665685877204;0.0014077469240874052
-0.160552978515625;-0.0049896240234375;-1.0045013427734375;0.030523553490638733;-0.002886600326746702;-0.00017869810108095407
-0.160552978515625;-0.0049896240234375;-1.0045013427734375;0.030523553490638733;-0.002886600326746702;-0.00017869810108095407
-0.160552978515625;-0.0049896240234375;-1.0045013427734375;0.030523553490638733;-0.002886600326746702;-0.00017869810108095407
-0.160552978515625;-0.0049896240234375;-1.0045013427734375;0.030523553490638733;-0.002886600326746702;-0.00017869810108095407
-0.160552978515625;-0.0049896240234375;-1.0045013427734375;0.030523553490638733;-0.002886600326746702;-0.00017869810108095407
-0.16058349609375;-0.00537109375;-1.003509521484375;0.02702043205499649;-0.0004218447138555348;-8.122641156660393e-05
-0.16058349609375;-0.00537109375;-1.003509521484375;0.02702043205499649;-0.0004218447138555348;-8.122641156660393e-05
-0.16058349609375;-0.00537109375;-1.003509521484375;0.02702043205499649;-0.0004218447138555348;-8.122641156660393e-05
-0.16058349609375;-0.00537109375;-1.003509521484375;0.02702043205499649;-0.0004218447138555348;-8.122641156660393e-05
-0.16058349609375;-0.00537109375;-1.003509521484375;0.02702043205499649;-0.0004218447138555348;-8.122641156660393e-05
-0.160003662109375;-0.0070953369140625;-1.00262451171875;0.025663018226623535;-0.0030128341168165207;0.0035843485966324806
-0.160003662109375;-0.0070953369140625;-1.00262451171875;0.025663018226623535;-0.0030128341168165207;0.0035843485966324806
-0.160003662109375;-0.0070953369140625;-1.00262451171875;0.025663018226623535;-0.0030128341168165207;0.0035843485966324806
-0.160003662109375;-0.0070953369140625;-1.00262451171875;0.025663018226623535;-0.0030128341168165207;0.0035843485966324806
-0.160003662109375;-0.0070953369140625;-1.00262451171875;0.025663018226623535;-0.0030128341168165207;0.0035843485966324806
-0.16046142578125;-0.009246826171875;-1.001983642578125;0.02371118776500225;-0.001998968655243516;0.0021795309148728848
-0.16046142578125;-0.009246826171875;-1.001983642578125;0.02371118776500225;-0.001998968655243516;0.0021795309148728848
-0.16046142578125;-0.009246826171875;-1.001983642578125;0.02371118776500225;-0.001998968655243516;0.0021795309148728848
-0.16046142578125;-0.009246826171875;-1.001983642578125;0.02371118776500225;-0.001998968655243516;0.0021795309148728848
-0.16046142578125;-0.009246826171875;-1.001983642578125;0.02371118776500225;-0.001998968655243516;0.0021795309148728848
-0.161529541015625;-0.010650634765625;-1.0019073486328125;0.0277999397367239;-0.005230181850492954;0.0008325041271746159
-0.161529541015625;-0.010650634765625;-1.0019073486328125;0.0277999397367239;-0.005230181850492954;0.0008325041271746159
-0.161529541015625;-0.010650634765625;-1.0019073486328125;0.0277999397367239;-0.005230181850492954;0.0008325041271746159
-0.161529541015625;-0.010650634765625;-1.0019073486328125;0.0277999397367239;-0.005230181850492954;0.0008325041271746159
-0.161529541015625;-0.010650634765625;-1.0019073486328125;0.020258134230971336;-0.002543052425608039;0.00010253170330543071
-0.16156005859375;-0.0120849609375;-1.0026092529296875;0.020258134230971336;-0.002543052425608039;0.00010253170330543071
-0.16156005859375;-0.0120849609375;-1.0026092529296875;0.020258134230971336;-0.002543052425608039;0.00010253170330543071
-0.16156005859375;-0.0120849609375;-1.0026092529296875;0.020258134230971336;-0.002543052425608039;0.00010253170330543071
-0.16156005859375;-0.0120849609375;-1.0026092529296875;0.020258134230971336;-0.002543052425608039;0.00010253170330543071
-0.1627197265625;-0.0120849609375;-1.0006256103515625;0.020800886675715446;0.0019342538435012102;0.0016263924771919847
-0.1627197265625;-0.0120849609375;-1.0006256103515625;0.020800886675715446;0.0019342538435012102;0.0016263924771919847
-0.1627197265625;-0.0120849609375;-1.0006256103515625;0.020800886675715446;0.0019342538435012102;0.0016263924771919847
-0.1627197265625;-0.0120849609375;-1.0006256103515625;0.020800886675715446;0.0019342538435012102;0.0016263924771919847
-0.1627197265625;-0.0120849609375;-1.0006256103515625;0.020800886675715446;0.0019342538435012102;0.0016263924771919847
-0.1627197265625;-0.0120849609375;-1.0006256103515625;0.01805703155696392;-0.001961151836439967;0.0020548950415104628
-0.162017822265625;-0.0127105712890625;-1.002227783203125;0.01805703155696392;-0.001961151836439967;0.0020548950415104628
-0.162017822265625;-0.0127105712890625;-1.002227783203125;0.01805703155696392;-0.001961151836439967;0.0020548950415104628
-0.162017822265625;-0.0127105712890625;-1.002227783203125;0.01805703155696392;-0.001961151836439967;0.0020548950415104628
-0.162017822265625;-0.0127105712890625;-1.002227783203125;0.01805703155696392;-0.001961151836439967;0.0020548950415104628
-0.162017822265625;-0.0127105712890625;-1.002227783203125;0.01708071678876877;-0.004087419714778662;0.0033513219095766544
-0.163116455078125;-0.013824462890625;-1.002838134765625;0.01708071678876877;-0.004087419714778662;0.0033513219095766544
-0.163116455078125;-0.013824462890625;-1.002838134765625;0.01708071678876877;-0.004087419714778662;0.0033513219095766544
-0.163116455078125;-0.013824462890625;-1.002838134765625;0.01708071678876877;-0.004087419714778662;0.0033513219095766544
-0.163116455078125;-0.013824462890625;-1.002838134765625;0.01708071678876877;-0.004087419714778662;0.0033513219095766544
