Acell X;Acell Y;Acell Z;Gyro X;Gyro Y;Gyro Z

0.02142333984375;-0.0597686767578125;-1.0129241943359375;0.003528422210365534;-0.0025651566684246063;0.0037505298387259245
0.0231170654296875;-0.060516357421875;-1.007476806640625;0.003528422210365534;-0.0025651566684246063;0.0037505298387259245
0.0231170654296875;-0.060516357421875;-1.007476806640625;0.003528422210365534;-0.0025651566684246063;0.0037505298387259245
0.0231170654296875;-0.060516357421875;-1.007476806640625;0.003528422210365534;-0.0025651566684246063;0.0037505298387259245
0.0231170654296875;-0.060516357421875;-1.007476806640625;0.003528422210365534;-0.0025651566684246063;0.0037505298387259245
0.0231170654296875;-0.060516357421875;-1.007476806640625;-0.0010809770319610834;-0.004021639470010996;0.0028551749419420958
0.0220184326171875;-0.0617523193359375;-1.0060882568359375;-0.0010809770319610834;-0.004021639470010996;0.0028551749419420958
0.0220184326171875;-0.0617523193359375;-1.0060882568359375;-0.0010809770319610834;-0.004021639470010996;0.0028551749419420958
0.0220184326171875;-0.0617523193359375;-1.0060882568359375;-0.0010809770319610834;-0.004021639470010996;0.0028551749419420958
0.0220184326171875;-0.0617523193359375;-1.0060882568359375;-0.0010809770319610834;-0.004021639470010996;0.0028551749419420958
0.0220184326171875;-0.0617523193359375;-1.0060882568359375;-0.010007892735302448;-0.0018690064316615462;0.005181712564080954
0.019500732421875;-0.0639495849609375;-1.0091552734375;-0.010007892735302448;-0.0018690064316615462;0.005181712564080954
0.019500732421875;-0.0639495849609375;-1.0091552734375;-0.010007892735302448;-0.0018690064316615462;0.005181712564080954
0.019500732421875;-0.0639495849609375;-1.0091552734375;-0.010007892735302448;-0.0018690064316615462;0.005181712564080954
0.019500732421875;-0.0639495849609375;-1.0091552734375;-0.010007892735302448;-0.0018690064316615462;0.005181712564080954
0.019500732421875;-0.0639495849609375;-1.0091552734375;-0.0130907678976655;0.005017928313463926;0.005032575689256191
0.0177154541015625;-0.065399169921875;-1.0114288330078125;-0.0130907678976655;0.005017928313463926;0.005032575689256191
0.0177154541015625;-0.065399169921875;-1.0114288330078125;-0.0130907678976655;0.005017928313463926;0.005032575689256191
0.0177154541015625;-0.065399169921875;-1.0114288330078125;-0.0130907678976655;0.005017928313463926;0.005032575689256191
0.0177154541015625;-0.065399169921875;-1.0114288330078125;-0.0130907678976655;0.005017928313463926;0.005032575689256191
0.0177154541015625;-0.065399169921875;-1.0114288330078125;-0.017460482195019722;0.008742891252040863;0.003693005535751581
0.01690673828125;-0.0666351318359375;-1.0110931396484375;-0.017460482195019722;0.008742891252040863;0.003693005535751581
0.01690673828125;-0.0666351318359375;-1.0110931396484375;-0.017460482195019722;0.008742891252040863;0.003693005535751581
0.01690673828125;-0.0666351318359375;-1.0110931396484375;-0.017460482195019722;0.008742891252040863;0.003693005535751581
0.01690673828125;-0.0666351318359375;-1.0110931396484375;-0.017460482195019722;0.008742891252040863;0.003693005535751581
0.01690673828125;-0.0666351318359375;-1.0110931396484375;-0.02094043605029583;0.006939398590475321;0.006584133021533489
0.0169219970703125;-0.0679473876953125;-1.01318359375;-0.02094043605029583;0.006939398590475321;0.006584133021533489
0.0169219970703125;-0.0679473876953125;-1.01318359375;-0.02094043605029583;0.006939398590475321;0.006584133021533489
0.0169219970703125;-0.0679473876953125;-1.01318359375;-0.02094043605029583;0.006939398590475321;0.006584133021533489
0.0169219970703125;-0.0679473876953125;-1.01318359375;-0.02094043605029583;0.006939398590475321;0.006584133021533489
0.0169219970703125;-0.0679473876953125;-1.01318359375;-0.023119168356060982;0.011201787739992142;0.003490072675049305
0.0166168212890625;-0.0680389404296875;-1.01190185546875;-0.023119168356060982;0.011201787739992142;0.003490072675049305
0.0166168212890625;-0.0680389404296875;-1.01190185546875;-0.023119168356060982;0.011201787739992142;0.003490072675049305
0.0166168212890625;-0.0680389404296875;-1.01190185546875;-0.023119168356060982;0.011201787739992142;0.003490072675049305
0.0166168212890625;-0.0680389404296875;-1.01190185546875;-0.023119168356060982;0.011201787739992142;0.003490072675049305
0.0166168212890625;-0.0680389404296875;-1.01190185546875;-0.023676034063100815;0.009856092743575573;0.0017496967921033502
0.0176849365234375;-0.0672454833984375;-1.01226806640625;-0.023676034063100815;0.009856092743575573;0.0017496967921033502
0.0176849365234375;-0.0672454833984375;-1.01226806640625;-0.023676034063100815;0.009856092743575573;0.0017496967921033502
0.0176849365234375;-0.0672454833984375;-1.01226806640625;-0.023676034063100815;0.009856092743575573;0.0017496967921033502
0.0176849365234375;-0.0672454833984375;-1.01226806640625;-0.023676034063100815;0.009856092743575573;0.0017496967921033502
0.0176849365234375;-0.0672454833984375;-1.01226806640625;-0.017608821392059326;0.011093663983047009;0.0030336068011820316
0.017486572265625;-0.065704345703125;-1.0139312744140625;-0.017608821392059326;0.011093663983047009;0.0030336068011820316
0.017486572265625;-0.065704345703125;-1.0139312744140625;-0.017608821392059326;0.011093663983047009;0.0030336068011820316
0.017486572265625;-0.065704345703125;-1.0139312744140625;-0.017608821392059326;0.011093663983047009;0.0030336068011820316
0.017486572265625;-0.065704345703125;-1.0139312744140625;-0.017608821392059326;0.011093663983047009;0.0030336068011820316
0.017486572265625;-0.065704345703125;-1.0139312744140625;-0.017616277560591698;0.003165433183312416;0.001862614881247282
0.0174102783203125;-0.064208984375;-1.014312744140625;-0.017616277560591698;0.003165433183312416;0.001862614881247282
0.0174102783203125;-0.064208984375;-1.014312744140625;-0.017616277560591698;0.003165433183312416;0.001862614881247282
0.0174102783203125;-0.064208984375;-1.014312744140625;-0.017616277560591698;0.003165433183312416;0.001862614881247282
0.0174102783203125;-0.064208984375;-1.014312744140625;-0.017616277560591698;0.003165433183312416;0.001862614881247282
0.0174102783203125;-0.064208984375;-1.014312744140625;-0.020659472793340683;0.002394714392721653;0.00036192359402775764
0.0179901123046875;-0.0641021728515625;-1.0130157470703125;-0.020659472793340683;0.002394714392721653;0.00036192359402775764
0.0179901123046875;-0.0641021728515625;-1.0130157470703125;-0.020659472793340683;0.002394714392721653;0.00036192359402775764
0.0179901123046875;-0.0641021728515625;-1.0130157470703125;-0.020659472793340683;0.002394714392721653;0.00036192359402775764
0.0179901123046875;-0.0641021728515625;-1.0130157470703125;-0.020659472793340683;0.002394714392721653;0.00036192359402775764
0.0179901123046875;-0.0641021728515625;-1.0130157470703125;-0.01804744452238083;0.003100185887888074;-0.0010013486025854945
0.017303466796875;-0.062957763671875;-1.013397216796875;-0.01804744452238083;0.003100185887888074;-0.0010013486025854945
0.017303466796875;-0.062957763671875;-1.013397216796875;-0.01804744452238083;0.003100185887888074;-0.0010013486025854945
0.017303466796875;-0.062957763671875;-1.013397216796875;-0.01804744452238083;0.003100185887888074;-0.0010013486025854945
0.017303466796875;-0.062957763671875;-1.013397216796875;-0.01804744452238083;0.003100185887888074;-0.0010013486025854945
0.017303466796875;-0.062957763671875;-1.013397216796875;-0.018805911764502525;0.0017502295086160302;0.003278617514297366
0.016845703125;-0.063812255859375;-1.0141448974609375;-0.018805911764502525;0.0017502295086160302;0.003278617514297366
0.016845703125;-0.063812255859375;-1.0141448974609375;-0.018805911764502525;0.0017502295086160302;0.003278617514297366
0.016845703125;-0.063812255859375;-1.0141448974609375;-0.018805911764502525;0.0017502295086160302;0.003278617514297366
0.016845703125;-0.063812255859375;-1.0141448974609375;-0.018805911764502525;0.0017502295086160302;0.003278617514297366
0.016845703125;-0.063812255859375;-1.0141448974609375;-0.018751583993434906;0.002147573046386242;-0.00162399560213089
0.0174102783203125;-0.0628662109375;-1.0153656005859375;-0.018751583993434906;0.002147573046386242;-0.00162399560213089
0.0174102783203125;-0.0628662109375;-1.0153656005859375;-0.018751583993434906;0.002147573046386242;-0.00162399560213089
0.0174102783203125;-0.0628662109375;-1.0153656005859375;-0.018751583993434906;0.002147573046386242;-0.00162399560213089
0.0174102783203125;-0.0628662109375;-1.0153656005859375;-0.018751583993434906;0.002147573046386242;-0.00162399560213089
0.0174102783203125;-0.0628662109375;-1.0153656005859375;-0.02569657564163208;0.003537210635840893;-0.00046046054922044277
0.0185546875;-0.0634765625;-1.01190185546875;-0.02569657564163208;0.003537210635840893;-0.00046046054922044277
0.0185546875;-0.0634765625;-1.01190185546875;-0.02569657564163208;0.003537210635840893;-0.00046046054922044277
0.0185546875;-0.0634765625;-1.01190185546875;-0.02569657564163208;0.003537210635840893;-0.00046046054922044277
0.0185546875;-0.0634765625;-1.01190185546875;-0.02569657564163208;0.003537210635840893;-0.00046046054922044277
0.0185546875;-0.0634765625;-1.01190185546875;-0.028678515926003456;0.002930808812379837;0.0016418388113379478
0.017669677734375;-0.06329345703125;-1.0105743408203125;-0.028678515926003456;0.002930808812379837;0.0016418388113379478
0.017669677734375;-0.06329345703125;-1.0105743408203125;-0.028678515926003456;0.002930808812379837;0.0016418388113379478
0.017669677734375;-0.06329345703125;-1.0105743408203125;-0.028678515926003456;0.002930808812379837;0.0016418388113379478
0.017669677734375;-0.06329345703125;-1.0105743408203125;-0.028678515926003456;0.002930808812379837;0.0016418388113379478
0.017669677734375;-0.06329345703125;-1.0105743408203125;-0.029857231304049492;0.006560963578522205;0.004992894362658262
0.01727294921875;-0.0626983642578125;-1.0117034912109375;-0.029857231304049492;0.006560963578522205;0.004992894362658262
0.01727294921875;-0.0626983642578125;-1.0117034912109375;-0.029857231304049492;0.006560963578522205;0.004992894362658262
0.01727294921875;-0.0626983642578125;-1.0117034912109375;-0.029857231304049492;0.006560963578522205;0.004992894362658262
0.01727294921875;-0.0626983642578125;-1.0117034912109375;-0.029857231304049492;0.006560963578522205;0.004992894362658262
0.01727294921875;-0.0626983642578125;-1.0117034912109375;-0.029205022379755974;0.008886968716979027;0.004807271994650364
0.01806640625;-0.06048583984375;-1.011688232421875;-0.029205022379755974;0.008886968716979027;0.004807271994650364
0.01806640625;-0.06048583984375;-1.011688232421875;-0.029205022379755974;0.008886968716979027;0.004807271994650364
0.01806640625;-0.06048583984375;-1.011688232421875;-0.029205022379755974;0.008886968716979027;0.004807271994650364
0.01806640625;-0.06048583984375;-1.011688232421875;-0.029205022379755974;0.008886968716979027;0.004807271994650364
0.01806640625;-0.06048583984375;-1.011688232421875;-0.024082433432340622;0.0032836776226758957;0.004078897647559643
0.0182342529296875;-0.0584869384765625;-1.0157318115234375;-0.024082433432340622;0.0032836776226758957;0.004078897647559643
0.0182342529296875;-0.0584869384765625;-1.0157318115234375;-0.024082433432340622;0.0032836776226758957;0.004078897647559643
0.0182342529296875;-0.0584869384765625;-1.0157318115234375;-0.024082433432340622;0.0032836776226758957;0.004078897647559643
0.0182342529296875;-0.0584869384765625;-1.0157318115234375;-0.024082433432340622;0.0032836776226758957;0.004078897647559643
0.0182342529296875;-0.0584869384765625;-1.0157318115234375;-0.01258024014532566;0.0007249124464578927;0.00344506511464715
0.018402099609375;-0.058135986328125;-1.0185089111328125;-0.01258024014532566;0.0007249124464578927;0.00344506511464715
0.018402099609375;-0.058135986328125;-1.0185089111328125;-0.01258024014532566;0.0007249124464578927;0.00344506511464715
0.018402099609375;-0.058135986328125;-1.0185089111328125;-0.01258024014532566;0.0007249124464578927;0.00344506511464715
0.018402099609375;-0.058135986328125;-1.0185089111328125;-0.01258024014532566;0.0007249124464578927;0.00344506511464715
0.018402099609375;-0.058135986328125;-1.0185089111328125;-0.010037986561655998;-0.0006319681415334344;0.0018956380663439631
0.0197906494140625;-0.059539794921875;-1.01715087890625;-0.010037986561655998;-0.0006319681415334344;0.0018956380663439631
0.0197906494140625;-0.059539794921875;-1.01715087890625;-0.010037986561655998;-0.0006319681415334344;0.0018956380663439631
0.0197906494140625;-0.059539794921875;-1.01715087890625;-0.010037986561655998;-0.0006319681415334344;0.0018956380663439631
0.0197906494140625;-0.059539794921875;-1.01715087890625;-0.010037986561655998;-0.0006319681415334344;0.0018956380663439631
0.0197906494140625;-0.059539794921875;-1.01715087890625;-0.007787881884723902;-0.007847003638744354;0.0011696603614836931
0.0203399658203125;-0.0597076416015625;-1.0161895751953125;-0.007787881884723902;-0.007847003638744354;0.0011696603614836931
0.0203399658203125;-0.0597076416015625;-1.0161895751953125;-0.007787881884723902;-0.007847003638744354;0.0011696603614836931
0.0203399658203125;-0.0597076416015625;-1.0161895751953125;-0.007787881884723902;-0.007847003638744354;0.0011696603614836931
0.0203399658203125;-0.0597076416015625;-1.0161895751953125;-0.007787881884723902;-0.007847003638744354;0.0011696603614836931
0.0203399658203125;-0.0597076416015625;-1.0161895751953125;-0.005511944647878408;-0.0107668936252594;0.005468002520501614
0.0201263427734375;-0.0603179931640625;-1.0158843994140625;-0.005511944647878408;-0.0107668936252594;0.005468002520501614
0.0201263427734375;-0.0603179931640625;-1.0158843994140625;-0.005511944647878408;-0.0107668936252594;0.005468002520501614
0.0201263427734375;-0.0603179931640625;-1.0158843994140625;-0.005511944647878408;-0.0107668936252594;0.005468002520501614
0.0201263427734375;-0.0603179931640625;-1.0158843994140625;-0.005511944647878408;-0.0107668936252594;0.005468002520501614
0.0201263427734375;-0.0603179931640625;-1.0158843994140625;-5.4328484111465514e-05;-0.007940747775137424;0.005848035216331482
0.0204315185546875;-0.0599212646484375;-1.0153961181640625;-5.4328484111465514e-05;-0.007940747775137424;0.005848035216331482
0.0204315185546875;-0.0599212646484375;-1.0153961181640625;-5.4328484111465514e-05;-0.007940747775137424;0.005848035216331482
0.0204315185546875;-0.0599212646484375;-1.0153961181640625;-5.4328484111465514e-05;-0.007940747775137424;0.005848035216331482
0.0204315185546875;-0.0599212646484375;-1.0153961181640625;-5.4328484111465514e-05;-0.007940747775137424;0.005848035216331482
0.0204315185546875;-0.0599212646484375;-1.0153961181640625;0.0010181264951825142;-0.00021971078240312636;0.00615136930719018
0.020904541015625;-0.06097412109375;-1.0117034912109375;0.0010181264951825142;-0.00021971078240312636;0.00615136930719018
0.020904541015625;-0.06097412109375;-1.0117034912109375;0.0010181264951825142;-0.00021971078240312636;0.00615136930719018
0.020904541015625;-0.06097412109375;-1.0117034912109375;0.0010181264951825142;-0.00021971078240312636;0.00615136930719018
0.020904541015625;-0.06097412109375;-1.0117034912109375;0.0010181264951825142;-0.00021971078240312636;0.00615136930719018
0.020904541015625;-0.06097412109375;-1.0117034912109375;-0.003291400847956538;0.03299470245838165;0.00224957219325006
0.02178955078125;-0.060791015625;-1.0054931640625;-0.003291400847956538;0.03299470245838165;0.00224957219325006
0.02178955078125;-0.060791015625;-1.0054931640625;-0.003291400847956538;0.03299470245838165;0.00224957219325006
0.02178955078125;-0.060791015625;-1.0054931640625;-0.003291400847956538;0.03299470245838165;0.00224957219325006
0.02178955078125;-0.060791015625;-1.0054931640625;-0.003291400847956538;0.03299470245838165;0.00224957219325006
0.02178955078125;-0.060791015625;-1.0054931640625;-0.01119113527238369;0.04068218171596527;-0.0012365056900307536
0.0215911865234375;-0.0613250732421875;-0.9862213134765625;-0.01119113527238369;0.04068218171596527;-0.0012365056900307536
0.0215911865234375;-0.0613250732421875;-0.9862213134765625;-0.01119113527238369;0.04068218171596527;-0.0012365056900307536
0.0215911865234375;-0.0613250732421875;-0.9862213134765625;-0.01119113527238369;0.04068218171596527;-0.0012365056900307536
0.0215911865234375;-0.0613250732421875;-0.9862213134765625;-0.01119113527238369;0.04068218171596527;-0.0012365056900307536
0.0215911865234375;-0.0613250732421875;-0.9862213134765625;-0.012720322236418724;0.008736233226954937;-0.000568052229937166
0.0215606689453125;-0.0588226318359375;-0.991943359375;-0.012720322236418724;0.008736233226954937;-0.000568052229937166
0.0215606689453125;-0.0588226318359375;-0.991943359375;-0.012720322236418724;0.008736233226954937;-0.000568052229937166
0.0215606689453125;-0.0588226318359375;-0.991943359375;-0.012720322236418724;0.008736233226954937;-0.000568052229937166
0.0215606689453125;-0.0588226318359375;-0.991943359375;-0.012720322236418724;0.008736233226954937;-0.000568052229937166
0.0215606689453125;-0.0588226318359375;-0.991943359375;-0.006755374372005463;-0.04013010859489441;0.0029547770973294973
0.0236053466796875;-0.0556640625;-1.0249176025390625;-0.006755374372005463;-0.04013010859489441;0.0029547770973294973
0.0236053466796875;-0.0556640625;-1.0249176025390625;-0.006755374372005463;-0.04013010859489441;0.0029547770973294973
0.0236053466796875;-0.0556640625;-1.0249176025390625;-0.006755374372005463;-0.04013010859489441;0.0029547770973294973
0.0236053466796875;-0.0556640625;-1.0249176025390625;-0.006755374372005463;-0.04013010859489441;0.0029547770973294973
0.0236053466796875;-0.0556640625;-1.0249176025390625;-0.009726663120090961;-0.05830192193388939;0.0036448021419346333
0.0214691162109375;-0.05523681640625;-1.0291290283203125;-0.009726663120090961;-0.05830192193388939;0.0036448021419346333
0.0214691162109375;-0.05523681640625;-1.0291290283203125;-0.009726663120090961;-0.05830192193388939;0.0036448021419346333
0.0214691162109375;-0.05523681640625;-1.0291290283203125;-0.009726663120090961;-0.05830192193388939;0.0036448021419346333
0.0214691162109375;-0.05523681640625;-1.0291290283203125;-0.022251509130001068;-0.03604907914996147;0.0007741809240542352
0.0214691162109375;-0.05523681640625;-1.0291290283203125;-0.022251509130001068;-0.03604907914996147;0.0007741809240542352
0.014984130859375;-0.056060791015625;-1.004913330078125;-0.022251509130001068;-0.03604907914996147;0.0007741809240542352
0.014984130859375;-0.056060791015625;-1.004913330078125;-0.022251509130001068;-0.03604907914996147;0.0007741809240542352
0.014984130859375;-0.056060791015625;-1.004913330078125;-0.022251509130001068;-0.03604907914996147;0.0007741809240542352
0.014984130859375;-0.056060791015625;-1.004913330078125;-0.022251509130001068;-0.03604907914996147;0.0007741809240542352
0.014984130859375;-0.056060791015625;-1.004913330078125;-0.027359452098608017;-0.009135175496339798;-0.00177899154368788
0.01324462890625;-0.059326171875;-0.9893951416015625;-0.027359452098608017;-0.009135175496339798;-0.00177899154368788
0.01324462890625;-0.059326171875;-0.9893951416015625;-0.027359452098608017;-0.009135175496339798;-0.00177899154368788
0.01324462890625;-0.059326171875;-0.9893951416015625;-0.027359452098608017;-0.009135175496339798;-0.00177899154368788
0.01324462890625;-0.059326171875;-0.9893951416015625;-0.0005440838285721838;-0.0009257147903554142;-0.004198473412543535
0.01324462890625;-0.059326171875;-0.9893951416015625;-0.0005440838285721838;-0.0009257147903554142;-0.004198473412543535
0.0175018310546875;-0.063018798828125;-1.0023193359375;-0.0005440838285721838;-0.0009257147903554142;-0.004198473412543535
0.0175018310546875;-0.063018798828125;-1.0023193359375;-0.0005440838285721838;-0.0009257147903554142;-0.004198473412543535
0.0175018310546875;-0.063018798828125;-1.0023193359375;-0.0005440838285721838;-0.0009257147903554142;-0.004198473412543535
0.0175018310546875;-0.063018798828125;-1.0023193359375;0.03922063857316971;-0.0019046928500756621;-0.0018932411912828684
0.021270751953125;-0.064117431640625;-1.0170440673828125;0.03922063857316971;-0.0019046928500756621;-0.0018932411912828684
0.021270751953125;-0.064117431640625;-1.0170440673828125;0.03922063857316971;-0.0019046928500756621;-0.0018932411912828684
0.021270751953125;-0.064117431640625;-1.0170440673828125;0.03922063857316971;-0.0019046928500756621;-0.0018932411912828684
0.021270751953125;-0.064117431640625;-1.0170440673828125;0.03922063857316971;-0.0019046928500756621;-0.0018932411912828684
0.021270751953125;-0.064117431640625;-1.0170440673828125;0.04547826945781708;-0.013146694749593735;-0.0007374293054454029
0.021270751953125;-0.064117431640625;-1.0170440673828125;0.04547826945781708;-0.013146694749593735;-0.0007374293054454029
0.023223876953125;-0.063140869140625;-1.02655029296875;0.04547826945781708;-0.013146694749593735;-0.0007374293054454029
0.023223876953125;-0.063140869140625;-1.02655029296875;0.04547826945781708;-0.013146694749593735;-0.0007374293054454029
0.023223876953125;-0.063140869140625;-1.02655029296875;0.04547826945781708;-0.013146694749593735;-0.0007374293054454029
0.023223876953125;-0.063140869140625;-1.02655029296875;0.028123512864112854;-0.02141634188592434;0.00027084347675554454
0.0230560302734375;-0.0657806396484375;-1.0251922607421875;0.028123512864112854;-0.02141634188592434;0.00027084347675554454
0.0230560302734375;-0.0657806396484375;-1.0251922607421875;0.028123512864112854;-0.02141634188592434;0.00027084347675554454
0.0230560302734375;-0.0657806396484375;-1.0251922607421875;0.028123512864112854;-0.02141634188592434;0.00027084347675554454
0.0230560302734375;-0.0657806396484375;-1.0251922607421875;0.028123512864112854;-0.02141634188592434;0.00027084347675554454
0.0230560302734375;-0.0657806396484375;-1.0251922607421875;-0.00971707608550787;-0.013377324678003788;0.004683434963226318
0.0230560302734375;-0.0657806396484375;-1.0251922607421875;-0.00971707608550787;-0.013377324678003788;0.004683434963226318
0.0222625732421875;-0.0698699951171875;-1.014892578125;-0.00971707608550787;-0.013377324678003788;0.004683434963226318
0.0222625732421875;-0.0698699951171875;-1.014892578125;-0.00971707608550787;-0.013377324678003788;0.004683434963226318
0.0222625732421875;-0.0698699951171875;-1.014892578125;-0.00971707608550787;-0.013377324678003788;0.004683434963226318
0.0222625732421875;-0.0698699951171875;-1.014892578125;-0.03645841032266617;-0.007321029901504517;0.00472577940672636
0.0179595947265625;-0.0712890625;-1.002593994140625;-0.03645841032266617;-0.007321029901504517;0.00472577940672636
0.0179595947265625;-0.0712890625;-1.002593994140625;-0.03645841032266617;-0.007321029901504517;0.00472577940672636
0.0179595947265625;-0.0712890625;-1.002593994140625;-0.03645841032266617;-0.007321029901504517;0.00472577940672636
0.0179595947265625;-0.0712890625;-1.002593994140625;-0.03645841032266617;-0.007321029901504517;0.00472577940672636
0.0179595947265625;-0.0712890625;-1.002593994140625;-0.040292296558618546;-0.0004135889175813645;0.007742874324321747
0.0141448974609375;-0.071014404296875;-1.002777099609375;-0.040292296558618546;-0.0004135889175813645;0.007742874324321747
0.0141448974609375;-0.071014404296875;-1.002777099609375;-0.040292296558618546;-0.0004135889175813645;0.007742874324321747
0.0141448974609375;-0.071014404296875;-1.002777099609375;-0.040292296558618546;-0.0004135889175813645;0.007742874324321747
0.0141448974609375;-0.071014404296875;-1.002777099609375;-0.040292296558618546;-0.0004135889175813645;0.007742874324321747
0.0141448974609375;-0.071014404296875;-1.002777099609375;-0.0306354071944952;-0.0037028591614216566;0.006179066374897957
0.0141448974609375;-0.071014404296875;-1.002777099609375;-0.0306354071944952;-0.0037028591614216566;0.006179066374897957
0.01226806640625;-0.068206787109375;-1.0146942138671875;-0.0306354071944952;-0.0037028591614216566;0.006179066374897957
0.01226806640625;-0.068206787109375;-1.0146942138671875;-0.0306354071944952;-0.0037028591614216566;0.006179066374897957
0.01226806640625;-0.068206787109375;-1.0146942138671875;-0.0306354071944952;-0.0037028591614216566;0.006179066374897957
0.01226806640625;-0.068206787109375;-1.0146942138671875;-0.019221099093556404;-0.01058926060795784;0.004175836686044931
0.0132598876953125;-0.0627593994140625;-1.0189361572265625;-0.019221099093556404;-0.01058926060795784;0.004175836686044931
0.0132598876953125;-0.0627593994140625;-1.0189361572265625;-0.019221099093556404;-0.01058926060795784;0.004175836686044931
0.0132598876953125;-0.0627593994140625;-1.0189361572265625;-0.019221099093556404;-0.01058926060795784;0.004175836686044931
0.0132598876953125;-0.0627593994140625;-1.0189361572265625;-0.019221099093556404;-0.01058926060795784;0.004175836686044931
0.0132598876953125;-0.0627593994140625;-1.0189361572265625;-0.005425125360488892;-0.01152509544044733;0.004397944081574678
0.016021728515625;-0.05584716796875;-1.016387939453125;-0.005425125360488892;-0.01152509544044733;0.004397944081574678
0.016021728515625;-0.05584716796875;-1.016387939453125;-0.005425125360488892;-0.01152509544044733;0.004397944081574678
0.016021728515625;-0.05584716796875;-1.016387939453125;-0.005425125360488892;-0.01152509544044733;0.004397944081574678
0.016021728515625;-0.05584716796875;-1.016387939453125;-0.005425125360488892;-0.01152509544044733;0.004397944081574678
0.016021728515625;-0.05584716796875;-1.016387939453125;0.012419651262462139;-0.011374360881745815;0.004804076161235571
0.018218994140625;-0.05255126953125;-1.0157318115234375;0.012419651262462139;-0.011374360881745815;0.004804076161235571
0.018218994140625;-0.05255126953125;-1.0157318115234375;0.012419651262462139;-0.011374360881745815;0.004804076161235571
0.018218994140625;-0.05255126953125;-1.0157318115234375;0.012419651262462139;-0.011374360881745815;0.004804076161235571
0.018218994140625;-0.05255126953125;-1.0157318115234375;0.012419651262462139;-0.011374360881745815;0.004804076161235571
0.018218994140625;-0.05255126953125;-1.0157318115234375;0.02153884805738926;-0.015180816873908043;0.001942243310622871
0.0212554931640625;-0.0500030517578125;-1.0159149169921875;0.02153884805738926;-0.015180816873908043;0.001942243310622871
0.0212554931640625;-0.0500030517578125;-1.0159149169921875;0.02153884805738926;-0.015180816873908043;0.001942243310622871
0.0212554931640625;-0.0500030517578125;-1.0159149169921875;0.02153884805738926;-0.015180816873908043;0.001942243310622871
0.0212554931640625;-0.0500030517578125;-1.0159149169921875;0.02153884805738926;-0.015180816873908043;0.001942243310622871
0.0212554931640625;-0.0500030517578125;-1.0159149169921875;0.02269572578370571;-0.01537442859262228;0.0025869945529848337
0.0220489501953125;-0.051177978515625;-1.01580810546875;0.02269572578370571;-0.01537442859262228;0.0025869945529848337
0.0220489501953125;-0.051177978515625;-1.01580810546875;0.02269572578370571;-0.01537442859262228;0.0025869945529848337
0.0220489501953125;-0.051177978515625;-1.01580810546875;0.02269572578370571;-0.01537442859262228;0.0025869945529848337
0.0220489501953125;-0.051177978515625;-1.01580810546875;0.02269572578370571;-0.01537442859262228;0.0025869945529848337
0.0220489501953125;-0.051177978515625;-1.01580810546875;0.01762719638645649;-0.01504206657409668;0.002627741079777479
0.021270751953125;-0.0545806884765625;-1.013397216796875;0.01762719638645649;-0.01504206657409668;0.002627741079777479
0.021270751953125;-0.0545806884765625;-1.013397216796875;0.01762719638645649;-0.01504206657409668;0.002627741079777479
0.021270751953125;-0.0545806884765625;-1.013397216796875;0.01762719638645649;-0.01504206657409668;0.002627741079777479
0.021270751953125;-0.0545806884765625;-1.013397216796875;0.01762719638645649;-0.01504206657409668;0.002627741079777479
0.021270751953125;-0.0545806884765625;-1.013397216796875;0.008051801472902298;-0.014372813515365124;0.0039116512052714825
0.020233154296875;-0.058349609375;-1.0123138427734375;0.008051801472902298;-0.014372813515365124;0.0039116512052714825
0.020233154296875;-0.058349609375;-1.0123138427734375;0.008051801472902298;-0.014372813515365124;0.0039116512052714825
0.020233154296875;-0.058349609375;-1.0123138427734375;0.008051801472902298;-0.014372813515365124;0.0039116512052714825
0.020233154296875;-0.058349609375;-1.0123138427734375;0.008051801472902298;-0.014372813515365124;0.0039116512052714825
0.020233154296875;-0.058349609375;-1.0123138427734375;-0.005617672111839056;-0.008757539093494415;0.003911917097866535
0.0181121826171875;-0.0607452392578125;-1.0108795166015625;-0.005617672111839056;-0.008757539093494415;0.003911917097866535
0.0181121826171875;-0.0607452392578125;-1.0108795166015625;-0.005617672111839056;-0.008757539093494415;0.003911917097866535
0.0181121826171875;-0.0607452392578125;-1.0108795166015625;-0.005617672111839056;-0.008757539093494415;0.003911917097866535
0.0181121826171875;-0.0607452392578125;-1.0108795166015625;-0.005617672111839056;-0.008757539093494415;0.003911917097866535
0.0181121826171875;-0.0607452392578125;-1.0108795166015625;-0.012598349712789059;-0.009331982582807541;0.003323625074699521
0.0177764892578125;-0.0624847412109375;-1.00848388671875;-0.012598349712789059;-0.009331982582807541;0.003323625074699521
0.0177764892578125;-0.0624847412109375;-1.00848388671875;-0.012598349712789059;-0.009331982582807541;0.003323625074699521
0.0177764892578125;-0.0624847412109375;-1.00848388671875;-0.012598349712789059;-0.009331982582807541;0.003323625074699521
0.0177764892578125;-0.0624847412109375;-1.00848388671875;-0.012598349712789059;-0.009331982582807541;0.003323625074699521
0.0177764892578125;-0.0624847412109375;-1.00848388671875;-0.023855265229940414;-0.0091157341375947;0.00401684595271945
0.01751708984375;-0.0620269775390625;-1.0075531005859375;-0.023855265229940414;-0.0091157341375947;0.00401684595271945
0.01751708984375;-0.0620269775390625;-1.0075531005859375;-0.023855265229940414;-0.0091157341375947;0.00401684595271945
0.01751708984375;-0.0620269775390625;-1.0075531005859375;-0.023855265229940414;-0.0091157341375947;0.00401684595271945
0.01751708984375;-0.0620269775390625;-1.0075531005859375;-0.023855265229940414;-0.0091157341375947;0.00401684595271945
0.01751708984375;-0.0620269775390625;-1.0075531005859375;-0.029167739674448967;-0.007164968643337488;0.0005147890187799931
0.0181884765625;-0.0623321533203125;-1.00823974609375;-0.029167739674448967;-0.007164968643337488;0.0005147890187799931
0.0181884765625;-0.0623321533203125;-1.00823974609375;-0.029167739674448967;-0.007164968643337488;0.0005147890187799931
0.0181884765625;-0.0623321533203125;-1.00823974609375;-0.029167739674448967;-0.007164968643337488;0.0005147890187799931
0.0181884765625;-0.0623321533203125;-1.00823974609375;-0.029167739674448967;-0.007164968643337488;0.0005147890187799931
0.0181884765625;-0.0623321533203125;-1.00823974609375;-0.034028805792331696;-0.007668306119740009;0.003282079705968499
0.0188140869140625;-0.0615234375;-1.0075836181640625;-0.034028805792331696;-0.007668306119740009;0.003282079705968499
0.0188140869140625;-0.0615234375;-1.0075836181640625;-0.034028805792331696;-0.007668306119740009;0.003282079705968499
0.0188140869140625;-0.0615234375;-1.0075836181640625;-0.034028805792331696;-0.007668306119740009;0.003282079705968499
0.0188140869140625;-0.0615234375;-1.0075836181640625;-0.034028805792331696;-0.007668306119740009;0.003282079705968499
0.0188140869140625;-0.0615234375;-1.0075836181640625;-0.03436170145869255;-0.008352472446858883;0.005546831991523504
0.0182037353515625;-0.059844970703125;-1.007598876953125;-0.03436170145869255;-0.008352472446858883;0.005546831991523504
0.0182037353515625;-0.059844970703125;-1.007598876953125;-0.03436170145869255;-0.008352472446858883;0.005546831991523504
0.0182037353515625;-0.059844970703125;-1.007598876953125;-0.03436170145869255;-0.008352472446858883;0.005546831991523504
0.0182037353515625;-0.059844970703125;-1.007598876953125;-0.03436170145869255;-0.008352472446858883;0.005546831991523504
0.0182037353515625;-0.059844970703125;-1.007598876953125;-0.03741128742694855;-0.013171462342143059;0.002258094260469079
0.0194854736328125;-0.060638427734375;-1.0104827880859375;-0.03741128742694855;-0.013171462342143059;0.002258094260469079
0.0194854736328125;-0.060638427734375;-1.0104827880859375;-0.03741128742694855;-0.013171462342143059;0.002258094260469079
0.0194854736328125;-0.060638427734375;-1.0104827880859375;-0.03741128742694855;-0.013171462342143059;0.002258094260469079
0.0194854736328125;-0.060638427734375;-1.0104827880859375;-0.03741128742694855;-0.013171462342143059;0.002258094260469079
0.0194854736328125;-0.060638427734375;-1.0104827880859375;-0.04340686276555061;-0.012524580582976341;-0.0011440940434113145
0.0200042724609375;-0.0610809326171875;-1.0126800537109375;-0.04340686276555061;-0.012524580582976341;-0.0011440940434113145
0.0200042724609375;-0.0610809326171875;-1.0126800537109375;-0.04340686276555061;-0.012524580582976341;-0.0011440940434113145
0.0200042724609375;-0.0610809326171875;-1.0126800537109375;-0.04340686276555061;-0.012524580582976341;-0.0011440940434113145
0.0200042724609375;-0.0610809326171875;-1.0126800537109375;-0.04340686276555061;-0.012524580582976341;-0.0011440940434113145
0.0200042724609375;-0.0610809326171875;-1.0126800537109375;-0.05229169875383377;-0.01625593565404415;0.004974252078682184
0.020660400390625;-0.0619659423828125;-1.0111541748046875;-0.05229169875383377;-0.01625593565404415;0.004974252078682184
0.020660400390625;-0.0619659423828125;-1.0111541748046875;-0.05229169875383377;-0.01625593565404415;0.004974252078682184
0.020660400390625;-0.0619659423828125;-1.0111541748046875;-0.05229169875383377;-0.01625593565404415;0.004974252078682184
0.020660400390625;-0.0619659423828125;-1.0111541748046875;-0.05229169875383377;-0.01625593565404415;0.004974252078682184
0.020660400390625;-0.0619659423828125;-1.0111541748046875;-0.06408950686454773;-0.02809661626815796;0.00615110294893384
0.021270751953125;-0.0632476806640625;-1.0133056640625;-0.06408950686454773;-0.02809661626815796;0.00615110294893384
0.021270751953125;-0.0632476806640625;-1.0133056640625;-0.06408950686454773;-0.02809661626815796;0.00615110294893384
0.021270751953125;-0.0632476806640625;-1.0133056640625;-0.06408950686454773;-0.02809661626815796;0.00615110294893384
0.021270751953125;-0.0632476806640625;-1.0133056640625;-0.06408950686454773;-0.02809661626815796;0.00615110294893384
0.021270751953125;-0.0632476806640625;-1.0133056640625;-0.09420852363109589;-0.023209715262055397;0.007377222646027803
0.0200042724609375;-0.0636138916015625;-1.009246826171875;-0.09420852363109589;-0.023209715262055397;0.007377222646027803
0.0200042724609375;-0.0636138916015625;-1.009246826171875;-0.09420852363109589;-0.023209715262055397;0.007377222646027803
0.0200042724609375;-0.0636138916015625;-1.009246826171875;-0.09420852363109589;-0.023209715262055397;0.007377222646027803
0.0200042724609375;-0.0636138916015625;-1.009246826171875;-0.09420852363109589;-0.023209715262055397;0.007377222646027803
0.0200042724609375;-0.0636138916015625;-1.009246826171875;-0.12322819232940674;-0.002040780382230878;0.011381285265088081
0.018280029296875;-0.063232421875;-0.998809814453125;-0.12322819232940674;-0.002040780382230878;0.011381285265088081
0.018280029296875;-0.063232421875;-0.998809814453125;-0.12322819232940674;-0.002040780382230878;0.011381285265088081
0.018280029296875;-0.063232421875;-0.998809814453125;-0.12322819232940674;-0.002040780382230878;0.011381285265088081
0.018280029296875;-0.063232421875;-0.998809814453125;-0.12322819232940674;-0.002040780382230878;0.011381285265088081
0.018280029296875;-0.063232421875;-0.998809814453125;-0.13216549158096313;0.0058067562058568;0.01050563808530569
0.0175628662109375;-0.0615386962890625;-0.9953155517578125;-0.13216549158096313;0.0058067562058568;0.01050563808530569
0.0175628662109375;-0.0615386962890625;-0.9953155517578125;-0.13216549158096313;0.0058067562058568;0.01050563808530569
0.0175628662109375;-0.0615386962890625;-0.9953155517578125;-0.13216549158096313;0.0058067562058568;0.01050563808530569
0.0175628662109375;-0.0615386962890625;-0.9953155517578125;-0.13216549158096313;0.0058067562058568;0.01050563808530569
0.0175628662109375;-0.0615386962890625;-0.9953155517578125;-0.12714622914791107;-0.0030362699180841446;0.010640926659107208
0.01678466796875;-0.0570068359375;-1.0019989013671875;-0.12714622914791107;-0.0030362699180841446;0.010640926659107208
0.01678466796875;-0.0570068359375;-1.0019989013671875;-0.12714622914791107;-0.0030362699180841446;0.010640926659107208
0.01678466796875;-0.0570068359375;-1.0019989013671875;-0.12714622914791107;-0.0030362699180841446;0.010640926659107208
0.01678466796875;-0.0570068359375;-1.0019989013671875;-0.12714622914791107;-0.0030362699180841446;0.010640926659107208
0.01678466796875;-0.0570068359375;-1.0019989013671875;-0.12422394752502441;0.005820072256028652;0.0067782774567604065
0.0157318115234375;-0.0529937744140625;-1.0067596435546875;-0.12422394752502441;0.005820072256028652;0.0067782774567604065
0.0157318115234375;-0.0529937744140625;-1.0067596435546875;-0.12422394752502441;0.005820072256028652;0.0067782774567604065
0.0157318115234375;-0.0529937744140625;-1.0067596435546875;-0.12422394752502441;0.005820072256028652;0.0067782774567604065
0.0157318115234375;-0.0529937744140625;-1.0067596435546875;-0.12422394752502441;0.005820072256028652;0.0067782774567604065
0.0157318115234375;-0.0529937744140625;-1.0067596435546875;-0.12193043529987335;-0.00455613574013114;0.006446714047342539
0.0147705078125;-0.0496063232421875;-0.9997100830078125;-0.12193043529987335;-0.00455613574013114;0.006446714047342539
0.0147705078125;-0.0496063232421875;-0.9997100830078125;-0.12193043529987335;-0.00455613574013114;0.006446714047342539
0.0147705078125;-0.0496063232421875;-0.9997100830078125;-0.12193043529987335;-0.00455613574013114;0.006446714047342539
0.0147705078125;-0.0496063232421875;-0.9997100830078125;-0.12193043529987335;-0.00455613574013114;0.006446714047342539
0.0147705078125;-0.0496063232421875;-0.9997100830078125;-0.09907171875238419;-0.027355724945664406;0.0014671353856101632
0.01458740234375;-0.0465087890625;-1.0120086669921875;-0.09907171875238419;-0.027355724945664406;0.0014671353856101632
0.01458740234375;-0.0465087890625;-1.0120086669921875;-0.09907171875238419;-0.027355724945664406;0.0014671353856101632
0.01458740234375;-0.0465087890625;-1.0120086669921875;-0.09907171875238419;-0.027355724945664406;0.0014671353856101632
0.01458740234375;-0.0465087890625;-1.0120086669921875;-0.09907171875238419;-0.027355724945664406;0.0014671353856101632
0.01458740234375;-0.0465087890625;-1.0120086669921875;-0.07660210132598877;-0.03585387021303177;0.002915628720074892
0.015045166015625;-0.042388916015625;-1.024993896484375;-0.07660210132598877;-0.03585387021303177;0.002915628720074892
0.015045166015625;-0.042388916015625;-1.024993896484375;-0.07660210132598877;-0.03585387021303177;0.002915628720074892
0.015045166015625;-0.042388916015625;-1.024993896484375;-0.07660210132598877;-0.03585387021303177;0.002915628720074892
0.015045166015625;-0.042388916015625;-1.024993896484375;-0.07660210132598877;-0.03585387021303177;0.002915628720074892
0.015045166015625;-0.042388916015625;-1.024993896484375;-0.057565025985240936;-0.043821781873703;0.003796069882810116
0.0156402587890625;-0.0431671142578125;-1.0213165283203125;-0.057565025985240936;-0.043821781873703;0.003796069882810116
0.0156402587890625;-0.0431671142578125;-1.0213165283203125;-0.057565025985240936;-0.043821781873703;0.003796069882810116
0.0156402587890625;-0.0431671142578125;-1.0213165283203125;-0.057565025985240936;-0.043821781873703;0.003796069882810116
0.0156402587890625;-0.0431671142578125;-1.0213165283203125;-0.057565025985240936;-0.043821781873703;0.003796069882810116
0.0156402587890625;-0.0431671142578125;-1.0213165283203125;-0.043601538985967636;-0.05786942318081856;0.0024117587599903345
0.0155181884765625;-0.04425048828125;-1.0203094482421875;-0.043601538985967636;-0.05786942318081856;0.0024117587599903345
0.0155181884765625;-0.04425048828125;-1.0203094482421875;-0.043601538985967636;-0.05786942318081856;0.0024117587599903345
0.0155181884765625;-0.04425048828125;-1.0203094482421875;-0.043601538985967636;-0.05786942318081856;0.0024117587599903345
0.0155181884765625;-0.04425048828125;-1.0203094482421875;-0.043601538985967636;-0.05786942318081856;0.0024117587599903345
0.0155181884765625;-0.04425048828125;-1.0203094482421875;-0.03146577998995781;-0.060559749603271484;0.0052078114822506905
0.014892578125;-0.0478363037109375;-1.0256805419921875;-0.03146577998995781;-0.060559749603271484;0.0052078114822506905
0.014892578125;-0.0478363037109375;-1.0256805419921875;-0.03146577998995781;-0.060559749603271484;0.0052078114822506905
0.014892578125;-0.0478363037109375;-1.0256805419921875;-0.03146577998995781;-0.060559749603271484;0.0052078114822506905
0.014892578125;-0.0478363037109375;-1.0256805419921875;-0.03146577998995781;-0.060559749603271484;0.0052078114822506905
0.014892578125;-0.0478363037109375;-1.0256805419921875;-0.030289461836218834;-0.0568678081035614;0.006138053722679615
0.013519287109375;-0.0513153076171875;-1.026397705078125;-0.030289461836218834;-0.0568678081035614;0.006138053722679615
0.013519287109375;-0.0513153076171875;-1.026397705078125;-0.030289461836218834;-0.0568678081035614;0.006138053722679615
0.013519287109375;-0.0513153076171875;-1.026397705078125;-0.030289461836218834;-0.0568678081035614;0.006138053722679615
0.013519287109375;-0.0513153076171875;-1.026397705078125;-0.030289461836218834;-0.0568678081035614;0.006138053722679615
0.013519287109375;-0.0513153076171875;-1.026397705078125;-0.036005936563014984;-0.04228540509939194;0.009463809430599213
0.012969970703125;-0.0537872314453125;-1.0217437744140625;-0.036005936563014984;-0.04228540509939194;0.009463809430599213
0.012969970703125;-0.0537872314453125;-1.0217437744140625;-0.036005936563014984;-0.04228540509939194;0.009463809430599213
0.012969970703125;-0.0537872314453125;-1.0217437744140625;-0.036005936563014984;-0.04228540509939194;0.009463809430599213
0.012969970703125;-0.0537872314453125;-1.0217437744140625;-0.0484844446182251;-0.031195469200611115;0.008534632623195648
0.012969970703125;-0.0537872314453125;-1.0217437744140625;-0.0484844446182251;-0.031195469200611115;0.008534632623195648
0.0123138427734375;-0.0537261962890625;-1.0130615234375;-0.0484844446182251;-0.031195469200611115;0.008534632623195648
0.0123138427734375;-0.0537261962890625;-1.0130615234375;-0.0484844446182251;-0.031195469200611115;0.008534632623195648
0.0123138427734375;-0.0537261962890625;-1.0130615234375;-0.0484844446182251;-0.031195469200611115;0.008534632623195648
0.0123138427734375;-0.0537261962890625;-1.0130615234375;-0.055144477635622025;-0.02273593842983246;0.012146145105361938
0.0123138427734375;-0.0537261962890625;-1.0130615234375;-0.055144477635622025;-0.02273593842983246;0.012146145105361938
0.012176513671875;-0.0527801513671875;-1.0101470947265625;-0.055144477635622025;-0.02273593842983246;0.012146145105361938
0.012176513671875;-0.0527801513671875;-1.0101470947265625;-0.055144477635622025;-0.02273593842983246;0.012146145105361938
0.012176513671875;-0.0527801513671875;-1.0101470947265625;-0.055144477635622025;-0.02273593842983246;0.012146145105361938
0.012176513671875;-0.0527801513671875;-1.0101470947265625;-0.055144477635622025;-0.02273593842983246;0.012146145105361938
0.013397216796875;-0.050262451171875;-1.0128021240234375;-0.04793583229184151;-0.023199329152703285;0.008174040354788303
0.013397216796875;-0.050262451171875;-1.0128021240234375;-0.04793583229184151;-0.023199329152703285;0.008174040354788303
0.013397216796875;-0.050262451171875;-1.0128021240234375;-0.04793583229184151;-0.023199329152703285;0.008174040354788303
0.013397216796875;-0.050262451171875;-1.0128021240234375;-0.04793583229184151;-0.023199329152703285;0.008174040354788303
0.013397216796875;-0.050262451171875;-1.0128021240234375;-0.03428313881158829;-0.01685488037765026;0.007908256724476814
0.013397216796875;-0.050262451171875;-1.0128021240234375;-0.03428313881158829;-0.01685488037765026;0.007908256724476814
0.013580322265625;-0.0474090576171875;-1.01788330078125;-0.03428313881158829;-0.01685488037765026;0.007908256724476814
0.013580322265625;-0.0474090576171875;-1.01788330078125;-0.03428313881158829;-0.01685488037765026;0.007908256724476814
0.013580322265625;-0.0474090576171875;-1.01788330078125;-0.03428313881158829;-0.01685488037765026;0.007908256724476814
0.013580322265625;-0.0474090576171875;-1.01788330078125;-0.021889586001634598;-0.0172671377658844;0.006074670236557722
0.0127410888671875;-0.04547119140625;-1.0198822021484375;-0.021889586001634598;-0.0172671377658844;0.006074670236557722
0.0127410888671875;-0.04547119140625;-1.0198822021484375;-0.021889586001634598;-0.0172671377658844;0.006074670236557722
0.0127410888671875;-0.04547119140625;-1.0198822021484375;-0.021889586001634598;-0.0172671377658844;0.006074670236557722
0.0127410888671875;-0.04547119140625;-1.0198822021484375;-0.021889586001634598;-0.0172671377658844;0.006074670236557722
0.0127410888671875;-0.04547119140625;-1.0198822021484375;-0.024649154394865036;-0.01992310769855976;0.002581668319180608
0.0131988525390625;-0.044952392578125;-1.0170745849609375;-0.024649154394865036;-0.01992310769855976;0.002581668319180608
0.0131988525390625;-0.044952392578125;-1.0170745849609375;-0.024649154394865036;-0.01992310769855976;0.002581668319180608
0.0131988525390625;-0.044952392578125;-1.0170745849609375;-0.024649154394865036;-0.01992310769855976;0.002581668319180608
0.0131988525390625;-0.044952392578125;-1.0170745849609375;-0.024649154394865036;-0.01992310769855976;0.002581668319180608
0.0131988525390625;-0.044952392578125;-1.0170745849609375;-0.029580796137452126;-0.024389229714870453;0.0011576761025935411
0.0138092041015625;-0.045196533203125;-1.011444091796875;-0.029580796137452126;-0.024389229714870453;0.0011576761025935411
0.0138092041015625;-0.045196533203125;-1.011444091796875;-0.029580796137452126;-0.024389229714870453;0.0011576761025935411
0.0138092041015625;-0.045196533203125;-1.011444091796875;-0.029580796137452126;-0.024389229714870453;0.0011576761025935411
0.0138092041015625;-0.045196533203125;-1.011444091796875;-0.029580796137452126;-0.024389229714870453;0.0011576761025935411
0.0138092041015625;-0.045196533203125;-1.011444091796875;-0.035902608186006546;-0.0214775949716568;0.00185063062235713
0.0136566162109375;-0.0463104248046875;-1.0105133056640625;-0.035902608186006546;-0.0214775949716568;0.00185063062235713
0.0136566162109375;-0.0463104248046875;-1.0105133056640625;-0.035902608186006546;-0.0214775949716568;0.00185063062235713
0.0136566162109375;-0.0463104248046875;-1.0105133056640625;-0.035902608186006546;-0.0214775949716568;0.00185063062235713
0.0136566162109375;-0.0463104248046875;-1.0105133056640625;-0.035902608186006546;-0.0214775949716568;0.00185063062235713
0.0136566162109375;-0.0463104248046875;-1.0105133056640625;-0.028483573347330093;-0.018610436469316483;0.001115864492021501
0.0142822265625;-0.045318603515625;-1.011383056640625;-0.028483573347330093;-0.018610436469316483;0.001115864492021501
0.0142822265625;-0.045318603515625;-1.011383056640625;-0.028483573347330093;-0.018610436469316483;0.001115864492021501
0.0142822265625;-0.045318603515625;-1.011383056640625;-0.028483573347330093;-0.018610436469316483;0.001115864492021501
0.0142822265625;-0.045318603515625;-1.011383056640625;-0.028483573347330093;-0.018610436469316483;0.001115864492021501
0.0142822265625;-0.045318603515625;-1.011383056640625;-0.024277109652757645;-0.013480122201144695;-0.0013110742438584566
0.015472412109375;-0.0447998046875;-1.0140838623046875;-0.024277109652757645;-0.013480122201144695;-0.0013110742438584566
0.015472412109375;-0.0447998046875;-1.0140838623046875;-0.024277109652757645;-0.013480122201144695;-0.0013110742438584566
0.015472412109375;-0.0447998046875;-1.0140838623046875;-0.024277109652757645;-0.013480122201144695;-0.0013110742438584566
0.015472412109375;-0.0447998046875;-1.0140838623046875;-0.024277109652757645;-0.013480122201144695;-0.0013110742438584566
0.015472412109375;-0.0447998046875;-1.0140838623046875;-0.02377137541770935;-0.009591108188033104;-0.0006151901907287538
0.01678466796875;-0.045440673828125;-1.01458740234375;-0.02377137541770935;-0.009591108188033104;-0.0006151901907287538
0.01678466796875;-0.045440673828125;-1.01458740234375;-0.02377137541770935;-0.009591108188033104;-0.0006151901907287538
0.01678466796875;-0.045440673828125;-1.01458740234375;-0.02377137541770935;-0.009591108188033104;-0.0006151901907287538
0.01678466796875;-0.045440673828125;-1.01458740234375;-0.02377137541770935;-0.009591108188033104;-0.0006151901907287538
0.01678466796875;-0.045440673828125;-1.01458740234375;-0.028658809140324593;-0.013909956440329552;0.0014101437991485
0.0171051025390625;-0.04547119140625;-1.0141143798828125;-0.028658809140324593;-0.013909956440329552;0.0014101437991485
0.0171051025390625;-0.04547119140625;-1.0141143798828125;-0.028658809140324593;-0.013909956440329552;0.0014101437991485
0.0171051025390625;-0.04547119140625;-1.0141143798828125;-0.028658809140324593;-0.013909956440329552;0.0014101437991485
0.0171051025390625;-0.04547119140625;-1.0141143798828125;-0.028658809140324593;-0.013909956440329552;0.0014101437991485
0.0171051025390625;-0.04547119140625;-1.0141143798828125;-0.028728317469358444;-0.01793292723596096;0.0018245317041873932
0.017120361328125;-0.0463409423828125;-1.014068603515625;-0.028728317469358444;-0.01793292723596096;0.0018245317041873932
0.017120361328125;-0.0463409423828125;-1.014068603515625;-0.028728317469358444;-0.01793292723596096;0.0018245317041873932
0.017120361328125;-0.0463409423828125;-1.014068603515625;-0.028728317469358444;-0.01793292723596096;0.0018245317041873932
0.017120361328125;-0.0463409423828125;-1.014068603515625;-0.028728317469358444;-0.01793292723596096;0.0018245317041873932
0.017120361328125;-0.0463409423828125;-1.014068603515625;-0.027829233556985855;-0.018608305603265762;-0.0006045375484973192
0.0146942138671875;-0.0451812744140625;-1.015838623046875;-0.027829233556985855;-0.018608305603265762;-0.0006045375484973192
0.0146942138671875;-0.0451812744140625;-1.015838623046875;-0.027829233556985855;-0.018608305603265762;-0.0006045375484973192
0.0146942138671875;-0.0451812744140625;-1.015838623046875;-0.027829233556985855;-0.018608305603265762;-0.0006045375484973192
0.0146942138671875;-0.0451812744140625;-1.015838623046875;-0.027829233556985855;-0.018608305603265762;-0.0006045375484973192
0.0146942138671875;-0.0451812744140625;-1.015838623046875;-0.024593226611614227;-0.013502758927643299;0.0017574200173839927
0.0142974853515625;-0.044189453125;-1.016448974609375;-0.024593226611614227;-0.013502758927643299;0.0017574200173839927
0.0142974853515625;-0.044189453125;-1.016448974609375;-0.024593226611614227;-0.013502758927643299;0.0017574200173839927
0.0142974853515625;-0.044189453125;-1.016448974609375;-0.024593226611614227;-0.013502758927643299;0.0017574200173839927
0.0142974853515625;-0.044189453125;-1.016448974609375;-0.024593226611614227;-0.013502758927643299;0.0017574200173839927
0.0142974853515625;-0.044189453125;-1.016448974609375;-0.026129605248570442;-0.01167583093047142;0.002080195117741823
0.0137176513671875;-0.0446014404296875;-1.0164337158203125;-0.026129605248570442;-0.01167583093047142;0.002080195117741823
0.0137176513671875;-0.0446014404296875;-1.0164337158203125;-0.026129605248570442;-0.01167583093047142;0.002080195117741823
0.0137176513671875;-0.0446014404296875;-1.0164337158203125;-0.026129605248570442;-0.01167583093047142;0.002080195117741823
0.0137176513671875;-0.0446014404296875;-1.0164337158203125;-0.026129605248570442;-0.01167583093047142;0.002080195117741823
0.0137176513671875;-0.0446014404296875;-1.0164337158203125;-0.029348833486437798;-0.008450476452708244;0.0006087986403144896
0.0140380859375;-0.0445404052734375;-1.0137481689453125;-0.029348833486437798;-0.008450476452708244;0.0006087986403144896
0.0140380859375;-0.0445404052734375;-1.0137481689453125;-0.029348833486437798;-0.008450476452708244;0.0006087986403144896
0.0140380859375;-0.0445404052734375;-1.0137481689453125;-0.029348833486437798;-0.008450476452708244;0.0006087986403144896
0.0140380859375;-0.0445404052734375;-1.0137481689453125;-0.029348833486437798;-0.008450476452708244;0.0006087986403144896
0.0140380859375;-0.0445404052734375;-1.0137481689453125;-0.03141944110393524;-0.0017915084026753902;0.0016498282784596086
0.0142974853515625;-0.0447845458984375;-1.0120086669921875;-0.03141944110393524;-0.0017915084026753902;0.0016498282784596086
0.0142974853515625;-0.0447845458984375;-1.0120086669921875;-0.03141944110393524;-0.0017915084026753902;0.0016498282784596086
0.0142974853515625;-0.0447845458984375;-1.0120086669921875;-0.03141944110393524;-0.0017915084026753902;0.0016498282784596086
0.0142974853515625;-0.0447845458984375;-1.0120086669921875;-0.03141944110393524;-0.0017915084026753902;0.0016498282784596086
0.0142974853515625;-0.0447845458984375;-1.0120086669921875;-0.03284263610839844;-0.0013976269401609898;0.0030575753189623356
0.0142974853515625;-0.0445709228515625;-1.0124969482421875;-0.03284263610839844;-0.0013976269401609898;0.0030575753189623356
0.0142974853515625;-0.0445709228515625;-1.0124969482421875;-0.03284263610839844;-0.0013976269401609898;0.0030575753189623356
0.0142974853515625;-0.0445709228515625;-1.0124969482421875;-0.03284263610839844;-0.0013976269401609898;0.0030575753189623356
0.0142974853515625;-0.0445709228515625;-1.0124969482421875;-0.03284263610839844;-0.0013976269401609898;0.0030575753189623356
0.0142974853515625;-0.0445709228515625;-1.0124969482421875;-0.030896130949258804;0.0001877528557088226;0.006142048165202141
0.0123291015625;-0.0437469482421875;-1.0140380859375;-0.030896130949258804;0.0001877528557088226;0.006142048165202141
0.0123291015625;-0.0437469482421875;-1.0140380859375;-0.030896130949258804;0.0001877528557088226;0.006142048165202141
0.0123291015625;-0.0437469482421875;-1.0140380859375;-0.030896130949258804;0.0001877528557088226;0.006142048165202141
0.0123291015625;-0.0437469482421875;-1.0140380859375;-0.030896130949258804;0.0001877528557088226;0.006142048165202141
0.0123291015625;-0.0437469482421875;-1.0140380859375;-0.030109699815511703;-0.004828311037272215;0.005152417812496424
0.011688232421875;-0.0429229736328125;-1.015777587890625;-0.030109699815511703;-0.004828311037272215;0.005152417812496424
0.011688232421875;-0.0429229736328125;-1.015777587890625;-0.030109699815511703;-0.004828311037272215;0.005152417812496424
0.011688232421875;-0.0429229736328125;-1.015777587890625;-0.030109699815511703;-0.004828311037272215;0.005152417812496424
0.011688232421875;-0.0429229736328125;-1.015777587890625;-0.030109699815511703;-0.004828311037272215;0.005152417812496424
0.011688232421875;-0.0429229736328125;-1.015777587890625;-0.02743189036846161;-0.004004328977316618;0.003982757218182087
0.0107269287109375;-0.042327880859375;-1.0148773193359375;-0.02743189036846161;-0.004004328977316618;0.003982757218182087
0.0107269287109375;-0.042327880859375;-1.0148773193359375;-0.02743189036846161;-0.004004328977316618;0.003982757218182087
0.0107269287109375;-0.042327880859375;-1.0148773193359375;-0.02743189036846161;-0.004004328977316618;0.003982757218182087
0.0107269287109375;-0.042327880859375;-1.0148773193359375;-0.02743189036846161;-0.004004328977316618;0.003982757218182087
0.0107269287109375;-0.042327880859375;-1.0148773193359375;-0.02526780590415001;-0.0046815709210932255;0.003644003299996257
0.010009765625;-0.041656494140625;-1.014892578125;-0.02526780590415001;-0.0046815709210932255;0.003644003299996257
0.010009765625;-0.041656494140625;-1.014892578125;-0.02526780590415001;-0.0046815709210932255;0.003644003299996257
0.010009765625;-0.041656494140625;-1.014892578125;-0.02526780590415001;-0.0046815709210932255;0.003644003299996257
0.010009765625;-0.041656494140625;-1.014892578125;-0.02526780590415001;-0.0046815709210932255;0.003644003299996257
0.010009765625;-0.041656494140625;-1.014892578125;-0.025672074407339096;-0.005090366117656231;0.001115598133765161
0.0093994140625;-0.0405426025390625;-1.0145263671875;-0.025672074407339096;-0.005090366117656231;0.001115598133765161
0.0093994140625;-0.0405426025390625;-1.0145263671875;-0.025672074407339096;-0.005090366117656231;0.001115598133765161
0.0093994140625;-0.0405426025390625;-1.0145263671875;-0.025672074407339096;-0.005090366117656231;0.001115598133765161
0.0093994140625;-0.0405426025390625;-1.0145263671875;-0.025672074407339096;-0.005090366117656231;0.001115598133765161
0.0093994140625;-0.0405426025390625;-1.0145263671875;-0.02485661394894123;-0.0011704593198373914;-0.00037497308221645653
0.0102996826171875;-0.039947509765625;-1.01580810546875;-0.02485661394894123;-0.0011704593198373914;-0.00037497308221645653
0.0102996826171875;-0.039947509765625;-1.01580810546875;-0.02485661394894123;-0.0011704593198373914;-0.00037497308221645653
0.0102996826171875;-0.039947509765625;-1.01580810546875;-0.02485661394894123;-0.0011704593198373914;-0.00037497308221645653
0.0102996826171875;-0.039947509765625;-1.01580810546875;-0.02485661394894123;-0.0011704593198373914;-0.00037497308221645653
0.0102996826171875;-0.039947509765625;-1.01580810546875;-0.021630726754665375;-0.0020764668006449938;-0.0027987160719931126
0.0102996826171875;-0.039947509765625;-1.01580810546875;-0.021630726754665375;-0.0020764668006449938;-0.0027987160719931126
0.011077880859375;-0.0391998291015625;-1.0151519775390625;-0.021630726754665375;-0.0020764668006449938;-0.0027987160719931126
0.011077880859375;-0.0391998291015625;-1.0151519775390625;-0.021630726754665375;-0.0020764668006449938;-0.0027987160719931126
0.011077880859375;-0.0391998291015625;-1.0151519775390625;-0.021630726754665375;-0.0020764668006449938;-0.0027987160719931126
0.011077880859375;-0.0391998291015625;-1.0151519775390625;-0.01937183365225792;-0.003108441596850753;-0.0029145635198801756
0.0116119384765625;-0.039703369140625;-1.0166015625;-0.01937183365225792;-0.003108441596850753;-0.0029145635198801756
0.0116119384765625;-0.039703369140625;-1.0166015625;-0.01937183365225792;-0.003108441596850753;-0.0029145635198801756
0.0116119384765625;-0.039703369140625;-1.0166015625;-0.016768326982855797;-0.007952732034027576;-0.003319896524772048
0.0114288330078125;-0.0395050048828125;-1.0168609619140625;-0.016768326982855797;-0.007952732034027576;-0.003319896524772048
0.0114288330078125;-0.0395050048828125;-1.0168609619140625;-0.016768326982855797;-0.007952732034027576;-0.003319896524772048
0.0114288330078125;-0.0395050048828125;-1.0168609619140625;-0.016768326982855797;-0.007952732034027576;-0.003319896524772048
0.0114288330078125;-0.0395050048828125;-1.0168609619140625;-0.016768326982855797;-0.007952732034027576;-0.003319896524772048
0.0114288330078125;-0.0395050048828125;-1.0168609619140625;-0.016768326982855797;-0.007952732034027576;-0.003319896524772048
0.0114288330078125;-0.0395050048828125;-1.0168609619140625;-0.019355054944753647;-0.003936418332159519;-0.0018069547368213534
0.01348876953125;-0.0395965576171875;-1.0149078369140625;-0.019355054944753647;-0.003936418332159519;-0.0018069547368213534
0.01348876953125;-0.0395965576171875;-1.0149078369140625;-0.019355054944753647;-0.003936418332159519;-0.0018069547368213534
0.01348876953125;-0.0395965576171875;-1.0149078369140625;-0.019355054944753647;-0.003936418332159519;-0.0018069547368213534
0.01348876953125;-0.0395965576171875;-1.0149078369140625;-0.019355054944753647;-0.003936418332159519;-0.0018069547368213534
0.01348876953125;-0.0395965576171875;-1.0149078369140625;-0.018483402207493782;0.004758536349982023;-0.002427471335977316
0.0131072998046875;-0.0401153564453125;-1.011810302734375;-0.018483402207493782;0.004758536349982023;-0.002427471335977316
0.0131072998046875;-0.0401153564453125;-1.011810302734375;-0.018483402207493782;0.004758536349982023;-0.002427471335977316
0.0131072998046875;-0.0401153564453125;-1.011810302734375;-0.018483402207493782;0.004758536349982023;-0.002427471335977316
0.0131072998046875;-0.0401153564453125;-1.011810302734375;-0.018483402207493782;0.004758536349982023;-0.002427471335977316
0.0131072998046875;-0.0401153564453125;-1.011810302734375;-0.020426977425813675;-0.0011856392957270145;0.002855707658454776
0.013397216796875;-0.0399932861328125;-1.0111541748046875;-0.020426977425813675;-0.0011856392957270145;0.002855707658454776
0.013397216796875;-0.0399932861328125;-1.0111541748046875;-0.020426977425813675;-0.0011856392957270145;0.002855707658454776
0.013397216796875;-0.0399932861328125;-1.0111541748046875;-0.020426977425813675;-0.0011856392957270145;0.002855707658454776
0.013397216796875;-0.0399932861328125;-1.0111541748046875;-0.020426977425813675;-0.0011856392957270145;0.002855707658454776
0.013397216796875;-0.0399932861328125;-1.0111541748046875;-0.010900318622589111;-0.006170277949422598;0.0011086739832535386
0.0132598876953125;-0.0396728515625;-1.0160369873046875;-0.010900318622589111;-0.006170277949422598;0.0011086739832535386
0.0132598876953125;-0.0396728515625;-1.0160369873046875;-0.010900318622589111;-0.006170277949422598;0.0011086739832535386
0.0132598876953125;-0.0396728515625;-1.0160369873046875;-0.010900318622589111;-0.006170277949422598;0.0011086739832535386
0.0132598876953125;-0.0396728515625;-1.0160369873046875;-0.010900318622589111;-0.006170277949422598;0.0011086739832535386
0.0132598876953125;-0.0396728515625;-1.0160369873046875;-0.01074026245623827;-0.008875250816345215;0.002156627830117941
0.012603759765625;-0.040252685546875;-1.0199737548828125;-0.01074026245623827;-0.008875250816345215;0.002156627830117941
0.012603759765625;-0.040252685546875;-1.0199737548828125;-0.01074026245623827;-0.008875250816345215;0.002156627830117941
0.012603759765625;-0.040252685546875;-1.0199737548828125;-0.01074026245623827;-0.008875250816345215;0.002156627830117941
0.012603759765625;-0.040252685546875;-1.0199737548828125;-0.01074026245623827;-0.008875250816345215;0.002156627830117941
0.012603759765625;-0.040252685546875;-1.0199737548828125;-0.015044462867081165;-0.006202502176165581;0.0012327772565186024
0.0120697021484375;-0.0413665771484375;-1.0167999267578125;-0.015044462867081165;-0.006202502176165581;0.0012327772565186024
0.0120697021484375;-0.0413665771484375;-1.0167999267578125;-0.015044462867081165;-0.006202502176165581;0.0012327772565186024
0.0120697021484375;-0.0413665771484375;-1.0167999267578125;-0.015044462867081165;-0.006202502176165581;0.0012327772565186024
0.0120697021484375;-0.0413665771484375;-1.0167999267578125;-0.015044462867081165;-0.006202502176165581;0.0012327772565186024
0.0120697021484375;-0.0413665771484375;-1.0167999267578125;-0.013088371604681015;-0.005164934787899256;0.0029846045654267073
0.0123748779296875;-0.0425262451171875;-1.012359619140625;-0.013088371604681015;-0.005164934787899256;0.0029846045654267073
0.0123748779296875;-0.0425262451171875;-1.012359619140625;-0.013088371604681015;-0.005164934787899256;0.0029846045654267073
0.0123748779296875;-0.0425262451171875;-1.012359619140625;-0.013088371604681015;-0.005164934787899256;0.0029846045654267073
0.0123748779296875;-0.0425262451171875;-1.012359619140625;-0.013088371604681015;-0.005164934787899256;0.0029846045654267073
0.0123748779296875;-0.0425262451171875;-1.012359619140625;-0.01546684093773365;-0.011109109967947006;0.0017590179340913892
0.012451171875;-0.042633056640625;-1.01348876953125;-0.01546684093773365;-0.011109109967947006;0.0017590179340913892
0.012451171875;-0.042633056640625;-1.01348876953125;-0.01546684093773365;-0.011109109967947006;0.0017590179340913892
0.012451171875;-0.042633056640625;-1.01348876953125;-0.01546684093773365;-0.011109109967947006;0.0017590179340913892
0.012451171875;-0.042633056640625;-1.01348876953125;-0.01546684093773365;-0.011109109967947006;0.0017590179340913892
0.012451171875;-0.042633056640625;-1.01348876953125;-0.012703278101980686;-0.006045375484973192;0.0025545042008161545
0.0145263671875;-0.0416259765625;-1.0140380859375;-0.012703278101980686;-0.006045375484973192;0.0025545042008161545
0.0145263671875;-0.0416259765625;-1.0140380859375;-0.012703278101980686;-0.006045375484973192;0.0025545042008161545
0.0145263671875;-0.0416259765625;-1.0140380859375;-0.012703278101980686;-0.006045375484973192;0.0025545042008161545
0.0145263671875;-0.0416259765625;-1.0140380859375;-0.010750115849077702;0.03177044540643692;0.0013009541435167193
0.0145263671875;-0.0416259765625;-1.0140380859375;-0.010750115849077702;0.03177044540643692;0.0013009541435167193
0.0135345458984375;-0.04071044921875;-1.004638671875;-0.010750115849077702;0.03177044540643692;0.0013009541435167193
0.0135345458984375;-0.04071044921875;-1.004638671875;-0.010750115849077702;0.03177044540643692;0.0013009541435167193
0.0135345458984375;-0.04071044921875;-1.004638671875;-0.010750115849077702;0.03177044540643692;0.0013009541435167193
0.0135345458984375;-0.04071044921875;-1.004638671875;-0.010750115849077702;0.03177044540643692;0.0013009541435167193
0.0135345458984375;-0.04071044921875;-1.004638671875;-0.00538571085780859;0.01667937822639942;-0.00013182646944187582
0.013885498046875;-0.0399017333984375;-0.994415283203125;-0.00538571085780859;0.01667937822639942;-0.00013182646944187582
0.013885498046875;-0.0399017333984375;-0.994415283203125;-0.00538571085780859;0.01667937822639942;-0.00013182646944187582
0.013885498046875;-0.0399017333984375;-0.994415283203125;-0.00538571085780859;0.01667937822639942;-0.00013182646944187582
0.013885498046875;-0.0399017333984375;-0.994415283203125;0.012294483371078968;-0.022003302350640297;2.2636868379777297e-05
0.013885498046875;-0.0399017333984375;-0.994415283203125;0.012294483371078968;-0.022003302350640297;2.2636868379777297e-05
0.0144500732421875;-0.0376739501953125;-1.0211944580078125;0.012294483371078968;-0.022003302350640297;2.2636868379777297e-05
0.0144500732421875;-0.0376739501953125;-1.0211944580078125;0.012294483371078968;-0.022003302350640297;2.2636868379777297e-05
0.0144500732421875;-0.0376739501953125;-1.0211944580078125;0.012294483371078968;-0.022003302350640297;2.2636868379777297e-05
0.0144500732421875;-0.0376739501953125;-1.0211944580078125;0.01230460312217474;-0.04540769383311272;0.003054911969229579
0.0144500732421875;-0.0376739501953125;-1.0211944580078125;0.01230460312217474;-0.04540769383311272;0.003054911969229579
0.0114288330078125;-0.035797119140625;-1.0393829345703125;0.01230460312217474;-0.04540769383311272;0.003054911969229579
0.0114288330078125;-0.035797119140625;-1.0393829345703125;0.01230460312217474;-0.04540769383311272;0.003054911969229579
0.0114288330078125;-0.035797119140625;-1.0393829345703125;0.01230460312217474;-0.04540769383311272;0.003054911969229579
0.0114288330078125;-0.035797119140625;-1.0393829345703125;-0.001973402453586459;-0.048893239349126816;0.006851247977465391
0.0114288330078125;-0.035797119140625;-1.0393829345703125;-0.001973402453586459;-0.048893239349126816;0.006851247977465391
0.011260986328125;-0.0372314453125;-1.0258941650390625;-0.001973402453586459;-0.048893239349126816;0.006851247977465391
0.011260986328125;-0.0372314453125;-1.0258941650390625;-0.001973402453586459;-0.048893239349126816;0.006851247977465391
0.011260986328125;-0.0372314453125;-1.0258941650390625;-0.001973402453586459;-0.048893239349126816;0.006851247977465391
0.011260986328125;-0.0372314453125;-1.0258941650390625;-0.01690121926367283;-0.035115908831357956;0.007678958587348461
0.011260986328125;-0.0372314453125;-1.0258941650390625;-0.01690121926367283;-0.035115908831357956;0.007678958587348461
0.008941650390625;-0.0373687744140625;-1.0056915283203125;-0.01690121926367283;-0.035115908831357956;0.007678958587348461
0.008941650390625;-0.0373687744140625;-1.0056915283203125;-0.01690121926367283;-0.035115908831357956;0.007678958587348461
0.008941650390625;-0.0373687744140625;-1.0056915283203125;-0.01690121926367283;-0.035115908831357956;0.007678958587348461
0.008941650390625;-0.0373687744140625;-1.0056915283203125;-0.022313294932246208;-0.02184404619038105;0.007770571392029524
0.008941650390625;-0.0373687744140625;-1.0056915283203125;-0.022313294932246208;-0.02184404619038105;0.007770571392029524
0.0099945068359375;-0.0381927490234375;-0.993896484375;-0.022313294932246208;-0.02184404619038105;0.007770571392029524
0.0099945068359375;-0.0381927490234375;-0.993896484375;-0.022313294932246208;-0.02184404619038105;0.007770571392029524
0.0099945068359375;-0.0381927490234375;-0.993896484375;-0.022313294932246208;-0.02184404619038105;0.007770571392029524
0.0099945068359375;-0.0381927490234375;-0.993896484375;8.122641156660393e-05;-0.03116297908127308;0.004840295296162367
0.01123046875;-0.0377044677734375;-1.0025634765625;8.122641156660393e-05;-0.03116297908127308;0.004840295296162367
0.01123046875;-0.0377044677734375;-1.0025634765625;8.122641156660393e-05;-0.03116297908127308;0.004840295296162367
0.01123046875;-0.0377044677734375;-1.0025634765625;8.122641156660393e-05;-0.03116297908127308;0.004840295296162367
0.01123046875;-0.0377044677734375;-1.0025634765625;8.122641156660393e-05;-0.03116297908127308;0.004840295296162367
0.01123046875;-0.0377044677734375;-1.0025634765625;0.030300647020339966;-0.046191729605197906;0.0023529028985649347
0.012451171875;-0.035797119140625;-1.0200958251953125;0.030300647020339966;-0.046191729605197906;0.0023529028985649347
0.012451171875;-0.035797119140625;-1.0200958251953125;0.030300647020339966;-0.046191729605197906;0.0023529028985649347
0.012451171875;-0.035797119140625;-1.0200958251953125;0.030300647020339966;-0.046191729605197906;0.0023529028985649347
0.012451171875;-0.035797119140625;-1.0200958251953125;0.030300647020339966;-0.046191729605197906;0.0023529028985649347
0.012451171875;-0.035797119140625;-1.0200958251953125;0.047315582633018494;-0.05360277369618416;0.004860535264015198
0.01129150390625;-0.03594970703125;-1.0276947021484375;0.047315582633018494;-0.05360277369618416;0.004860535264015198
0.01129150390625;-0.03594970703125;-1.0276947021484375;0.047315582633018494;-0.05360277369618416;0.004860535264015198
0.01129150390625;-0.03594970703125;-1.0276947021484375;0.047315582633018494;-0.05360277369618416;0.004860535264015198
0.01129150390625;-0.03594970703125;-1.0276947021484375;0.047315582633018494;-0.05360277369618416;0.004860535264015198
0.01129150390625;-0.03594970703125;-1.0276947021484375;0.0442899651825428;-0.05342008173465729;0.004375840071588755
0.009735107421875;-0.0389404296875;-1.0297393798828125;0.0442899651825428;-0.05342008173465729;0.004375840071588755
0.009735107421875;-0.0389404296875;-1.0297393798828125;0.0442899651825428;-0.05342008173465729;0.004375840071588755
0.009735107421875;-0.0389404296875;-1.0297393798828125;0.0442899651825428;-0.05342008173465729;0.004375840071588755
0.009735107421875;-0.0389404296875;-1.0297393798828125;0.0442899651825428;-0.05342008173465729;0.004375840071588755
0.009735107421875;-0.0389404296875;-1.0297393798828125;0.022580675780773163;-0.04409422352910042;0.008371113799512386
0.0092620849609375;-0.04339599609375;-1.02398681640625;0.022580675780773163;-0.04409422352910042;0.008371113799512386
0.0092620849609375;-0.04339599609375;-1.02398681640625;0.022580675780773163;-0.04409422352910042;0.008371113799512386
0.0092620849609375;-0.04339599609375;-1.02398681640625;0.022580675780773163;-0.04409422352910042;0.008371113799512386
0.0092620849609375;-0.04339599609375;-1.02398681640625;0.022580675780773163;-0.04409422352910042;0.008371113799512386
0.0092620849609375;-0.04339599609375;-1.02398681640625;0.0027861990965902805;-0.030651919543743134;0.0033129723742604256
0.0092620849609375;-0.0494232177734375;-1.01416015625;0.0027861990965902805;-0.030651919543743134;0.0033129723742604256
0.0092620849609375;-0.0494232177734375;-1.01416015625;0.0027861990965902805;-0.030651919543743134;0.0033129723742604256
0.0092620849609375;-0.0494232177734375;-1.01416015625;0.0027861990965902805;-0.030651919543743134;0.0033129723742604256
0.0092620849609375;-0.0494232177734375;-1.01416015625;0.0027861990965902805;-0.030651919543743134;0.0033129723742604256
0.0092620849609375;-0.0494232177734375;-1.01416015625;-0.012471583671867847;-0.01599707640707493;0.00401471508666873
0.0076904296875;-0.0532989501953125;-1.0080718994140625;-0.012471583671867847;-0.01599707640707493;0.00401471508666873
0.0076904296875;-0.0532989501953125;-1.0080718994140625;-0.012471583671867847;-0.01599707640707493;0.00401471508666873
0.0076904296875;-0.0532989501953125;-1.0080718994140625;-0.012471583671867847;-0.01599707640707493;0.00401471508666873
0.0076904296875;-0.0532989501953125;-1.0080718994140625;-0.012471583671867847;-0.01599707640707493;0.00401471508666873
0.0076904296875;-0.0532989501953125;-1.0080718994140625;-0.011386078782379627;-0.013712616637349129;0.005536179058253765
0.0085296630859375;-0.052825927734375;-1.01116943359375;-0.011386078782379627;-0.013712616637349129;0.005536179058253765
0.0085296630859375;-0.052825927734375;-1.01116943359375;-0.011386078782379627;-0.013712616637349129;0.005536179058253765
0.0085296630859375;-0.052825927734375;-1.01116943359375;-0.011386078782379627;-0.013712616637349129;0.005536179058253765
0.0085296630859375;-0.052825927734375;-1.01116943359375;-0.011386078782379627;-0.013712616637349129;0.005536179058253765
0.0085296630859375;-0.052825927734375;-1.01116943359375;0.0037936728913336992;-0.012622850947082043;0.006450442597270012
0.0074310302734375;-0.0492095947265625;-1.0164031982421875;0.0037936728913336992;-0.012622850947082043;0.006450442597270012
0.0074310302734375;-0.0492095947265625;-1.0164031982421875;0.0037936728913336992;-0.012622850947082043;0.006450442597270012
0.0074310302734375;-0.0492095947265625;-1.0164031982421875;0.0037936728913336992;-0.012622850947082043;0.006450442597270012
0.0074310302734375;-0.0492095947265625;-1.0164031982421875;0.0037936728913336992;-0.012622850947082043;0.006450442597270012
0.0074310302734375;-0.0492095947265625;-1.0164031982421875;0.02027997188270092;-0.015362177975475788;0.00555056007578969
0.0068206787109375;-0.044097900390625;-1.018280029296875;0.02027997188270092;-0.015362177975475788;0.00555056007578969
0.0068206787109375;-0.044097900390625;-1.018280029296875;0.02027997188270092;-0.015362177975475788;0.00555056007578969
0.0068206787109375;-0.044097900390625;-1.018280029296875;0.02027997188270092;-0.015362177975475788;0.00555056007578969
0.0068206787109375;-0.044097900390625;-1.018280029296875;0.02027997188270092;-0.015362177975475788;0.00555056007578969
0.0068206787109375;-0.044097900390625;-1.018280029296875;0.03177444264292717;-0.015262575820088387;0.004065581597387791
0.0065765380859375;-0.038299560546875;-1.0194244384765625;0.03177444264292717;-0.015262575820088387;0.004065581597387791
0.0065765380859375;-0.038299560546875;-1.0194244384765625;0.03177444264292717;-0.015262575820088387;0.004065581597387791
0.0065765380859375;-0.038299560546875;-1.0194244384765625;0.03177444264292717;-0.015262575820088387;0.004065581597387791
0.0065765380859375;-0.038299560546875;-1.0194244384765625;0.03177444264292717;-0.015262575820088387;0.004065581597387791
0.0065765380859375;-0.038299560546875;-1.0194244384765625;0.039210785180330276;-0.012521384283900261;0.0038389465771615505
0.00811767578125;-0.03619384765625;-1.016326904296875;0.039210785180330276;-0.012521384283900261;0.0038389465771615505
0.00811767578125;-0.03619384765625;-1.016326904296875;0.039210785180330276;-0.012521384283900261;0.0038389465771615505
0.00811767578125;-0.03619384765625;-1.016326904296875;0.039210785180330276;-0.012521384283900261;0.0038389465771615505
0.00811767578125;-0.03619384765625;-1.016326904296875;0.039210785180330276;-0.012521384283900261;0.0038389465771615505
0.00811767578125;-0.03619384765625;-1.016326904296875;0.039074432104825974;-0.00974317453801632;0.0010772485984489322
0.00872802734375;-0.034576416015625;-1.013916015625;0.039074432104825974;-0.00974317453801632;0.0010772485984489322
0.00872802734375;-0.034576416015625;-1.013916015625;0.039074432104825974;-0.00974317453801632;0.0010772485984489322
0.00872802734375;-0.034576416015625;-1.013916015625;0.039074432104825974;-0.00974317453801632;0.0010772485984489322
0.00872802734375;-0.034576416015625;-1.013916015625;0.039074432104825974;-0.00974317453801632;0.0010772485984489322
0.00872802734375;-0.034576416015625;-1.013916015625;0.03900598734617233;-0.009230249561369419;-0.003965180367231369
0.0105133056640625;-0.03582763671875;-1.013153076171875;0.03900598734617233;-0.009230249561369419;-0.003965180367231369
0.0105133056640625;-0.03582763671875;-1.013153076171875;0.03900598734617233;-0.009230249561369419;-0.003965180367231369
0.0105133056640625;-0.03582763671875;-1.013153076171875;0.03900598734617233;-0.009230249561369419;-0.003965180367231369
0.0105133056640625;-0.03582763671875;-1.013153076171875;0.03900598734617233;-0.009230249561369419;-0.003965180367231369
0.0105133056640625;-0.03582763671875;-1.013153076171875;0.03641340136528015;-0.008887767791748047;-0.001478320686146617
0.0110321044921875;-0.036651611328125;-1.013946533203125;0.03641340136528015;-0.008887767791748047;-0.001478320686146617
0.0110321044921875;-0.036651611328125;-1.013946533203125;0.03641340136528015;-0.008887767791748047;-0.001478320686146617
0.0110321044921875;-0.036651611328125;-1.013946533203125;0.03641340136528015;-0.008887767791748047;-0.001478320686146617
0.0110321044921875;-0.036651611328125;-1.013946533203125;0.03641340136528015;-0.008887767791748047;-0.001478320686146617
0.0110321044921875;-0.036651611328125;-1.013946533203125;0.035954270511865616;-0.0145259452983737;-0.0030740867368876934
0.011566162109375;-0.038848876953125;-1.0157623291015625;0.035954270511865616;-0.0145259452983737;-0.0030740867368876934
0.011566162109375;-0.038848876953125;-1.0157623291015625;0.035954270511865616;-0.0145259452983737;-0.0030740867368876934
0.011566162109375;-0.038848876953125;-1.0157623291015625;0.035954270511865616;-0.0145259452983737;-0.0030740867368876934
0.011566162109375;-0.038848876953125;-1.0157623291015625;0.035954270511865616;-0.0145259452983737;-0.0030740867368876934
0.011566162109375;-0.038848876953125;-1.0157623291015625;0.03297259658575058;-0.015685485675930977;-0.002013882389292121
0.0111083984375;-0.041412353515625;-1.016387939453125;0.03297259658575058;-0.015685485675930977;-0.002013882389292121
0.0111083984375;-0.041412353515625;-1.016387939453125;0.03297259658575058;-0.015685485675930977;-0.002013882389292121
0.0111083984375;-0.041412353515625;-1.016387939453125;0.03297259658575058;-0.015685485675930977;-0.002013882389292121
0.0111083984375;-0.041412353515625;-1.016387939453125;0.03297259658575058;-0.015685485675930977;-0.002013882389292121
0.0111083984375;-0.041412353515625;-1.016387939453125;0.02961381897330284;-0.016743559390306473;-0.0021113541442900896
0.0110321044921875;-0.0429534912109375;-1.015106201171875;0.02961381897330284;-0.016743559390306473;-0.0021113541442900896
0.0110321044921875;-0.0429534912109375;-1.015106201171875;0.02961381897330284;-0.016743559390306473;-0.0021113541442900896
0.0110321044921875;-0.0429534912109375;-1.015106201171875;0.02961381897330284;-0.016743559390306473;-0.0021113541442900896
0.0110321044921875;-0.0429534912109375;-1.015106201171875;0.02961381897330284;-0.016743559390306473;-0.0021113541442900896
0.0110321044921875;-0.0429534912109375;-1.015106201171875;0.0246622022241354;-0.0179318618029356;-0.0014796522445976734
0.0098724365234375;-0.0445404052734375;-1.0128631591796875;0.0246622022241354;-0.0179318618029356;-0.0014796522445976734
0.0098724365234375;-0.0445404052734375;-1.0128631591796875;0.0246622022241354;-0.0179318618029356;-0.0014796522445976734
0.0098724365234375;-0.0445404052734375;-1.0128631591796875;0.0246622022241354;-0.0179318618029356;-0.0014796522445976734
0.0098724365234375;-0.0445404052734375;-1.0128631591796875;0.0246622022241354;-0.0179318618029356;-0.0014796522445976734
0.0098724365234375;-0.0445404052734375;-1.0128631591796875;0.023094933480024338;-0.01637631095945835;-0.003147589974105358
0.009185791015625;-0.044952392578125;-1.0126495361328125;0.023094933480024338;-0.01637631095945835;-0.003147589974105358
0.009185791015625;-0.044952392578125;-1.0126495361328125;0.023094933480024338;-0.01637631095945835;-0.003147589974105358
0.009185791015625;-0.044952392578125;-1.0126495361328125;0.023094933480024338;-0.01637631095945835;-0.003147589974105358
0.009185791015625;-0.044952392578125;-1.0126495361328125;0.023094933480024338;-0.01637631095945835;-0.003147589974105358
0.009185791015625;-0.044952392578125;-1.0126495361328125;0.026572754606604576;-0.017241571098566055;-0.00039547940832562745
0.007415771484375;-0.0454559326171875;-1.0140380859375;0.026572754606604576;-0.017241571098566055;-0.00039547940832562745
0.007415771484375;-0.0454559326171875;-1.0140380859375;0.026572754606604576;-0.017241571098566055;-0.00039547940832562745
0.007415771484375;-0.0454559326171875;-1.0140380859375;0.026572754606604576;-0.017241571098566055;-0.00039547940832562745
0.007415771484375;-0.0454559326171875;-1.0140380859375;0.026572754606604576;-0.017241571098566055;-0.00039547940832562745
0.007415771484375;-0.0454559326171875;-1.0140380859375;0.029863888397812843;-0.017002418637275696;-0.0020841897930949926
0.00653076171875;-0.045074462890625;-1.0146331787109375;0.029863888397812843;-0.017002418637275696;-0.0020841897930949926
0.00653076171875;-0.045074462890625;-1.0146331787109375;0.029863888397812843;-0.017002418637275696;-0.0020841897930949926
0.00653076171875;-0.045074462890625;-1.0146331787109375;0.029863888397812843;-0.017002418637275696;-0.0020841897930949926
0.00653076171875;-0.045074462890625;-1.0146331787109375;0.029863888397812843;-0.017002418637275696;-0.0020841897930949926
0.00653076171875;-0.045074462890625;-1.0146331787109375;0.0319448821246624;-0.016694556921720505;-0.0007267766632139683
0.00799560546875;-0.0445404052734375;-1.015716552734375;0.0319448821246624;-0.016694556921720505;-0.0007267766632139683
0.00799560546875;-0.0445404052734375;-1.015716552734375;0.0319448821246624;-0.016694556921720505;-0.0007267766632139683
0.00799560546875;-0.0445404052734375;-1.015716552734375;0.0319448821246624;-0.016694556921720505;-0.0007267766632139683
0.00799560546875;-0.0445404052734375;-1.015716552734375;0.0319448821246624;-0.016694556921720505;-0.0007267766632139683
0.00799560546875;-0.0445404052734375;-1.015716552734375;0.029828468337655067;-0.01763784885406494;-0.0015241270884871483
0.0095367431640625;-0.0470123291015625;-1.0170745849609375;0.029828468337655067;-0.01763784885406494;-0.0015241270884871483
0.0095367431640625;-0.0470123291015625;-1.0170745849609375;0.029828468337655067;-0.01763784885406494;-0.0015241270884871483
0.0095367431640625;-0.0470123291015625;-1.0170745849609375;0.029828468337655067;-0.01763784885406494;-0.0015241270884871483
0.0095367431640625;-0.0470123291015625;-1.0170745849609375;0.029828468337655067;-0.01763784885406494;-0.0015241270884871483
0.0095367431640625;-0.0470123291015625;-1.0170745849609375;0.025664350017905235;-0.02570296637713909;0.0005693838465958834
0.0094757080078125;-0.0481414794921875;-1.0179595947265625;0.025664350017905235;-0.02570296637713909;0.0005693838465958834
0.0094757080078125;-0.0481414794921875;-1.0179595947265625;0.025664350017905235;-0.02570296637713909;0.0005693838465958834
0.0094757080078125;-0.0481414794921875;-1.0179595947265625;0.025664350017905235;-0.02570296637713909;0.0005693838465958834
0.0094757080078125;-0.0481414794921875;-1.0179595947265625;0.025664350017905235;-0.02570296637713909;0.0005693838465958834
0.0094757080078125;-0.0481414794921875;-1.0179595947265625;0.018254904076457024;-0.03365303575992584;-0.001972070662304759
0.009796142578125;-0.049774169921875;-1.0175628662109375;0.018254904076457024;-0.03365303575992584;-0.001972070662304759
0.009796142578125;-0.049774169921875;-1.0175628662109375;0.018254904076457024;-0.03365303575992584;-0.001972070662304759
0.009796142578125;-0.049774169921875;-1.0175628662109375;0.018254904076457024;-0.03365303575992584;-0.001972070662304759
0.009796142578125;-0.049774169921875;-1.0175628662109375;0.018254904076457024;-0.03365303575992584;-0.001972070662304759
0.009796142578125;-0.049774169921875;-1.0175628662109375;0.009935721755027771;-0.027474766597151756;-0.0007653924985788763
0.0080413818359375;-0.0517730712890625;-1.0153045654296875;0.009935721755027771;-0.027474766597151756;-0.0007653924985788763
0.0080413818359375;-0.0517730712890625;-1.0153045654296875;0.009935721755027771;-0.027474766597151756;-0.0007653924985788763
0.0080413818359375;-0.0517730712890625;-1.0153045654296875;0.009935721755027771;-0.027474766597151756;-0.0007653924985788763
0.0080413818359375;-0.0517730712890625;-1.0153045654296875;0.009935721755027771;-0.027474766597151756;-0.0007653924985788763
0.0080413818359375;-0.0517730712890625;-1.0153045654296875;-0.005116997752338648;-0.007284278050065041;0.004995291121304035
0.00775146484375;-0.0537109375;-1.0121002197265625;-0.005116997752338648;-0.007284278050065041;0.004995291121304035
0.00775146484375;-0.0537109375;-1.0121002197265625;-0.005116997752338648;-0.007284278050065041;0.004995291121304035
0.00775146484375;-0.0537109375;-1.0121002197265625;-0.005116997752338648;-0.007284278050065041;0.004995291121304035
0.00775146484375;-0.0537109375;-1.0121002197265625;-0.005116997752338648;-0.007284278050065041;0.004995291121304035
0.00775146484375;-0.0537109375;-1.0121002197265625;-0.015994679182767868;-0.0034876756835728884;0.0033816818613559008
0.0070648193359375;-0.0538787841796875;-1.004058837890625;-0.015994679182767868;-0.0034876756835728884;0.0033816818613559008
0.0070648193359375;-0.0538787841796875;-1.004058837890625;-0.015994679182767868;-0.0034876756835728884;0.0033816818613559008
0.0070648193359375;-0.0538787841796875;-1.004058837890625;-0.015994679182767868;-0.0034876756835728884;0.0033816818613559008
0.0070648193359375;-0.0538787841796875;-1.004058837890625;-0.015994679182767868;-0.0034876756835728884;0.0033816818613559008
0.0070648193359375;-0.0538787841796875;-1.004058837890625;-0.007707454264163971;-0.022109029814600945;0.0010602044640108943
0.00714111328125;-0.051055908203125;-1.009002685546875;-0.007707454264163971;-0.022109029814600945;0.0010602044640108943
0.00714111328125;-0.051055908203125;-1.009002685546875;-0.007707454264163971;-0.022109029814600945;0.0010602044640108943
0.00714111328125;-0.051055908203125;-1.009002685546875;-0.007707454264163971;-0.022109029814600945;0.0010602044640108943
0.00714111328125;-0.051055908203125;-1.009002685546875;-0.007707454264163971;-0.022109029814600945;0.0010602044640108943
0.00714111328125;-0.051055908203125;-1.009002685546875;0.013555223122239113;-0.024415327236056328;-0.002046372974291444
0.0053558349609375;-0.045745849609375;-1.0204010009765625;0.013555223122239113;-0.024415327236056328;-0.002046372974291444
0.0053558349609375;-0.045745849609375;-1.0204010009765625;0.013555223122239113;-0.024415327236056328;-0.002046372974291444
0.0053558349609375;-0.045745849609375;-1.0204010009765625;0.013555223122239113;-0.024415327236056328;-0.002046372974291444
0.0053558349609375;-0.045745849609375;-1.0204010009765625;0.013555223122239113;-0.024415327236056328;-0.002046372974291444
0.0053558349609375;-0.045745849609375;-1.0204010009765625;0.027090739458799362;-0.020798489451408386;-0.0010149306617677212
0.002227783203125;-0.0422821044921875;-1.01708984375;0.027090739458799362;-0.020798489451408386;-0.0010149306617677212
0.002227783203125;-0.0422821044921875;-1.01708984375;0.027090739458799362;-0.020798489451408386;-0.0010149306617677212
0.002227783203125;-0.0422821044921875;-1.01708984375;0.027090739458799362;-0.020798489451408386;-0.0010149306617677212
0.002227783203125;-0.0422821044921875;-1.01708984375;0.027090739458799362;-0.020798489451408386;-0.0010149306617677212
0.002227783203125;-0.0422821044921875;-1.01708984375;0.0360858328640461;-0.017792312428355217;-0.004163053352385759
0.001983642578125;-0.040924072265625;-1.0126800537109375;0.0360858328640461;-0.017792312428355217;-0.004163053352385759
0.001983642578125;-0.040924072265625;-1.0126800537109375;0.0360858328640461;-0.017792312428355217;-0.004163053352385759
0.001983642578125;-0.040924072265625;-1.0126800537109375;0.0360858328640461;-0.017792312428355217;-0.004163053352385759
0.001983642578125;-0.040924072265625;-1.0126800537109375;0.0407937690615654;-0.024574851617217064;-0.003972371108829975
0.001983642578125;-0.040924072265625;-1.0126800537109375;0.0407937690615654;-0.024574851617217064;-0.003972371108829975
0.0039825439453125;-0.0414886474609375;-1.0117340087890625;0.0407937690615654;-0.024574851617217064;-0.003972371108829975
0.0039825439453125;-0.0414886474609375;-1.0117340087890625;0.0407937690615654;-0.024574851617217064;-0.003972371108829975
0.0039825439453125;-0.0414886474609375;-1.0117340087890625;0.0407937690615654;-0.024574851617217064;-0.003972371108829975
0.0039825439453125;-0.0414886474609375;-1.0117340087890625;0.04027818143367767;-0.023151924833655357;-0.001050084363669157
0.0039825439453125;-0.0414886474609375;-1.0117340087890625;0.04027818143367767;-0.023151924833655357;-0.001050084363669157
0.004547119140625;-0.0431976318359375;-1.0137786865234375;0.04027818143367767;-0.023151924833655357;-0.001050084363669157
0.004547119140625;-0.0431976318359375;-1.0137786865234375;0.04027818143367767;-0.023151924833655357;-0.001050084363669157
0.004547119140625;-0.0431976318359375;-1.0137786865234375;0.04027818143367767;-0.023151924833655357;-0.001050084363669157
0.004547119140625;-0.0431976318359375;-1.0137786865234375;0.037818752229213715;-0.02262701466679573;0.0029001825023442507
0.004547119140625;-0.0431976318359375;-1.0137786865234375;0.037818752229213715;-0.02262701466679573;0.0029001825023442507
0.00537109375;-0.046051025390625;-1.015716552734375;0.037818752229213715;-0.02262701466679573;0.0029001825023442507
0.00537109375;-0.046051025390625;-1.015716552734375;0.037818752229213715;-0.02262701466679573;0.0029001825023442507
0.00537109375;-0.046051025390625;-1.015716552734375;0.037818752229213715;-0.02262701466679573;0.0029001825023442507
0.00537109375;-0.046051025390625;-1.015716552734375;0.036496225744485855;-0.02359267696738243;0.00242107966914773
0.0034942626953125;-0.04901123046875;-1.017120361328125;0.036496225744485855;-0.02359267696738243;0.00242107966914773
0.0034942626953125;-0.04901123046875;-1.017120361328125;0.036496225744485855;-0.02359267696738243;0.00242107966914773
0.0034942626953125;-0.04901123046875;-1.017120361328125;0.036496225744485855;-0.02359267696738243;0.00242107966914773
0.0034942626953125;-0.04901123046875;-1.017120361328125;0.036496225744485855;-0.02359267696738243;0.00242107966914773
0.0034942626953125;-0.04901123046875;-1.017120361328125;0.038480013608932495;-0.023672040551900864;0.0017174725653603673
0.0034942626953125;-0.04901123046875;-1.017120361328125;0.038480013608932495;-0.023672040551900864;0.0017174725653603673
0.001861572265625;-0.0520782470703125;-1.0185546875;0.038480013608932495;-0.023672040551900864;0.0017174725653603673
0.001861572265625;-0.0520782470703125;-1.0185546875;0.038480013608932495;-0.023672040551900864;0.0017174725653603673
0.001861572265625;-0.0520782470703125;-1.0185546875;0.038480013608932495;-0.023672040551900864;0.0017174725653603673
0.001861572265625;-0.0520782470703125;-1.0185546875;0.03406156226992607;-0.020200610160827637;0.002779541304334998
0.00079345703125;-0.0540313720703125;-1.019989013671875;0.03406156226992607;-0.020200610160827637;0.002779541304334998
0.00079345703125;-0.0540313720703125;-1.019989013671875;0.03406156226992607;-0.020200610160827637;0.002779541304334998
0.00079345703125;-0.0540313720703125;-1.019989013671875;0.03406156226992607;-0.020200610160827637;0.002779541304334998
0.00079345703125;-0.0540313720703125;-1.019989013671875;0.03406156226992607;-0.020200610160827637;0.002779541304334998
0.00079345703125;-0.0540313720703125;-1.019989013671875;0.028309402987360954;-0.021462414413690567;0.0028735508676618338
0.000579833984375;-0.0542755126953125;-1.01812744140625;0.028309402987360954;-0.021462414413690567;0.0028735508676618338
0.000579833984375;-0.0542755126953125;-1.01812744140625;0.028309402987360954;-0.021462414413690567;0.0028735508676618338
0.000579833984375;-0.0542755126953125;-1.01812744140625;0.028309402987360954;-0.021462414413690567;0.0028735508676618338
0.000579833984375;-0.0542755126953125;-1.01812744140625;0.028309402987360954;-0.021462414413690567;0.0028735508676618338
0.000579833984375;-0.0542755126953125;-1.01812744140625;0.024119451642036438;-0.024657675996422768;0.0030570426024496555
0.0023040771484375;-0.0553436279296875;-1.0171051025390625;0.024119451642036438;-0.024657675996422768;0.0030570426024496555
0.0023040771484375;-0.0553436279296875;-1.0171051025390625;0.024119451642036438;-0.024657675996422768;0.0030570426024496555
0.0023040771484375;-0.0553436279296875;-1.0171051025390625;0.024119451642036438;-0.024657675996422768;0.0030570426024496555
0.0023040771484375;-0.0553436279296875;-1.0171051025390625;0.024119451642036438;-0.024657675996422768;0.0030570426024496555
0.0023040771484375;-0.0553436279296875;-1.0171051025390625;0.021223263815045357;-0.01805143803358078;0.0029675604309886694
0.0023040771484375;-0.0553436279296875;-1.0171051025390625;0.021223263815045357;-0.01805143803358078;0.0029675604309886694
0.004241943359375;-0.0554962158203125;-1.013885498046875;0.021223263815045357;-0.01805143803358078;0.0029675604309886694
0.004241943359375;-0.0554962158203125;-1.013885498046875;0.021223263815045357;-0.01805143803358078;0.0029675604309886694
0.004241943359375;-0.0554962158203125;-1.013885498046875;0.021223263815045357;-0.01805143803358078;0.0029675604309886694
0.004241943359375;-0.0554962158203125;-1.013885498046875;0.022957779467105865;-0.01912815496325493;0.0019526296528056264
0.00555419921875;-0.0526123046875;-1.010040283203125;0.022957779467105865;-0.01912815496325493;0.0019526296528056264
0.00555419921875;-0.0526123046875;-1.010040283203125;0.022957779467105865;-0.01912815496325493;0.0019526296528056264
0.00555419921875;-0.0526123046875;-1.010040283203125;0.022957779467105865;-0.01912815496325493;0.0019526296528056264
0.00555419921875;-0.0526123046875;-1.010040283203125;0.022957779467105865;-0.01912815496325493;0.0019526296528056264
0.00555419921875;-0.0526123046875;-1.010040283203125;0.024047812446951866;-0.02532160095870495;0.0006476807757280767
0.0059051513671875;-0.050445556640625;-1.0136260986328125;0.024047812446951866;-0.02532160095870495;0.0006476807757280767
0.0059051513671875;-0.050445556640625;-1.0136260986328125;0.024047812446951866;-0.02532160095870495;0.0006476807757280767
0.0059051513671875;-0.050445556640625;-1.0136260986328125;0.024047812446951866;-0.02532160095870495;0.0006476807757280767
0.0059051513671875;-0.050445556640625;-1.0136260986328125;0.024047812446951866;-0.02532160095870495;0.0006476807757280767
0.0059051513671875;-0.050445556640625;-1.0136260986328125;0.02370026893913746;-0.02346191555261612;-0.0019150790758430958
0.00628662109375;-0.0489044189453125;-1.0152587890625;0.02370026893913746;-0.02346191555261612;-0.0019150790758430958
0.00628662109375;-0.0489044189453125;-1.0152587890625;0.02370026893913746;-0.02346191555261612;-0.0019150790758430958
0.00628662109375;-0.0489044189453125;-1.0152587890625;0.02370026893913746;-0.02346191555261612;-0.0019150790758430958
0.00628662109375;-0.0489044189453125;-1.0152587890625;0.02370026893913746;-0.02346191555261612;-0.0019150790758430958
0.00628662109375;-0.0489044189453125;-1.0152587890625;0.020076239481568336;-0.026322949677705765;-0.0038064562249928713
0.00567626953125;-0.0489654541015625;-1.0128021240234375;0.020076239481568336;-0.026322949677705765;-0.0038064562249928713
0.00567626953125;-0.0489654541015625;-1.0128021240234375;0.020076239481568336;-0.026322949677705765;-0.0038064562249928713
0.00567626953125;-0.0489654541015625;-1.0128021240234375;0.020076239481568336;-0.026322949677705765;-0.0038064562249928713
0.00567626953125;-0.0489654541015625;-1.0128021240234375;0.020076239481568336;-0.026322949677705765;-0.0038064562249928713
0.00567626953125;-0.0489654541015625;-1.0128021240234375;0.014602378010749817;-0.02184298075735569;-0.003257844829931855
0.0059967041015625;-0.0499267578125;-1.010711669921875;0.014602378010749817;-0.02184298075735569;-0.003257844829931855
0.0059967041015625;-0.0499267578125;-1.010711669921875;0.014602378010749817;-0.02184298075735569;-0.003257844829931855
0.0059967041015625;-0.0499267578125;-1.010711669921875;0.014602378010749817;-0.02184298075735569;-0.003257844829931855
0.0059967041015625;-0.0499267578125;-1.010711669921875;0.014602378010749817;-0.02184298075735569;-0.003257844829931855
0.0059967041015625;-0.0499267578125;-1.010711669921875;0.01690015383064747;-0.013626063242554665;-0.006856041960418224
0.0054779052734375;-0.050445556640625;-1.0093994140625;0.01690015383064747;-0.013626063242554665;-0.006856041960418224
0.0054779052734375;-0.050445556640625;-1.0093994140625;0.01690015383064747;-0.013626063242554665;-0.006856041960418224
0.0054779052734375;-0.050445556640625;-1.0093994140625;0.01690015383064747;-0.013626063242554665;-0.006856041960418224
0.0054779052734375;-0.050445556640625;-1.0093994140625;0.01690015383064747;-0.013626063242554665;-0.006856041960418224
0.0054779052734375;-0.050445556640625;-1.0093994140625;0.01986824721097946;-0.010616958141326904;-0.005216599907726049
0.0052947998046875;-0.05108642578125;-1.0088653564453125;0.01986824721097946;-0.010616958141326904;-0.005216599907726049
0.0052947998046875;-0.05108642578125;-1.0088653564453125;0.01986824721097946;-0.010616958141326904;-0.005216599907726049
0.0052947998046875;-0.05108642578125;-1.0088653564453125;0.01986824721097946;-0.010616958141326904;-0.005216599907726049
0.0052947998046875;-0.05108642578125;-1.0088653564453125;0.01986824721097946;-0.010616958141326904;-0.005216599907726049
0.0052947998046875;-0.05108642578125;-1.0088653564453125;0.019215505570173264;-0.005505286622792482;-0.005539641249924898
0.0056915283203125;-0.0517730712890625;-1.0102691650390625;0.019215505570173264;-0.005505286622792482;-0.005539641249924898
0.0056915283203125;-0.0517730712890625;-1.0102691650390625;0.019215505570173264;-0.005505286622792482;-0.005539641249924898
0.0056915283203125;-0.0517730712890625;-1.0102691650390625;0.019215505570173264;-0.005505286622792482;-0.005539641249924898
0.0056915283203125;-0.0517730712890625;-1.0102691650390625;0.019215505570173264;-0.005505286622792482;-0.005539641249924898
0.0056915283203125;-0.0517730712890625;-1.0102691650390625;0.021395569667220116;-0.0075905416160821915;-0.004289020784199238
0.005157470703125;-0.0523529052734375;-1.0128021240234375;0.021395569667220116;-0.0075905416160821915;-0.004289020784199238
0.005157470703125;-0.0523529052734375;-1.0128021240234375;0.021395569667220116;-0.0075905416160821915;-0.004289020784199238
0.005157470703125;-0.0523529052734375;-1.0128021240234375;0.021395569667220116;-0.0075905416160821915;-0.004289020784199238
0.005157470703125;-0.0523529052734375;-1.0128021240234375;0.021395569667220116;-0.0075905416160821915;-0.004289020784199238
0.005157470703125;-0.0523529052734375;-1.0128021240234375;0.020500214770436287;-0.006992129608988762;-0.0030924626626074314
0.004150390625;-0.053436279296875;-1.015960693359375;0.020500214770436287;-0.006992129608988762;-0.0030924626626074314
0.004150390625;-0.053436279296875;-1.015960693359375;0.020500214770436287;-0.006992129608988762;-0.0030924626626074314
0.004150390625;-0.053436279296875;-1.015960693359375;0.020500214770436287;-0.006992129608988762;-0.0030924626626074314
0.004150390625;-0.053436279296875;-1.015960693359375;0.020500214770436287;-0.006992129608988762;-0.0030924626626074314
0.004150390625;-0.053436279296875;-1.015960693359375;0.021015802398324013;-0.0032461269292980433;0.0009179916232824326
0.0023193359375;-0.0535888671875;-1.015411376953125;0.021015802398324013;-0.0032461269292980433;0.0009179916232824326
0.0023193359375;-0.0535888671875;-1.015411376953125;0.021015802398324013;-0.0032461269292980433;0.0009179916232824326
0.0023193359375;-0.0535888671875;-1.015411376953125;0.021015802398324013;-0.0032461269292980433;0.0009179916232824326
0.0023193359375;-0.0535888671875;-1.015411376953125;0.021015802398324013;-0.0032461269292980433;0.0009179916232824326
0.0023193359375;-0.0535888671875;-1.015411376953125;0.022477079182863235;-0.0035989959724247456;-0.0004974784678779542
0.0025482177734375;-0.0543212890625;-1.01416015625;0.022477079182863235;-0.0035989959724247456;-0.0004974784678779542
0.0025482177734375;-0.0543212890625;-1.01416015625;0.022477079182863235;-0.0035989959724247456;-0.0004974784678779542
0.0025482177734375;-0.0543212890625;-1.01416015625;0.022477079182863235;-0.0035989959724247456;-0.0004974784678779542
0.0025482177734375;-0.0543212890625;-1.01416015625;0.022477079182863235;-0.0035989959724247456;-0.0004974784678779542
0.0025482177734375;-0.0543212890625;-1.01416015625;0.021142836660146713;0.003379018744453788;-0.001543568097986281
0.00421142578125;-0.054351806640625;-1.0140380859375;0.021142836660146713;0.003379018744453788;-0.001543568097986281
0.00421142578125;-0.054351806640625;-1.0140380859375;0.021142836660146713;0.003379018744453788;-0.001543568097986281
0.00421142578125;-0.054351806640625;-1.0140380859375;0.021142836660146713;0.003379018744453788;-0.001543568097986281
0.00421142578125;-0.054351806640625;-1.0140380859375;0.021142836660146713;0.003379018744453788;-0.001543568097986281
0.00421142578125;-0.054351806640625;-1.0140380859375;0.019781427457928658;-0.001907355966977775;-0.0007491472060792148
0.0058441162109375;-0.0555877685546875;-1.0155487060546875;0.019781427457928658;-0.001907355966977775;-0.0007491472060792148
0.0058441162109375;-0.0555877685546875;-1.0155487060546875;0.019781427457928658;-0.001907355966977775;-0.0007491472060792148
0.0058441162109375;-0.0555877685546875;-1.0155487060546875;0.019781427457928658;-0.001907355966977775;-0.0007491472060792148
0.0058441162109375;-0.0555877685546875;-1.0155487060546875;0.019781427457928658;-0.001907355966977775;-0.0007491472060792148
0.0058441162109375;-0.0555877685546875;-1.0155487060546875;0.01685301586985588;-0.002490055514499545;-0.0014564828015863895
0.0051116943359375;-0.054901123046875;-1.0149688720703125;0.01685301586985588;-0.002490055514499545;-0.0014564828015863895
0.0051116943359375;-0.054901123046875;-1.0149688720703125;0.01685301586985588;-0.002490055514499545;-0.0014564828015863895
0.0051116943359375;-0.054901123046875;-1.0149688720703125;0.01685301586985588;-0.002490055514499545;-0.0014564828015863895
0.0051116943359375;-0.054901123046875;-1.0149688720703125;0.01685301586985588;-0.002490055514499545;-0.0014564828015863895
0.0051116943359375;-0.054901123046875;-1.0149688720703125;0.014460965059697628;-0.002965696156024933;-0.0016109461430460215
0.004486083984375;-0.0558013916015625;-1.0148162841796875;0.014460965059697628;-0.002965696156024933;-0.0016109461430460215
0.004486083984375;-0.0558013916015625;-1.0148162841796875;0.014460965059697628;-0.002965696156024933;-0.0016109461430460215
0.004486083984375;-0.0558013916015625;-1.0148162841796875;0.014460965059697628;-0.002965696156024933;-0.0016109461430460215
0.004486083984375;-0.0558013916015625;-1.0148162841796875;0.014460965059697628;-0.002965696156024933;-0.0016109461430460215
0.004486083984375;-0.0558013916015625;-1.0148162841796875;0.016087356954813004;-0.007412109989672899;-0.0014138722326606512
0.0036468505859375;-0.05706787109375;-1.0153656005859375;0.016087356954813004;-0.007412109989672899;-0.0014138722326606512
0.0036468505859375;-0.05706787109375;-1.0153656005859375;0.016087356954813004;-0.007412109989672899;-0.0014138722326606512
0.0036468505859375;-0.05706787109375;-1.0153656005859375;0.016087356954813004;-0.007412109989672899;-0.0014138722326606512
0.0036468505859375;-0.05706787109375;-1.0153656005859375;0.016087356954813004;-0.007412109989672899;-0.0014138722326606512
0.0036468505859375;-0.05706787109375;-1.0153656005859375;0.014994395896792412;-0.004010454285889864;-0.001216798322275281
0.0028228759765625;-0.056854248046875;-1.0146026611328125;0.014994395896792412;-0.004010454285889864;-0.001216798322275281
0.0028228759765625;-0.056854248046875;-1.0146026611328125;0.014994395896792412;-0.004010454285889864;-0.001216798322275281
0.0028228759765625;-0.056854248046875;-1.0146026611328125;0.014994395896792412;-0.004010454285889864;-0.001216798322275281
0.0028228759765625;-0.056854248046875;-1.0146026611328125;0.014994395896792412;-0.004010454285889864;-0.001216798322275281
0.0028228759765625;-0.056854248046875;-1.0146026611328125;0.013364541344344616;-0.00923264678567648;-0.00021544973424170166
0.0022430419921875;-0.0563201904296875;-1.014892578125;0.013364541344344616;-0.00923264678567648;-0.00021544973424170166
0.0022430419921875;-0.0563201904296875;-1.014892578125;0.013364541344344616;-0.00923264678567648;-0.00021544973424170166
0.0022430419921875;-0.0563201904296875;-1.014892578125;0.013364541344344616;-0.00923264678567648;-0.00021544973424170166
0.0022430419921875;-0.0563201904296875;-1.014892578125;0.013364541344344616;-0.00923264678567648;-0.00021544973424170166
0.0022430419921875;-0.0563201904296875;-1.014892578125;0.011636948212981224;-0.008709335699677467;-0.003906324505805969
0.002288818359375;-0.0558624267578125;-1.0146484375;0.011636948212981224;-0.008709335699677467;-0.003906324505805969
0.002288818359375;-0.0558624267578125;-1.0146484375;0.011636948212981224;-0.008709335699677467;-0.003906324505805969
0.002288818359375;-0.0558624267578125;-1.0146484375;0.011636948212981224;-0.008709335699677467;-0.003906324505805969
0.002288818359375;-0.0558624267578125;-1.0146484375;0.011636948212981224;-0.008709335699677467;-0.003906324505805969
0.002288818359375;-0.0558624267578125;-1.0146484375;0.011431884951889515;-0.008712531067430973;-0.0022426480427384377
0.0024566650390625;-0.055816650390625;-1.0145111083984375;0.011431884951889515;-0.008712531067430973;-0.0022426480427384377
0.0024566650390625;-0.055816650390625;-1.0145111083984375;0.011431884951889515;-0.008712531067430973;-0.0022426480427384377
0.0024566650390625;-0.055816650390625;-1.0145111083984375;0.011431884951889515;-0.008712531067430973;-0.0022426480427384377
0.0024566650390625;-0.055816650390625;-1.0145111083984375;0.011431884951889515;-0.008712531067430973;-0.0022426480427384377
0.0024566650390625;-0.055816650390625;-1.0145111083984375;0.012626046314835548;-0.009640110656619072;-0.003275688039138913
0.0029296875;-0.0555267333984375;-1.0138397216796875;0.012626046314835548;-0.009640110656619072;-0.003275688039138913
0.0029296875;-0.0555267333984375;-1.0138397216796875;0.012626046314835548;-0.009640110656619072;-0.003275688039138913
0.0029296875;-0.0555267333984375;-1.0138397216796875;0.012626046314835548;-0.009640110656619072;-0.003275688039138913
0.0029296875;-0.0555267333984375;-1.0138397216796875;0.012626046314835548;-0.009640110656619072;-0.003275688039138913
0.0029296875;-0.0555267333984375;-1.0138397216796875;0.012942696921527386;-0.007505054119974375;-0.0022445120848715305
0.00244140625;-0.054473876953125;-1.013671875;0.012942696921527386;-0.007505054119974375;-0.0022445120848715305
0.00244140625;-0.054473876953125;-1.013671875;0.012942696921527386;-0.007505054119974375;-0.0022445120848715305
0.00244140625;-0.054473876953125;-1.013671875;0.012942696921527386;-0.007505054119974375;-0.0022445120848715305
0.00244140625;-0.054473876953125;-1.013671875;0.012942696921527386;-0.007505054119974375;-0.0022445120848715305
0.00244140625;-0.054473876953125;-1.013671875;0.014708638191223145;-0.0093317162245512;-0.003304982790723443
0.00189208984375;-0.0556182861328125;-1.014129638671875;0.014708638191223145;-0.0093317162245512;-0.003304982790723443
0.00189208984375;-0.0556182861328125;-1.014129638671875;0.014708638191223145;-0.0093317162245512;-0.003304982790723443
0.00189208984375;-0.0556182861328125;-1.014129638671875;0.014708638191223145;-0.0093317162245512;-0.003304982790723443
0.00189208984375;-0.0556182861328125;-1.014129638671875;0.014708638191223145;-0.0093317162245512;-0.003304982790723443
0.00189208984375;-0.0556182861328125;-1.014129638671875;0.011686217039823532;-0.010820955969393253;-0.005658951122313738
0.002716064453125;-0.055999755859375;-1.016082763671875;0.011686217039823532;-0.010820955969393253;-0.005658951122313738
0.002716064453125;-0.055999755859375;-1.016082763671875;0.011686217039823532;-0.010820955969393253;-0.005658951122313738
0.002716064453125;-0.055999755859375;-1.016082763671875;0.011686217039823532;-0.010820955969393253;-0.005658951122313738
0.002716064453125;-0.055999755859375;-1.016082763671875;0.011686217039823532;-0.010820955969393253;-0.005658951122313738
0.002716064453125;-0.055999755859375;-1.016082763671875;0.014948856085538864;-0.011213771998882294;-0.0026724820490926504
0.0025177001953125;-0.0561676025390625;-1.01416015625;0.014948856085538864;-0.011213771998882294;-0.0026724820490926504
0.0025177001953125;-0.0561676025390625;-1.01416015625;0.014948856085538864;-0.011213771998882294;-0.0026724820490926504
0.0025177001953125;-0.0561676025390625;-1.01416015625;0.014948856085538864;-0.011213771998882294;-0.0026724820490926504
0.0025177001953125;-0.0561676025390625;-1.01416015625;0.014948856085538864;-0.011213771998882294;-0.0026724820490926504
0.0025177001953125;-0.0561676025390625;-1.01416015625;0.014186126179993153;-0.009884588420391083;-0.0017512947088107467
0.003204345703125;-0.056182861328125;-1.0130157470703125;0.014186126179993153;-0.009884588420391083;-0.0017512947088107467
0.003204345703125;-0.056182861328125;-1.0130157470703125;0.014186126179993153;-0.009884588420391083;-0.0017512947088107467
0.003204345703125;-0.056182861328125;-1.0130157470703125;0.014186126179993153;-0.009884588420391083;-0.0017512947088107467
0.003204345703125;-0.056182861328125;-1.0130157470703125;0.014186126179993153;-0.009884588420391083;-0.0017512947088107467
0.003204345703125;-0.056182861328125;-1.0130157470703125;0.013797837309539318;-0.010327205993235111;-0.00287434970960021
0.00286865234375;-0.0562896728515625;-1.0131683349609375;0.013797837309539318;-0.010327205993235111;-0.00287434970960021
0.00286865234375;-0.0562896728515625;-1.0131683349609375;0.013797837309539318;-0.010327205993235111;-0.00287434970960021
0.00286865234375;-0.0562896728515625;-1.0131683349609375;0.013797837309539318;-0.010327205993235111;-0.00287434970960021
0.00286865234375;-0.0562896728515625;-1.0131683349609375;0.013797837309539318;-0.010327205993235111;-0.00287434970960021
0.00286865234375;-0.0562896728515625;-1.0131683349609375;0.01552250050008297;-0.009718939661979675;-0.000847950461320579
0.0035858154296875;-0.0566864013671875;-1.0138397216796875;0.01552250050008297;-0.009718939661979675;-0.000847950461320579
0.0035858154296875;-0.0566864013671875;-1.0138397216796875;0.01552250050008297;-0.009718939661979675;-0.000847950461320579
0.0035858154296875;-0.0566864013671875;-1.0138397216796875;0.01552250050008297;-0.009718939661979675;-0.000847950461320579
0.0035858154296875;-0.0566864013671875;-1.0138397216796875;0.01552250050008297;-0.009718939661979675;-0.000847950461320579
0.0035858154296875;-0.0566864013671875;-1.0138397216796875;0.017106281593441963;-0.004975051153451204;0.0005052016349509358
0.0032806396484375;-0.0566558837890625;-1.0140228271484375;0.017106281593441963;-0.004975051153451204;0.0005052016349509358
0.0032806396484375;-0.0566558837890625;-1.0140228271484375;0.017106281593441963;-0.004975051153451204;0.0005052016349509358
0.0032806396484375;-0.0566558837890625;-1.0140228271484375;0.017106281593441963;-0.004975051153451204;0.0005052016349509358
0.0032806396484375;-0.0566558837890625;-1.0140228271484375;0.019338011741638184;-0.007251521106809378;0.0005853627808392048
0.0032806396484375;-0.0566558837890625;-1.0140228271484375;0.019338011741638184;-0.007251521106809378;0.0005853627808392048
0.002655029296875;-0.0569915771484375;-1.01318359375;0.019338011741638184;-0.007251521106809378;0.0005853627808392048
0.002655029296875;-0.0569915771484375;-1.01318359375;0.019338011741638184;-0.007251521106809378;0.0005853627808392048
0.002655029296875;-0.0569915771484375;-1.01318359375;0.019338011741638184;-0.007251521106809378;0.0005853627808392048
0.002655029296875;-0.0569915771484375;-1.01318359375;0.019338011741638184;-0.007251521106809378;0.0005853627808392048
0.002655029296875;-0.0569915771484375;-1.01318359375;0.016340890899300575;-0.007604389917105436;-0.0006708502769470215
0.0020751953125;-0.05682373046875;-1.0141754150390625;0.016340890899300575;-0.007604389917105436;-0.0006708502769470215
0.0020751953125;-0.05682373046875;-1.0141754150390625;0.016340890899300575;-0.007604389917105436;-0.0006708502769470215
0.0020751953125;-0.05682373046875;-1.0141754150390625;0.016340890899300575;-0.007604389917105436;-0.0006708502769470215
0.0020751953125;-0.05682373046875;-1.0141754150390625;0.015291337855160236;-0.006493052933365107;0.00033875409280881286
0.0020751953125;-0.05682373046875;-1.0141754150390625;0.015291337855160236;-0.006493052933365107;0.00033875409280881286
0.0024871826171875;-0.05810546875;-1.0148773193359375;0.015291337855160236;-0.006493052933365107;0.00033875409280881286
0.0024871826171875;-0.05810546875;-1.0148773193359375;0.015291337855160236;-0.006493052933365107;0.00033875409280881286
0.0024871826171875;-0.05810546875;-1.0148773193359375;0.015291337855160236;-0.006493052933365107;0.00033875409280881286
0.0024871826171875;-0.05810546875;-1.0148773193359375;0.01435097586363554;-0.005048554390668869;0.0001930791768245399
0.0033721923828125;-0.0577239990234375;-1.0145263671875;0.01435097586363554;-0.005048554390668869;0.0001930791768245399
0.0033721923828125;-0.0577239990234375;-1.0145263671875;0.01435097586363554;-0.005048554390668869;0.0001930791768245399
0.0033721923828125;-0.0577239990234375;-1.0145263671875;0.01435097586363554;-0.005048554390668869;0.0001930791768245399
0.0033721923828125;-0.0577239990234375;-1.0145263671875;0.01435097586363554;-0.005048554390668869;0.0001930791768245399
0.0033721923828125;-0.0577239990234375;-1.0145263671875;0.009106147103011608;-0.0012482235906645656;-0.0009214537567459047
0.0028839111328125;-0.0590057373046875;-1.01190185546875;0.009106147103011608;-0.0012482235906645656;-0.0009214537567459047
0.0028839111328125;-0.0590057373046875;-1.01190185546875;0.009106147103011608;-0.0012482235906645656;-0.0009214537567459047
0.0028839111328125;-0.0590057373046875;-1.01190185546875;0.009106147103011608;-0.0012482235906645656;-0.0009214537567459047
0.0028839111328125;-0.0590057373046875;-1.01190185546875;0.009106147103011608;-0.0012482235906645656;-0.0009214537567459047
0.0028839111328125;-0.0590057373046875;-1.01190185546875;0.012019378133118153;-0.005652026738971472;-6.79106087773107e-05
0.004669189453125;-0.0576324462890625;-1.009765625;0.012019378133118153;-0.005652026738971472;-6.79106087773107e-05
0.004669189453125;-0.0576324462890625;-1.009765625;0.012019378133118153;-0.005652026738971472;-6.79106087773107e-05
0.004669189453125;-0.0576324462890625;-1.009765625;0.012019378133118153;-0.005652026738971472;-6.79106087773107e-05
0.004669189453125;-0.0576324462890625;-1.009765625;0.012019378133118153;-0.005652026738971472;-6.79106087773107e-05
0.004669189453125;-0.0576324462890625;-1.009765625;0.016560601070523262;-0.016635170206427574;-0.0031103058718144894
0.0045166015625;-0.05621337890625;-1.014801025390625;0.016560601070523262;-0.016635170206427574;-0.0031103058718144894
0.0045166015625;-0.05621337890625;-1.014801025390625;0.016560601070523262;-0.016635170206427574;-0.0031103058718144894
0.0045166015625;-0.05621337890625;-1.014801025390625;0.016560601070523262;-0.016635170206427574;-0.0031103058718144894
0.0045166015625;-0.05621337890625;-1.014801025390625;0.016560601070523262;-0.016635170206427574;-0.0031103058718144894
0.0045166015625;-0.05621337890625;-1.014801025390625;0.024324513971805573;-0.019235746935009956;-0.00347435986623168
0.0032196044921875;-0.057708740234375;-1.0208282470703125;0.024324513971805573;-0.019235746935009956;-0.00347435986623168
0.0032196044921875;-0.057708740234375;-1.0208282470703125;0.024324513971805573;-0.019235746935009956;-0.00347435986623168
0.0032196044921875;-0.057708740234375;-1.0208282470703125;0.024324513971805573;-0.019235746935009956;-0.00347435986623168
0.0032196044921875;-0.057708740234375;-1.0208282470703125;0.024324513971805573;-0.019235746935009956;-0.00347435986623168
0.0032196044921875;-0.057708740234375;-1.0208282470703125;0.02286483533680439;-0.006628075148910284;-0.0030093719251453876
0.0032196044921875;-0.057708740234375;-1.0208282470703125;0.02286483533680439;-0.006628075148910284;-0.0030093719251453876
0.0023040771484375;-0.0576934814453125;-1.016845703125;0.02286483533680439;-0.006628075148910284;-0.0030093719251453876
0.0023040771484375;-0.0576934814453125;-1.016845703125;0.02286483533680439;-0.006628075148910284;-0.0030093719251453876
0.0023040771484375;-0.0576934814453125;-1.016845703125;0.02286483533680439;-0.006628075148910284;-0.0030093719251453876
0.0023040771484375;-0.0576934814453125;-1.016845703125;0.021873872727155685;-0.004866127856075764;-0.00042504051816649735
0.00152587890625;-0.05908203125;-1.0100555419921875;0.021873872727155685;-0.004866127856075764;-0.00042504051816649735
0.00152587890625;-0.05908203125;-1.0100555419921875;0.021873872727155685;-0.004866127856075764;-0.00042504051816649735
0.00152587890625;-0.05908203125;-1.0100555419921875;0.021873872727155685;-0.004866127856075764;-0.00042504051816649735
0.00152587890625;-0.05908203125;-1.0100555419921875;0.021873872727155685;-0.004866127856075764;-0.00042504051816649735
0.00152587890625;-0.05908203125;-1.0100555419921875;0.017283115535974503;-0.0054794540628790855;0.001306014135479927
0.0036163330078125;-0.06121826171875;-1.010772705078125;0.017283115535974503;-0.0054794540628790855;0.001306014135479927
0.0036163330078125;-0.06121826171875;-1.010772705078125;0.017283115535974503;-0.0054794540628790855;0.001306014135479927
0.0036163330078125;-0.06121826171875;-1.010772705078125;0.017283115535974503;-0.0054794540628790855;0.001306014135479927
0.0036163330078125;-0.06121826171875;-1.010772705078125;0.017283115535974503;-0.0054794540628790855;0.001306014135479927
0.0036163330078125;-0.06121826171875;-1.010772705078125;0.01967942900955677;-0.003373159794136882;-0.00041571943438611925
0.0046234130859375;-0.0626678466796875;-1.013946533203125;0.01967942900955677;-0.003373159794136882;-0.00041571943438611925
0.0046234130859375;-0.0626678466796875;-1.013946533203125;0.01967942900955677;-0.003373159794136882;-0.00041571943438611925
0.0046234130859375;-0.0626678466796875;-1.013946533203125;0.01967942900955677;-0.003373159794136882;-0.00041571943438611925
0.0046234130859375;-0.0626678466796875;-1.013946533203125;0.013399428687989712;0.02966788038611412;0.0005757753970101476
0.0049591064453125;-0.062164306640625;-1.00445556640625;0.013399428687989712;0.02966788038611412;0.0005757753970101476
0.0049591064453125;-0.062164306640625;-1.00445556640625;0.013399428687989712;0.02966788038611412;0.0005757753970101476
0.0049591064453125;-0.062164306640625;-1.00445556640625;0.013399428687989712;0.02966788038611412;0.0005757753970101476
0.0049591064453125;-0.062164306640625;-1.00445556640625;0.013399428687989712;0.02966788038611412;0.0005757753970101476
0.0049591064453125;-0.062164306640625;-1.00445556640625;0.015986956655979156;0.01901843212544918;-0.00022610237647313625
0.0042572021484375;-0.0615997314453125;-0.9941253662109375;0.015986956655979156;0.01901843212544918;-0.00022610237647313625
0.0042572021484375;-0.0615997314453125;-0.9941253662109375;0.015986956655979156;0.01901843212544918;-0.00022610237647313625
0.0042572021484375;-0.0615997314453125;-0.9941253662109375;0.015986956655979156;0.01901843212544918;-0.00022610237647313625
0.0042572021484375;-0.0615997314453125;-0.9941253662109375;0.015986956655979156;0.01901843212544918;-0.00022610237647313625
