Acell X;Acell Y;Acell Z;Gyro X;Gyro Y;Gyro Z

0.0435791015625;-0.185516357421875;-1.005401611328125;-0.03514893352985382;-0.04002704471349716;0.0034229608718305826
0.0435791015625;-0.185516357421875;-1.005401611328125;-0.03514893352985382;-0.04002704471349716;0.0034229608718305826
0.0435791015625;-0.185516357421875;-1.005401611328125;-0.03514893352985382;-0.04002704471349716;0.0034229608718305826
0.0435791015625;-0.185516357421875;-1.005401611328125;-0.03514893352985382;-0.04002704471349716;0.0034229608718305826
0.028778076171875;-0.19024658203125;-0.9872894287109375;-0.026501381769776344;-0.0051995557732880116;-0.0020477045327425003
0.028778076171875;-0.19024658203125;-0.9872894287109375;-0.026501381769776344;-0.0051995557732880116;-0.0020477045327425003
0.028778076171875;-0.19024658203125;-0.9872894287109375;-0.026501381769776344;-0.0051995557732880116;-0.0020477045327425003
0.028778076171875;-0.19024658203125;-0.9872894287109375;-0.026501381769776344;-0.0051995557732880116;-0.0020477045327425003
0.0174407958984375;-0.1863861083984375;-0.990447998046875;-0.019356919452548027;0.005766808986663818;-0.006013417616486549
0.0174407958984375;-0.1863861083984375;-0.990447998046875;-0.019356919452548027;0.005766808986663818;-0.006013417616486549
0.0174407958984375;-0.1863861083984375;-0.990447998046875;-0.019356919452548027;0.005766808986663818;-0.006013417616486549
0.0174407958984375;-0.1863861083984375;-0.990447998046875;-0.019356919452548027;0.005766808986663818;-0.006013417616486549
0.0174407958984375;-0.1863861083984375;-0.990447998046875;-0.019356919452548027;0.005766808986663818;-0.006013417616486549
0.0182647705078125;-0.18194580078125;-0.9957122802734375;-0.010998588986694813;0.0016892430139705539;0.0002942793071269989
0.0182647705078125;-0.18194580078125;-0.9957122802734375;-0.010998588986694813;0.0016892430139705539;0.0002942793071269989
0.0182647705078125;-0.18194580078125;-0.9957122802734375;-0.010998588986694813;0.0016892430139705539;0.0002942793071269989
0.0182647705078125;-0.18194580078125;-0.9957122802734375;-0.010998588986694813;0.0016892430139705539;0.0002942793071269989
0.0182647705078125;-0.18194580078125;-0.9957122802734375;-0.010998588986694813;0.0016892430139705539;0.0002942793071269989
0.0223541259765625;-0.175567626953125;-1.0007476806640625;-0.004641357343643904;-0.005517004523426294;0.0004426173691172153
0.0223541259765625;-0.175567626953125;-1.0007476806640625;-0.004641357343643904;-0.005517004523426294;0.0004426173691172153
0.0223541259765625;-0.175567626953125;-1.0007476806640625;-0.004641357343643904;-0.005517004523426294;0.0004426173691172153
0.0223541259765625;-0.175567626953125;-1.0007476806640625;-0.004641357343643904;-0.005517004523426294;0.0004426173691172153
0.0223541259765625;-0.175567626953125;-1.0007476806640625;-0.004641357343643904;-0.005517004523426294;0.0004426173691172153
0.0223541259765625;-0.175567626953125;-1.0007476806640625;-0.004641357343643904;-0.005517004523426294;0.0004426173691172153
0.0246429443359375;-0.172119140625;-1.0016937255859375;-0.0008133294177241623;-0.007783621083945036;-0.00037950044497847557
0.0246429443359375;-0.172119140625;-1.0016937255859375;-0.0008133294177241623;-0.007783621083945036;-0.00037950044497847557
0.0246429443359375;-0.172119140625;-1.0016937255859375;-0.0008133294177241623;-0.007783621083945036;-0.00037950044497847557
0.0246429443359375;-0.172119140625;-1.0016937255859375;-0.0008133294177241623;-0.007783621083945036;-0.00037950044497847557
0.0260162353515625;-0.1695556640625;-0.9997406005859375;-0.002273007994517684;-0.0035369442775845528;-0.003198722843080759
0.0260162353515625;-0.1695556640625;-0.9997406005859375;-0.002273007994517684;-0.0035369442775845528;-0.003198722843080759
0.0260162353515625;-0.1695556640625;-0.9997406005859375;-0.002273007994517684;-0.0035369442775845528;-0.003198722843080759
0.0260162353515625;-0.1695556640625;-0.9997406005859375;-0.002273007994517684;-0.0035369442775845528;-0.003198722843080759
0.0260162353515625;-0.1695556640625;-0.9997406005859375;-0.002273007994517684;-0.0035369442775845528;-0.003198722843080759
0.027008056640625;-0.1690826416015625;-0.99603271484375;-0.0054672034457325935;0.0011677960865199566;-0.0018466358305886388
0.027008056640625;-0.1690826416015625;-0.99603271484375;-0.0054672034457325935;0.0011677960865199566;-0.0018466358305886388
0.027008056640625;-0.1690826416015625;-0.99603271484375;-0.0054672034457325935;0.0011677960865199566;-0.0018466358305886388
0.027008056640625;-0.1690826416015625;-0.99603271484375;-0.0054672034457325935;0.0011677960865199566;-0.0018466358305886388
0.027008056640625;-0.1690826416015625;-0.99603271484375;-0.0054672034457325935;0.0011677960865199566;-0.0018466358305886388
0.028594970703125;-0.170928955078125;-0.9958038330078125;-0.005151885095983744;-0.0001507349224993959;-7.989483492565341e-06
0.028594970703125;-0.170928955078125;-0.9958038330078125;-0.005151885095983744;-0.0001507349224993959;-7.989483492565341e-06
0.028594970703125;-0.170928955078125;-0.9958038330078125;-0.005151885095983744;-0.0001507349224993959;-7.989483492565341e-06
0.028594970703125;-0.170928955078125;-0.9958038330078125;-0.005151885095983744;-0.0001507349224993959;-7.989483492565341e-06
0.028594970703125;-0.170928955078125;-0.9958038330078125;-0.005151885095983744;-0.0001507349224993959;-7.989483492565341e-06
0.0298614501953125;-0.1718292236328125;-0.997467041015625;-0.0038986015133559704;-0.0003049319493584335;-0.001359277404844761
0.0298614501953125;-0.1718292236328125;-0.997467041015625;-0.0038986015133559704;-0.0003049319493584335;-0.001359277404844761
0.0298614501953125;-0.1718292236328125;-0.997467041015625;-0.0038986015133559704;-0.0003049319493584335;-0.001359277404844761
0.0298614501953125;-0.1718292236328125;-0.997467041015625;-0.0038986015133559704;-0.0003049319493584335;-0.001359277404844761
0.0298614501953125;-0.1718292236328125;-0.997467041015625;-0.0038986015133559704;-0.0003049319493584335;-0.001359277404844761
0.03070068359375;-0.1738739013671875;-0.9983062744140625;-0.005387308541685343;-0.004785700235515833;0.00020133497309871018
0.03070068359375;-0.1738739013671875;-0.9983062744140625;-0.005387308541685343;-0.004785700235515833;0.00020133497309871018
0.03070068359375;-0.1738739013671875;-0.9983062744140625;-0.005387308541685343;-0.004785700235515833;0.00020133497309871018
0.03070068359375;-0.1738739013671875;-0.9983062744140625;-0.005387308541685343;-0.004785700235515833;0.00020133497309871018
0.03070068359375;-0.1738739013671875;-0.9983062744140625;-0.005387308541685343;-0.004785700235515833;0.00020133497309871018
0.0319061279296875;-0.175323486328125;-0.999359130859375;-0.0067844027653336525;-0.008304801769554615;0.0023451796732842922
0.0319061279296875;-0.175323486328125;-0.999359130859375;-0.0067844027653336525;-0.008304801769554615;0.0023451796732842922
0.0319061279296875;-0.175323486328125;-0.999359130859375;-0.0067844027653336525;-0.008304801769554615;0.0023451796732842922
0.0319061279296875;-0.175323486328125;-0.999359130859375;-0.0067844027653336525;-0.008304801769554615;0.0023451796732842922
0.0319061279296875;-0.175323486328125;-0.999359130859375;-0.0067844027653336525;-0.008304801769554615;0.0023451796732842922
0.0322418212890625;-0.1756591796875;-1.0003204345703125;-0.00561154680326581;-0.006065881811082363;0.00959483627229929
0.0322418212890625;-0.1756591796875;-1.0003204345703125;-0.00561154680326581;-0.006065881811082363;0.00959483627229929
0.0322418212890625;-0.1756591796875;-1.0003204345703125;-0.00561154680326581;-0.006065881811082363;0.00959483627229929
0.0322418212890625;-0.1756591796875;-1.0003204345703125;-0.00561154680326581;-0.006065881811082363;0.00959483627229929
0.0322418212890625;-0.1756591796875;-1.0003204345703125;-0.00561154680326581;-0.006065881811082363;0.00959483627229929
0.032196044921875;-0.1761474609375;-1.0033721923828125;-0.0021552962716668844;-0.012094479985535145;0.007266168482601643
0.032196044921875;-0.1761474609375;-1.0033721923828125;-0.0021552962716668844;-0.012094479985535145;0.007266168482601643
0.032196044921875;-0.1761474609375;-1.0033721923828125;-0.0021552962716668844;-0.012094479985535145;0.007266168482601643
0.032196044921875;-0.1761474609375;-1.0033721923828125;-0.0021552962716668844;-0.012094479985535145;0.007266168482601643
0.032196044921875;-0.1761474609375;-1.0033721923828125;-0.0021552962716668844;-0.012094479985535145;0.007266168482601643
0.0319366455078125;-0.17718505859375;-1.0052337646484375;-0.006187854800373316;-0.015614911913871765;0.009373527951538563
0.0319366455078125;-0.17718505859375;-1.0052337646484375;-0.006187854800373316;-0.015614911913871765;0.009373527951538563
0.0319366455078125;-0.17718505859375;-1.0052337646484375;-0.006187854800373316;-0.015614911913871765;0.009373527951538563
0.0319366455078125;-0.17718505859375;-1.0052337646484375;-0.006187854800373316;-0.015614911913871765;0.009373527951538563
0.0319366455078125;-0.17718505859375;-1.0052337646484375;-0.006187854800373316;-0.015614911913871765;0.009373527951538563
0.032012939453125;-0.178497314453125;-1.0013580322265625;-0.007536479737609625;-0.010714962147176266;0.006697317585349083
0.032012939453125;-0.178497314453125;-1.0013580322265625;-0.007536479737609625;-0.010714962147176266;0.006697317585349083
0.032012939453125;-0.178497314453125;-1.0013580322265625;-0.007536479737609625;-0.010714962147176266;0.006697317585349083
0.032012939453125;-0.178497314453125;-1.0013580322265625;-0.007536479737609625;-0.010714962147176266;0.006697317585349083
0.032012939453125;-0.178497314453125;-1.0013580322265625;-0.007536479737609625;-0.010714962147176266;0.006697317585349083
0.0300445556640625;-0.17755126953125;-0.988189697265625;-0.019241072237491608;0.007894141599535942;0.005134308245033026
0.0300445556640625;-0.17755126953125;-0.988189697265625;-0.019241072237491608;0.007894141599535942;0.005134308245033026
0.0300445556640625;-0.17755126953125;-0.988189697265625;-0.019241072237491608;0.007894141599535942;0.005134308245033026
0.0300445556640625;-0.17755126953125;-0.988189697265625;-0.019241072237491608;0.007894141599535942;0.005134308245033026
0.0300445556640625;-0.17755126953125;-0.988189697265625;-0.019241072237491608;0.007894141599535942;0.005134308245033026
0.027862548828125;-0.1756591796875;-0.977081298828125;-0.020125241950154305;0.020432038232684135;-0.0006532734259963036
0.027862548828125;-0.1756591796875;-0.977081298828125;-0.020125241950154305;0.020432038232684135;-0.0006532734259963036
0.027862548828125;-0.1756591796875;-0.977081298828125;-0.020125241950154305;0.020432038232684135;-0.0006532734259963036
0.027862548828125;-0.1756591796875;-0.977081298828125;-0.020125241950154305;0.020432038232684135;-0.0006532734259963036
0.027862548828125;-0.1756591796875;-0.977081298828125;-0.020125241950154305;0.020432038232684135;-0.0006532734259963036
0.02490234375;-0.171966552734375;-1.00213623046875;0.004739094991236925;0.008057127706706524;0.0036607813090085983
0.02490234375;-0.171966552734375;-1.00213623046875;0.004739094991236925;0.008057127706706524;0.0036607813090085983
0.02490234375;-0.171966552734375;-1.00213623046875;0.004739094991236925;0.008057127706706524;0.0036607813090085983
0.02490234375;-0.171966552734375;-1.00213623046875;0.004739094991236925;0.008057127706706524;0.0036607813090085983
0.02490234375;-0.171966552734375;-1.00213623046875;0.004739094991236925;0.008057127706706524;0.0036607813090085983
0.0258331298828125;-0.169677734375;-1.028045654296875;0.024411866441369057;-0.04652542248368263;0.005119128152728081
0.0258331298828125;-0.169677734375;-1.028045654296875;0.024411866441369057;-0.04652542248368263;0.005119128152728081
0.0258331298828125;-0.169677734375;-1.028045654296875;0.024411866441369057;-0.04652542248368263;0.005119128152728081
0.0258331298828125;-0.169677734375;-1.028045654296875;0.024411866441369057;-0.04652542248368263;0.005119128152728081
0.0258331298828125;-0.169677734375;-1.028045654296875;0.024411866441369057;-0.04652542248368263;0.005119128152728081
0.0256805419921875;-0.1698455810546875;-1.02850341796875;0.030234867706894875;-0.07208804041147232;0.006620884872972965
0.0256805419921875;-0.1698455810546875;-1.02850341796875;0.030234867706894875;-0.07208804041147232;0.006620884872972965
0.0256805419921875;-0.1698455810546875;-1.02850341796875;0.030234867706894875;-0.07208804041147232;0.006620884872972965
0.0256805419921875;-0.1698455810546875;-1.02850341796875;0.030234867706894875;-0.07208804041147232;0.006620884872972965
0.0256805419921875;-0.1698455810546875;-1.02850341796875;0.030234867706894875;-0.07208804041147232;0.006620884872972965
0.025146484375;-0.172271728515625;-1.00164794921875;0.01137089915573597;-0.05732960253953934;0.004252269398421049
0.025146484375;-0.172271728515625;-1.00164794921875;0.01137089915573597;-0.05732960253953934;0.004252269398421049
0.025146484375;-0.172271728515625;-1.00164794921875;0.01137089915573597;-0.05732960253953934;0.004252269398421049
0.025146484375;-0.172271728515625;-1.00164794921875;0.01137089915573597;-0.05732960253953934;0.004252269398421049
0.025146484375;-0.172271728515625;-1.00164794921875;0.01137089915573597;-0.05732960253953934;0.004252269398421049
0.0218963623046875;-0.17431640625;-0.9780120849609375;0.006108758971095085;-0.013201023451983929;0.0011717908782884479
0.0218963623046875;-0.17431640625;-0.9780120849609375;0.006108758971095085;-0.013201023451983929;0.0011717908782884479
0.0218963623046875;-0.17431640625;-0.9780120849609375;0.006108758971095085;-0.013201023451983929;0.0011717908782884479
0.0218963623046875;-0.17431640625;-0.9780120849609375;0.006108758971095085;-0.013201023451983929;0.0011717908782884479
0.0218963623046875;-0.17431640625;-0.9780120849609375;0.006108758971095085;-0.013201023451983929;0.0011717908782884479
0.020355224609375;-0.1755523681640625;-0.9821624755859375;0.0109842075034976;0.005420864559710026;0.0025270734913647175
0.020355224609375;-0.1755523681640625;-0.9821624755859375;0.0109842075034976;0.005420864559710026;0.0025270734913647175
0.020355224609375;-0.1755523681640625;-0.9821624755859375;0.0109842075034976;0.005420864559710026;0.0025270734913647175
0.020355224609375;-0.1755523681640625;-0.9821624755859375;0.0109842075034976;0.005420864559710026;0.0025270734913647175
0.020355224609375;-0.1755523681640625;-0.9821624755859375;0.0109842075034976;0.005420864559710026;0.0025270734913647175
0.0225067138671875;-0.1761016845703125;-0.9932861328125;0.027100326493382454;0.005854160524904728;-0.000791491474956274
0.0225067138671875;-0.1761016845703125;-0.9932861328125;0.027100326493382454;0.005854160524904728;-0.000791491474956274
0.0225067138671875;-0.1761016845703125;-0.9932861328125;0.027100326493382454;0.005854160524904728;-0.000791491474956274
0.0225067138671875;-0.1761016845703125;-0.9932861328125;0.027100326493382454;0.005854160524904728;-0.000791491474956274
0.0225067138671875;-0.1761016845703125;-0.9932861328125;0.027100326493382454;0.005854160524904728;-0.000791491474956274
0.0261993408203125;-0.17547607421875;-1.0044097900390625;0.04063291475176811;-0.00501100393012166;0.002892459277063608
0.0261993408203125;-0.17547607421875;-1.0044097900390625;0.04063291475176811;-0.00501100393012166;0.002892459277063608
0.0261993408203125;-0.17547607421875;-1.0044097900390625;0.04063291475176811;-0.00501100393012166;0.002892459277063608
0.0261993408203125;-0.17547607421875;-1.0044097900390625;0.04063291475176811;-0.00501100393012166;0.002892459277063608
0.0261993408203125;-0.17547607421875;-1.0044097900390625;0.04063291475176811;-0.00501100393012166;0.002892459277063608
0.0302886962890625;-0.17620849609375;-1.01165771484375;0.04271017760038376;-0.02165389619767666;0.004845088813453913
0.0302886962890625;-0.17620849609375;-1.01165771484375;0.04271017760038376;-0.02165389619767666;0.004845088813453913
0.0302886962890625;-0.17620849609375;-1.01165771484375;0.04271017760038376;-0.02165389619767666;0.004845088813453913
0.0302886962890625;-0.17620849609375;-1.01165771484375;0.04271017760038376;-0.02165389619767666;0.004845088813453913
0.0302886962890625;-0.17620849609375;-1.01165771484375;0.04271017760038376;-0.02165389619767666;0.004845088813453913
0.031280517578125;-0.1789093017578125;-1.01239013671875;0.039383623749017715;-0.024510135874152184;0.004731904715299606
0.031280517578125;-0.1789093017578125;-1.01239013671875;0.039383623749017715;-0.024510135874152184;0.004731904715299606
0.031280517578125;-0.1789093017578125;-1.01239013671875;0.039383623749017715;-0.024510135874152184;0.004731904715299606
0.031280517578125;-0.1789093017578125;-1.01239013671875;0.039383623749017715;-0.024510135874152184;0.004731904715299606
0.031280517578125;-0.1789093017578125;-1.01239013671875;0.039383623749017715;-0.024510135874152184;0.004731904715299606
0.030914306640625;-0.181610107421875;-1.0066680908203125;0.03007987141609192;-0.02641110122203827;0.0052051483653485775
0.030914306640625;-0.181610107421875;-1.0066680908203125;0.03007987141609192;-0.02641110122203827;0.0052051483653485775
0.030914306640625;-0.181610107421875;-1.0066680908203125;0.03007987141609192;-0.02641110122203827;0.0052051483653485775
0.030914306640625;-0.181610107421875;-1.0066680908203125;0.03007987141609192;-0.02641110122203827;0.0052051483653485775
0.030914306640625;-0.181610107421875;-1.0066680908203125;0.03007987141609192;-0.02641110122203827;0.0052051483653485775
0.02838134765625;-0.1861419677734375;-0.9986724853515625;0.014838600531220436;-0.02478231117129326;0.005299957003444433
0.02838134765625;-0.1861419677734375;-0.9986724853515625;0.014838600531220436;-0.02478231117129326;0.005299957003444433
0.02838134765625;-0.1861419677734375;-0.9986724853515625;0.014838600531220436;-0.02478231117129326;0.005299957003444433
0.02838134765625;-0.1861419677734375;-0.9986724853515625;0.014838600531220436;-0.02478231117129326;0.005299957003444433
0.02838134765625;-0.1861419677734375;-0.9986724853515625;0.014838600531220436;-0.02478231117129326;0.005299957003444433
0.0236663818359375;-0.19000244140625;-0.995391845703125;0.0057681407779455185;-0.02105974592268467;0.004570517223328352
0.0236663818359375;-0.19000244140625;-0.995391845703125;0.0057681407779455185;-0.02105974592268467;0.004570517223328352
0.0236663818359375;-0.19000244140625;-0.995391845703125;0.0057681407779455185;-0.02105974592268467;0.004570517223328352
0.0236663818359375;-0.19000244140625;-0.995391845703125;0.0057681407779455185;-0.02105974592268467;0.004570517223328352
0.0236663818359375;-0.19000244140625;-0.995391845703125;0.0057681407779455185;-0.02105974592268467;0.004570517223328352
0.0213470458984375;-0.18914794921875;-0.9951629638671875;0.006478139199316502;-0.016472449526190758;0.007666974328458309
0.0213470458984375;-0.18914794921875;-0.9951629638671875;0.006478139199316502;-0.016472449526190758;0.007666974328458309
0.0213470458984375;-0.18914794921875;-0.9951629638671875;0.006478139199316502;-0.016472449526190758;0.007666974328458309
0.0213470458984375;-0.18914794921875;-0.9951629638671875;0.006478139199316502;-0.016472449526190758;0.007666974328458309
0.0213470458984375;-0.18914794921875;-0.9951629638671875;0.006478139199316502;-0.016472449526190758;0.007666974328458309
0.02032470703125;-0.185546875;-0.997283935546875;0.009669405408203602;-0.01315015647560358;0.010203635320067406
0.02032470703125;-0.185546875;-0.997283935546875;0.009669405408203602;-0.01315015647560358;0.010203635320067406
0.02032470703125;-0.185546875;-0.997283935546875;0.009669405408203602;-0.01315015647560358;0.010203635320067406
0.02032470703125;-0.185546875;-0.997283935546875;0.009669405408203602;-0.01315015647560358;0.010203635320067406
0.02032470703125;-0.185546875;-0.997283935546875;0.009669405408203602;-0.01315015647560358;0.010203635320067406
0.022674560546875;-0.1805267333984375;-0.99957275390625;0.012121377512812614;-0.012261725962162018;0.011502458713948727
0.022674560546875;-0.1805267333984375;-0.99957275390625;0.012121377512812614;-0.012261725962162018;0.011502458713948727
0.022674560546875;-0.1805267333984375;-0.99957275390625;0.012121377512812614;-0.012261725962162018;0.011502458713948727
0.022674560546875;-0.1805267333984375;-0.99957275390625;0.012121377512812614;-0.012261725962162018;0.011502458713948727
0.022674560546875;-0.1805267333984375;-0.99957275390625;0.012121377512812614;-0.012261725962162018;0.011502458713948727
0.024871826171875;-0.175323486328125;-0.9996795654296875;0.014396515674889088;-0.010981278494000435;0.012087821960449219
0.024871826171875;-0.175323486328125;-0.9996795654296875;0.014396515674889088;-0.010981278494000435;0.012087821960449219
0.024871826171875;-0.175323486328125;-0.9996795654296875;0.014396515674889088;-0.010981278494000435;0.012087821960449219
0.024871826171875;-0.175323486328125;-0.9996795654296875;0.014396515674889088;-0.010981278494000435;0.012087821960449219
0.024871826171875;-0.175323486328125;-0.9996795654296875;0.014396515674889088;-0.010981278494000435;0.012087821960449219
0.0269622802734375;-0.1699371337890625;-1.0013885498046875;0.016770990565419197;-0.008352472446858883;0.009485380724072456
0.0269622802734375;-0.1699371337890625;-1.0013885498046875;0.016770990565419197;-0.008352472446858883;0.009485380724072456
0.0269622802734375;-0.1699371337890625;-1.0013885498046875;0.016770990565419197;-0.008352472446858883;0.009485380724072456
0.0269622802734375;-0.1699371337890625;-1.0013885498046875;0.016770990565419197;-0.008352472446858883;0.009485380724072456
0.0269622802734375;-0.1699371337890625;-1.0013885498046875;0.016770990565419197;-0.008352472446858883;0.009485380724072456
0.027862548828125;-0.169158935546875;-1.003204345703125;0.019843745976686478;-0.0041033984161913395;0.0073687005788087845
0.027862548828125;-0.169158935546875;-1.003204345703125;0.019843745976686478;-0.0041033984161913395;0.0073687005788087845
0.027862548828125;-0.169158935546875;-1.003204345703125;0.019843745976686478;-0.0041033984161913395;0.0073687005788087845
0.027862548828125;-0.169158935546875;-1.003204345703125;0.019843745976686478;-0.0041033984161913395;0.0073687005788087845
0.027862548828125;-0.169158935546875;-1.003204345703125;0.019843745976686478;-0.0041033984161913395;0.0073687005788087845
0.0279388427734375;-0.1690673828125;-1.0044403076171875;0.025123195722699165;-0.008435296826064587;0.0033246902748942375
0.0279388427734375;-0.1690673828125;-1.0044403076171875;0.025123195722699165;-0.008435296826064587;0.0033246902748942375
0.0279388427734375;-0.1690673828125;-1.0044403076171875;0.025123195722699165;-0.008435296826064587;0.0033246902748942375
0.0279388427734375;-0.1690673828125;-1.0044403076171875;0.025123195722699165;-0.008435296826064587;0.0033246902748942375
0.0279388427734375;-0.1690673828125;-1.0044403076171875;0.022790532559156418;-0.011436413042247295;0.007499727886170149
0.027587890625;-0.17254638671875;-1.0052490234375;0.022790532559156418;-0.011436413042247295;0.007499727886170149
0.027587890625;-0.17254638671875;-1.0052490234375;0.022790532559156418;-0.011436413042247295;0.007499727886170149
0.027587890625;-0.17254638671875;-1.0052490234375;0.022790532559156418;-0.011436413042247295;0.007499727886170149
0.027587890625;-0.17254638671875;-1.0052490234375;0.022790532559156418;-0.011436413042247295;0.007499727886170149
0.027587890625;-0.17254638671875;-1.0052490234375;0.022790532559156418;-0.011436413042247295;0.007499727886170149
0.0257415771484375;-0.1761016845703125;-1.006011962890625;0.018576348200440407;-0.013035907410085201;0.0026205505710095167
0.0257415771484375;-0.1761016845703125;-1.006011962890625;0.018576348200440407;-0.013035907410085201;0.0026205505710095167
0.0257415771484375;-0.1761016845703125;-1.006011962890625;0.018576348200440407;-0.013035907410085201;0.0026205505710095167
0.0257415771484375;-0.1761016845703125;-1.006011962890625;0.018576348200440407;-0.013035907410085201;0.0026205505710095167
0.0257415771484375;-0.1761016845703125;-1.006011962890625;0.014365090988576412;-0.014419951476156712;0.0035989959724247456
0.0243682861328125;-0.1787261962890625;-1.004730224609375;0.014365090988576412;-0.014419951476156712;0.0035989959724247456
0.0243682861328125;-0.1787261962890625;-1.004730224609375;0.014365090988576412;-0.014419951476156712;0.0035989959724247456
0.0243682861328125;-0.1787261962890625;-1.004730224609375;0.014365090988576412;-0.014419951476156712;0.0035989959724247456
0.0243682861328125;-0.1787261962890625;-1.004730224609375;0.014365090988576412;-0.014419951476156712;0.0035989959724247456
0.0231475830078125;-0.1806640625;-1.001129150390625;0.012745089828968048;-0.006874950136989355;0.0017102820565924048
0.0231475830078125;-0.1806640625;-1.001129150390625;0.012745089828968048;-0.006874950136989355;0.0017102820565924048
0.0231475830078125;-0.1806640625;-1.001129150390625;0.012745089828968048;-0.006874950136989355;0.0017102820565924048
0.0231475830078125;-0.1806640625;-1.001129150390625;0.012745089828968048;-0.006874950136989355;0.0017102820565924048
0.0231475830078125;-0.1806640625;-1.001129150390625;0.012745089828968048;-0.006874950136989355;0.0017102820565924048
0.0231475830078125;-0.1806640625;-1.001129150390625;0.009561813436448574;-0.0034139060880988836;-0.0047031426802277565
0.0235748291015625;-0.182647705078125;-1.000518798828125;0.009561813436448574;-0.0034139060880988836;-0.0047031426802277565
0.0235748291015625;-0.182647705078125;-1.000518798828125;0.009561813436448574;-0.0034139060880988836;-0.0047031426802277565
0.0235748291015625;-0.182647705078125;-1.000518798828125;0.009561813436448574;-0.0034139060880988836;-0.0047031426802277565
0.0235748291015625;-0.182647705078125;-1.000518798828125;0.009561813436448574;-0.0034139060880988836;-0.0047031426802277565
0.024444580078125;-0.18310546875;-0.99993896484375;0.007225422188639641;-0.006872819736599922;-0.0017350494163110852
0.024444580078125;-0.18310546875;-0.99993896484375;0.007225422188639641;-0.006872819736599922;-0.0017350494163110852
0.024444580078125;-0.18310546875;-0.99993896484375;0.007225422188639641;-0.006872819736599922;-0.0017350494163110852
0.024444580078125;-0.18310546875;-0.99993896484375;0.007225422188639641;-0.006872819736599922;-0.0017350494163110852
0.024444580078125;-0.18310546875;-0.99993896484375;0.007225422188639641;-0.006872819736599922;-0.0017350494163110852
0.024444580078125;-0.18310546875;-0.99993896484375;0.009614810347557068;-0.004283694550395012;-0.0013646037550643086
0.0264892578125;-0.184326171875;-1.000213623046875;0.009614810347557068;-0.004283694550395012;-0.0013646037550643086
0.0264892578125;-0.184326171875;-1.000213623046875;0.009614810347557068;-0.004283694550395012;-0.0013646037550643086
0.0264892578125;-0.184326171875;-1.000213623046875;0.009614810347557068;-0.004283694550395012;-0.0013646037550643086
0.0264892578125;-0.184326171875;-1.000213623046875;0.009614810347557068;-0.004283694550395012;-0.0013646037550643086
0.02783203125;-0.18463134765625;-1.000030517578125;0.009358348324894905;-0.002805107505992055;-0.0010543455136939883
0.02783203125;-0.18463134765625;-1.000030517578125;0.009358348324894905;-0.002805107505992055;-0.0010543455136939883
0.02783203125;-0.18463134765625;-1.000030517578125;0.009358348324894905;-0.002805107505992055;-0.0010543455136939883
0.02783203125;-0.18463134765625;-1.000030517578125;0.009358348324894905;-0.002805107505992055;-0.0010543455136939883
0.02783203125;-0.18463134765625;-1.000030517578125;0.009358348324894905;-0.002805107505992055;-0.0010543455136939883
0.027801513671875;-0.1852264404296875;-1.00115966796875;0.013456153683364391;-0.002186188939958811;0.002552906284108758
0.027801513671875;-0.1852264404296875;-1.00115966796875;0.013456153683364391;-0.002186188939958811;0.002552906284108758
0.027801513671875;-0.1852264404296875;-1.00115966796875;0.013456153683364391;-0.002186188939958811;0.002552906284108758
0.027801513671875;-0.1852264404296875;-1.00115966796875;0.013456153683364391;-0.002186188939958811;0.002552906284108758
0.027801513671875;-0.1852264404296875;-1.00115966796875;0.013456153683364391;-0.002186188939958811;0.002552906284108758
0.027801513671875;-0.1852264404296875;-1.00115966796875;0.019517775624990463;-0.011774900369346142;0.0015688681742176414
0.0280914306640625;-0.186126708984375;-1.004730224609375;0.019517775624990463;-0.011774900369346142;0.0015688681742176414
0.0280914306640625;-0.186126708984375;-1.004730224609375;0.019517775624990463;-0.011774900369346142;0.0015688681742176414
0.0280914306640625;-0.186126708984375;-1.004730224609375;0.019517775624990463;-0.011774900369346142;0.0015688681742176414
0.0280914306640625;-0.186126708984375;-1.004730224609375;0.019517775624990463;-0.011774900369346142;0.0015688681742176414
0.0276336669921875;-0.1870269775390625;-1.009979248046875;0.01734144054353237;-0.03027321770787239;0.002639725338667631
0.0276336669921875;-0.1870269775390625;-1.009979248046875;0.01734144054353237;-0.03027321770787239;0.002639725338667631
0.0276336669921875;-0.1870269775390625;-1.009979248046875;0.01734144054353237;-0.03027321770787239;0.002639725338667631
0.0276336669921875;-0.1870269775390625;-1.009979248046875;0.01734144054353237;-0.03027321770787239;0.002639725338667631
0.0276336669921875;-0.1870269775390625;-1.009979248046875;0.01734144054353237;-0.03027321770787239;0.002639725338667631
0.02838134765625;-0.1878204345703125;-1.012115478515625;0.0063124909065663815;-0.025432655587792397;0.003180080559104681
0.02838134765625;-0.1878204345703125;-1.012115478515625;0.0063124909065663815;-0.025432655587792397;0.003180080559104681
0.02838134765625;-0.1878204345703125;-1.012115478515625;0.0063124909065663815;-0.025432655587792397;0.003180080559104681
0.02838134765625;-0.1878204345703125;-1.012115478515625;0.0063124909065663815;-0.025432655587792397;0.003180080559104681
0.02838134765625;-0.1878204345703125;-1.012115478515625;0.0063124909065663815;-0.025432655587792397;0.003180080559104681
0.0284423828125;-0.1894989013671875;-0.997833251953125;-0.0009065400226972997;-0.013896108604967594;0.005334311630576849
0.0284423828125;-0.1894989013671875;-0.997833251953125;-0.0009065400226972997;-0.013896108604967594;0.005334311630576849
0.0284423828125;-0.1894989013671875;-0.997833251953125;-0.0009065400226972997;-0.013896108604967594;0.005334311630576849
0.0284423828125;-0.1894989013671875;-0.997833251953125;-0.0009065400226972997;-0.013896108604967594;0.005334311630576849
0.0284423828125;-0.1894989013671875;-0.997833251953125;-0.0009065400226972997;-0.013896108604967594;0.005334311630576849
0.026458740234375;-0.1880340576171875;-0.9941558837890625;-0.005828860681504011;-0.006352438125759363;0.0038868836127221584
0.026458740234375;-0.1880340576171875;-0.9941558837890625;-0.005828860681504011;-0.006352438125759363;0.0038868836127221584
0.026458740234375;-0.1880340576171875;-0.9941558837890625;-0.005828860681504011;-0.006352438125759363;0.0038868836127221584
0.026458740234375;-0.1880340576171875;-0.9941558837890625;-0.005828860681504011;-0.006352438125759363;0.0038868836127221584
0.026458740234375;-0.1880340576171875;-0.9941558837890625;-0.005828860681504011;-0.006352438125759363;0.0038868836127221584
0.0246124267578125;-0.1848297119140625;-0.9994964599609375;-0.008449943736195564;-2.5566347176209092e-05;0.0019318570848554373
0.0246124267578125;-0.1848297119140625;-0.9994964599609375;-0.008449943736195564;-2.5566347176209092e-05;0.0019318570848554373
0.0246124267578125;-0.1848297119140625;-0.9994964599609375;-0.008449943736195564;-2.5566347176209092e-05;0.0019318570848554373
0.0246124267578125;-0.1848297119140625;-0.9994964599609375;-0.008449943736195564;-2.5566347176209092e-05;0.0019318570848554373
0.0246124267578125;-0.1848297119140625;-0.9994964599609375;-0.008449943736195564;-2.5566347176209092e-05;0.0019318570848554373
0.0236053466796875;-0.1832122802734375;-0.994720458984375;-0.013579990714788437;-0.007495999336242676;0.004114317707717419
0.0236053466796875;-0.1832122802734375;-0.994720458984375;-0.013579990714788437;-0.007495999336242676;0.004114317707717419
0.0236053466796875;-0.1832122802734375;-0.994720458984375;-0.013579990714788437;-0.007495999336242676;0.004114317707717419
0.0236053466796875;-0.1832122802734375;-0.994720458984375;-0.013579990714788437;-0.007495999336242676;0.004114317707717419
0.0236053466796875;-0.1832122802734375;-0.994720458984375;-0.013579990714788437;-0.007495999336242676;0.004114317707717419
0.0221405029296875;-0.1786041259765625;-0.98944091796875;-0.010725081898272038;-0.005513009615242481;0.0016487629618495703
0.0221405029296875;-0.1786041259765625;-0.98944091796875;-0.010725081898272038;-0.005513009615242481;0.0016487629618495703
0.0221405029296875;-0.1786041259765625;-0.98944091796875;-0.010725081898272038;-0.005513009615242481;0.0016487629618495703
0.0221405029296875;-0.1786041259765625;-0.98944091796875;-0.010725081898272038;-0.005513009615242481;0.0016487629618495703
0.0221405029296875;-0.1786041259765625;-0.98944091796875;-0.010725081898272038;-0.005513009615242481;0.0016487629618495703
0.0211029052734375;-0.1755828857421875;-0.997772216796875;0.001859685406088829;-0.012350409291684628;0.00247567449696362
0.0211029052734375;-0.1755828857421875;-0.997772216796875;0.001859685406088829;-0.012350409291684628;0.00247567449696362
0.0211029052734375;-0.1755828857421875;-0.997772216796875;0.001859685406088829;-0.012350409291684628;0.00247567449696362
0.0211029052734375;-0.1755828857421875;-0.997772216796875;0.001859685406088829;-0.012350409291684628;0.00247567449696362
0.0211029052734375;-0.1755828857421875;-0.997772216796875;0.001859685406088829;-0.012350409291684628;0.00247567449696362
0.0224151611328125;-0.172882080078125;-1.0043792724609375;0.014915832318365574;-0.017344368621706963;0.0010913633741438389
0.0224151611328125;-0.172882080078125;-1.0043792724609375;0.014915832318365574;-0.017344368621706963;0.0010913633741438389
0.0224151611328125;-0.172882080078125;-1.0043792724609375;0.014915832318365574;-0.017344368621706963;0.0010913633741438389
0.0224151611328125;-0.172882080078125;-1.0043792724609375;0.014915832318365574;-0.017344368621706963;0.0010913633741438389
0.0224151611328125;-0.172882080078125;-1.0043792724609375;0.014915832318365574;-0.017344368621706963;0.0010913633741438389
0.0237579345703125;-0.173980712890625;-1.0052337646484375;0.02034229040145874;-0.02316763624548912;0.003984888084232807
0.0237579345703125;-0.173980712890625;-1.0052337646484375;0.02034229040145874;-0.02316763624548912;0.003984888084232807
0.0237579345703125;-0.173980712890625;-1.0052337646484375;0.02034229040145874;-0.02316763624548912;0.003984888084232807
0.0237579345703125;-0.173980712890625;-1.0052337646484375;0.02034229040145874;-0.02316763624548912;0.003984888084232807
0.0237579345703125;-0.173980712890625;-1.0052337646484375;0.02034229040145874;-0.02316763624548912;0.003984888084232807
0.0238800048828125;-0.17523193359375;-1.003814697265625;0.02004215121269226;-0.020710071548819542;0.007239803206175566
0.0238800048828125;-0.17523193359375;-1.003814697265625;0.02004215121269226;-0.020710071548819542;0.007239803206175566
0.0238800048828125;-0.17523193359375;-1.003814697265625;0.02004215121269226;-0.020710071548819542;0.007239803206175566
0.0238800048828125;-0.17523193359375;-1.003814697265625;0.02004215121269226;-0.020710071548819542;0.007239803206175566
0.0238800048828125;-0.17523193359375;-1.003814697265625;0.02004215121269226;-0.020710071548819542;0.007239803206175566
0.0216827392578125;-0.1790008544921875;-1.0030364990234375;0.021759890019893646;-0.02172393724322319;0.0024714134633541107
0.0216827392578125;-0.1790008544921875;-1.0030364990234375;0.021759890019893646;-0.02172393724322319;0.0024714134633541107
0.0216827392578125;-0.1790008544921875;-1.0030364990234375;0.021759890019893646;-0.02172393724322319;0.0024714134633541107
0.0216827392578125;-0.1790008544921875;-1.0030364990234375;0.021759890019893646;-0.02172393724322319;0.0024714134633541107
0.0216827392578125;-0.1790008544921875;-1.0030364990234375;0.021759890019893646;-0.02172393724322319;0.0024714134633541107
0.0188751220703125;-0.1818084716796875;-1.0048980712890625;0.02299373224377632;-0.021017666906118393;0.0022011026740074158
0.0188751220703125;-0.1818084716796875;-1.0048980712890625;0.02299373224377632;-0.021017666906118393;0.0022011026740074158
0.0188751220703125;-0.1818084716796875;-1.0048980712890625;0.02299373224377632;-0.021017666906118393;0.0022011026740074158
0.0188751220703125;-0.1818084716796875;-1.0048980712890625;0.02299373224377632;-0.021017666906118393;0.0022011026740074158
0.0188751220703125;-0.1818084716796875;-1.0048980712890625;0.02299373224377632;-0.021017666906118393;0.0022011026740074158
0.0184478759765625;-0.184326171875;-1.0061492919921875;0.02268906682729721;-0.020079435780644417;0.0027688886038959026
0.0184478759765625;-0.184326171875;-1.0061492919921875;0.02268906682729721;-0.020079435780644417;0.0027688886038959026
0.0184478759765625;-0.184326171875;-1.0061492919921875;0.02268906682729721;-0.020079435780644417;0.0027688886038959026
0.0184478759765625;-0.184326171875;-1.0061492919921875;0.02268906682729721;-0.020079435780644417;0.0027688886038959026
0.0184478759765625;-0.184326171875;-1.0061492919921875;0.02268906682729721;-0.020079435780644417;0.0027688886038959026
0.0187835693359375;-0.1856536865234375;-1.0047149658203125;0.022178804501891136;-0.016863401979207993;0.0024285365361720324
0.0187835693359375;-0.1856536865234375;-1.0047149658203125;0.022178804501891136;-0.016863401979207993;0.0024285365361720324
0.0187835693359375;-0.1856536865234375;-1.0047149658203125;0.022178804501891136;-0.016863401979207993;0.0024285365361720324
0.0187835693359375;-0.1856536865234375;-1.0047149658203125;0.022178804501891136;-0.016863401979207993;0.0024285365361720324
0.0187835693359375;-0.1856536865234375;-1.0047149658203125;0.022178804501891136;-0.016863401979207993;0.0024285365361720324
0.0186920166015625;-0.1865234375;-1.003326416015625;0.021560419350862503;-0.012019111774861813;0.00048389637959189713
0.0186920166015625;-0.1865234375;-1.003326416015625;0.021560419350862503;-0.012019111774861813;0.00048389637959189713
0.0186920166015625;-0.1865234375;-1.003326416015625;0.021560419350862503;-0.012019111774861813;0.00048389637959189713
0.0186920166015625;-0.1865234375;-1.003326416015625;0.021560419350862503;-0.012019111774861813;0.00048389637959189713
0.0186920166015625;-0.1865234375;-1.003326416015625;0.021560419350862503;-0.012019111774861813;0.00048389637959189713
0.020050048828125;-0.1869964599609375;-1.0034027099609375;0.01775342971086502;-0.017552096396684647;0.001883387565612793
0.020050048828125;-0.1869964599609375;-1.0034027099609375;0.01775342971086502;-0.017552096396684647;0.001883387565612793
0.020050048828125;-0.1869964599609375;-1.0034027099609375;0.01775342971086502;-0.017552096396684647;0.001883387565612793
0.020050048828125;-0.1869964599609375;-1.0034027099609375;0.01775342971086502;-0.017552096396684647;0.001883387565612793
0.020050048828125;-0.1869964599609375;-1.0034027099609375;0.01775342971086502;-0.017552096396684647;0.001883387565612793
0.0226898193359375;-0.1871185302734375;-1.0016937255859375;0.013042299076914787;-0.015538212843239307;0.0026016421616077423
0.0226898193359375;-0.1871185302734375;-1.0016937255859375;0.013042299076914787;-0.015538212843239307;0.0026016421616077423
0.0226898193359375;-0.1871185302734375;-1.0016937255859375;0.013042299076914787;-0.015538212843239307;0.0026016421616077423
0.0226898193359375;-0.1871185302734375;-1.0016937255859375;0.013042299076914787;-0.015538212843239307;0.0026016421616077423
0.0226898193359375;-0.1871185302734375;-1.0016937255859375;0.013042299076914787;-0.015538212843239307;0.0026016421616077423
0.0231475830078125;-0.1867218017578125;-0.999237060546875;0.01019697729498148;-0.015032478608191013;0.0021310613956302404
0.0231475830078125;-0.1867218017578125;-0.999237060546875;0.01019697729498148;-0.015032478608191013;0.0021310613956302404
0.0231475830078125;-0.1867218017578125;-0.999237060546875;0.01019697729498148;-0.015032478608191013;0.0021310613956302404
0.0231475830078125;-0.1867218017578125;-0.999237060546875;0.01019697729498148;-0.015032478608191013;0.0021310613956302404
0.0231475830078125;-0.1867218017578125;-0.999237060546875;0.01019697729498148;-0.015032478608191013;0.0021310613956302404
0.022552490234375;-0.1852874755859375;-0.9980316162109375;0.011234278790652752;-0.011608186177909374;0.0016490293201059103
0.022552490234375;-0.1852874755859375;-0.9980316162109375;0.011234278790652752;-0.011608186177909374;0.0016490293201059103
0.022552490234375;-0.1852874755859375;-0.9980316162109375;0.011234278790652752;-0.011608186177909374;0.0016490293201059103
0.022552490234375;-0.1852874755859375;-0.9980316162109375;0.011234278790652752;-0.011608186177909374;0.0016490293201059103
0.022552490234375;-0.1852874755859375;-0.9980316162109375;0.011234278790652752;-0.011608186177909374;0.0016490293201059103
0.022979736328125;-0.18438720703125;-0.998291015625;0.008717857301235199;-0.00820999313145876;0.0004993426846340299
0.022979736328125;-0.18438720703125;-0.998291015625;0.008717857301235199;-0.00820999313145876;0.0004993426846340299
0.022979736328125;-0.18438720703125;-0.998291015625;0.008717857301235199;-0.00820999313145876;0.0004993426846340299
0.022979736328125;-0.18438720703125;-0.998291015625;0.008717857301235199;-0.00820999313145876;0.0004993426846340299
0.022979736328125;-0.18438720703125;-0.998291015625;0.008717857301235199;-0.00820999313145876;0.0004993426846340299
0.022247314453125;-0.1824188232421875;-0.9977874755859375;0.008341552689671516;-0.008680840022861958;0.0007089334540069103
0.022247314453125;-0.1824188232421875;-0.9977874755859375;0.008341552689671516;-0.008680840022861958;0.0007089334540069103
0.022247314453125;-0.1824188232421875;-0.9977874755859375;0.008341552689671516;-0.008680840022861958;0.0007089334540069103
0.022247314453125;-0.1824188232421875;-0.9977874755859375;0.008341552689671516;-0.008680840022861958;0.0007089334540069103
0.022247314453125;-0.1824188232421875;-0.9977874755859375;0.008341552689671516;-0.008680840022861958;0.0007089334540069103
0.0228729248046875;-0.181610107421875;-0.9957122802734375;0.008330101147294044;-0.0062605589628219604;-0.0003028014034498483
0.0228729248046875;-0.181610107421875;-0.9957122802734375;0.008330101147294044;-0.0062605589628219604;-0.0003028014034498483
0.0228729248046875;-0.181610107421875;-0.9957122802734375;0.008330101147294044;-0.0062605589628219604;-0.0003028014034498483
0.0228729248046875;-0.181610107421875;-0.9957122802734375;0.008330101147294044;-0.0062605589628219604;-0.0003028014034498483
0.0228729248046875;-0.181610107421875;-0.9957122802734375;0.008330101147294044;-0.0062605589628219604;-0.0003028014034498483
0.0239715576171875;-0.18096923828125;-0.9955291748046875;0.004953745752573013;0.00018722022650763392;-0.0024772724136710167
0.0239715576171875;-0.18096923828125;-0.9955291748046875;0.004953745752573013;0.00018722022650763392;-0.0024772724136710167
0.0239715576171875;-0.18096923828125;-0.9955291748046875;0.004953745752573013;0.00018722022650763392;-0.0024772724136710167
0.0239715576171875;-0.18096923828125;-0.9955291748046875;0.004953745752573013;0.00018722022650763392;-0.0024772724136710167
0.0239715576171875;-0.18096923828125;-0.9955291748046875;0.004953745752573013;0.00018722022650763392;-0.0024772724136710167
0.02410888671875;-0.181121826171875;-0.9948577880859375;0.0006934871198609471;-0.001166198286227882;-0.0033995250705629587
0.02410888671875;-0.181121826171875;-0.9948577880859375;0.0006934871198609471;-0.001166198286227882;-0.0033995250705629587
0.02410888671875;-0.181121826171875;-0.9948577880859375;0.0006934871198609471;-0.001166198286227882;-0.0033995250705629587
0.02410888671875;-0.181121826171875;-0.9948577880859375;0.0006934871198609471;-0.001166198286227882;-0.0033995250705629587
0.02410888671875;-0.181121826171875;-0.9948577880859375;0.0006934871198609471;-0.001166198286227882;-0.0033995250705629587
0.0247344970703125;-0.182373046875;-0.997039794921875;0.003352120751515031;0.0034085798542946577;0.0009427590412087739
0.0247344970703125;-0.182373046875;-0.997039794921875;0.003352120751515031;0.0034085798542946577;0.0009427590412087739
0.0247344970703125;-0.182373046875;-0.997039794921875;0.003352120751515031;0.0034085798542946577;0.0009427590412087739
0.0247344970703125;-0.182373046875;-0.997039794921875;0.003352120751515031;0.0034085798542946577;0.0009427590412087739
0.0247344970703125;-0.182373046875;-0.997039794921875;0.003352120751515031;0.0034085798542946577;0.0009427590412087739
0.025421142578125;-0.183258056640625;-0.9988861083984375;0.004163586068898439;0.0019587550777941942;-0.0034200313966721296
0.025421142578125;-0.183258056640625;-0.9988861083984375;0.004163586068898439;0.0019587550777941942;-0.0034200313966721296
0.025421142578125;-0.183258056640625;-0.9988861083984375;0.004163586068898439;0.0019587550777941942;-0.0034200313966721296
0.025421142578125;-0.183258056640625;-0.9988861083984375;0.004163586068898439;0.0019587550777941942;-0.0034200313966721296
0.025421142578125;-0.183258056640625;-0.9988861083984375;0.004163586068898439;0.0019587550777941942;-0.0034200313966721296
0.02325439453125;-0.183837890625;-1.0024566650390625;0.010129333473742008;0.0025683525018393993;-0.0015225291717797518
0.02325439453125;-0.183837890625;-1.0024566650390625;0.010129333473742008;0.0025683525018393993;-0.0015225291717797518
0.02325439453125;-0.183837890625;-1.0024566650390625;0.010129333473742008;0.0025683525018393993;-0.0015225291717797518
0.02325439453125;-0.183837890625;-1.0024566650390625;0.010129333473742008;0.0025683525018393993;-0.0015225291717797518
0.02325439453125;-0.183837890625;-1.0024566650390625;0.010129333473742008;0.0025683525018393993;-0.0015225291717797518
0.0233917236328125;-0.1844940185546875;-1.0021514892578125;0.008717857301235199;0.001859152689576149;-0.0005139900604262948
0.0233917236328125;-0.1844940185546875;-1.0021514892578125;0.008717857301235199;0.001859152689576149;-0.0005139900604262948
0.0233917236328125;-0.1844940185546875;-1.0021514892578125;0.008717857301235199;0.001859152689576149;-0.0005139900604262948
0.0233917236328125;-0.1844940185546875;-1.0021514892578125;0.008717857301235199;0.001859152689576149;-0.0005139900604262948
0.0233917236328125;-0.1844940185546875;-1.0021514892578125;0.008717857301235199;0.001859152689576149;-0.0005139900604262948
0.0240478515625;-0.1852569580078125;-1.0014190673828125;0.01068087387830019;-0.001107076066546142;0.0012889700010418892
0.0240478515625;-0.1852569580078125;-1.0014190673828125;0.01068087387830019;-0.001107076066546142;0.0012889700010418892
0.0240478515625;-0.1852569580078125;-1.0014190673828125;0.01068087387830019;-0.001107076066546142;0.0012889700010418892
0.0240478515625;-0.1852569580078125;-1.0014190673828125;0.01068087387830019;-0.001107076066546142;0.0012889700010418892
0.0240478515625;-0.1852569580078125;-1.0014190673828125;0.01068087387830019;-0.001107076066546142;0.0012889700010418892
0.024810791015625;-0.1852569580078125;-1.002197265625;0.006730873137712479;-0.0013318468118086457;0.0025385250337421894
0.024810791015625;-0.1852569580078125;-1.002197265625;0.006730873137712479;-0.0013318468118086457;0.0025385250337421894
0.024810791015625;-0.1852569580078125;-1.002197265625;0.006730873137712479;-0.0013318468118086457;0.0025385250337421894
0.024810791015625;-0.1852569580078125;-1.002197265625;0.006730873137712479;-0.0013318468118086457;0.0025385250337421894
0.024810791015625;-0.1852569580078125;-1.002197265625;0.005673598498106003;-0.005547896958887577;0.0018788601737469435
0.024383544921875;-0.187164306640625;-1.0013885498046875;0.005673598498106003;-0.005547896958887577;0.0018788601737469435
0.024383544921875;-0.187164306640625;-1.0013885498046875;0.005673598498106003;-0.005547896958887577;0.0018788601737469435
0.024383544921875;-0.187164306640625;-1.0013885498046875;0.005673598498106003;-0.005547896958887577;0.0018788601737469435
0.024383544921875;-0.187164306640625;-1.0013885498046875;0.005673598498106003;-0.005547896958887577;0.0018788601737469435
0.024383544921875;-0.187164306640625;-1.0013885498046875;0.0064776064828038216;-0.0029443909879773855;0.004098072182387114
0.0234527587890625;-0.187347412109375;-1.00079345703125;0.0064776064828038216;-0.0029443909879773855;0.004098072182387114
0.0234527587890625;-0.187347412109375;-1.00079345703125;0.0064776064828038216;-0.0029443909879773855;0.004098072182387114
0.0234527587890625;-0.187347412109375;-1.00079345703125;0.0064776064828038216;-0.0029443909879773855;0.004098072182387114
0.0234527587890625;-0.187347412109375;-1.00079345703125;0.0064776064828038216;-0.0029443909879773855;0.004098072182387114
0.0234527587890625;-0.187347412109375;-1.00079345703125;0.007216101046651602;-0.0031372036319226027;0.0031992553267627954
0.0240478515625;-0.1865692138671875;-1.0014190673828125;0.007216101046651602;-0.0031372036319226027;0.0031992553267627954
0.0240478515625;-0.1865692138671875;-1.0014190673828125;0.007216101046651602;-0.0031372036319226027;0.0031992553267627954
0.0240478515625;-0.1865692138671875;-1.0014190673828125;0.007216101046651602;-0.0031372036319226027;0.0031992553267627954
0.0240478515625;-0.1865692138671875;-1.0014190673828125;0.007216101046651602;-0.0031372036319226027;0.0031992553267627954
0.0235443115234375;-0.18731689453125;-1.0011444091796875;0.0043960800394415855;-0.0044011399149894714;0.0023214775137603283
0.0235443115234375;-0.18731689453125;-1.0011444091796875;0.0043960800394415855;-0.0044011399149894714;0.0023214775137603283
0.0235443115234375;-0.18731689453125;-1.0011444091796875;0.0043960800394415855;-0.0044011399149894714;0.0023214775137603283
0.0235443115234375;-0.18731689453125;-1.0011444091796875;0.0043960800394415855;-0.0044011399149894714;0.0023214775137603283
0.0235443115234375;-0.18731689453125;-1.0011444091796875;0.0043960800394415855;-0.0044011399149894714;0.0023214775137603283
0.0238800048828125;-0.1861419677734375;-1.002166748046875;0.005801962688565254;-0.01019671093672514;0.0023129554465413094
0.0238800048828125;-0.1861419677734375;-1.002166748046875;0.005801962688565254;-0.01019671093672514;0.0023129554465413094
0.0238800048828125;-0.1861419677734375;-1.002166748046875;0.005801962688565254;-0.01019671093672514;0.0023129554465413094
0.0238800048828125;-0.1861419677734375;-1.002166748046875;0.005801962688565254;-0.01019671093672514;0.0023129554465413094
0.0238800048828125;-0.1861419677734375;-1.002166748046875;0.005801962688565254;-0.01019671093672514;0.0023129554465413094
0.0238800048828125;-0.1861419677734375;-1.002166748046875;0.008499212563037872;-0.008022506721317768;0.003028813051059842
0.022125244140625;-0.18597412109375;-1.0027008056640625;0.008499212563037872;-0.008022506721317768;0.003028813051059842
0.022125244140625;-0.18597412109375;-1.0027008056640625;0.008499212563037872;-0.008022506721317768;0.003028813051059842
0.022125244140625;-0.18597412109375;-1.0027008056640625;0.008499212563037872;-0.008022506721317768;0.003028813051059842
0.022125244140625;-0.18597412109375;-1.0027008056640625;0.008499212563037872;-0.008022506721317768;0.003028813051059842
0.0218505859375;-0.1867218017578125;-1.0026702880859375;0.005890912376344204;-0.009275790303945541;0.005489041097462177
0.0218505859375;-0.1867218017578125;-1.0026702880859375;0.005890912376344204;-0.009275790303945541;0.005489041097462177
0.0218505859375;-0.1867218017578125;-1.0026702880859375;0.005890912376344204;-0.009275790303945541;0.005489041097462177
0.0218505859375;-0.1867218017578125;-1.0026702880859375;0.005890912376344204;-0.009275790303945541;0.005489041097462177
0.0218505859375;-0.1867218017578125;-1.0026702880859375;0.005890912376344204;-0.009275790303945541;0.005489041097462177
0.021942138671875;-0.185150146484375;-1.0019378662109375;0.0035265579354017973;-0.01038419734686613;0.003689276985824108
0.021942138671875;-0.185150146484375;-1.0019378662109375;0.0035265579354017973;-0.01038419734686613;0.003689276985824108
0.021942138671875;-0.185150146484375;-1.0019378662109375;0.0035265579354017973;-0.01038419734686613;0.003689276985824108
0.021942138671875;-0.185150146484375;-1.0019378662109375;0.0035265579354017973;-0.01038419734686613;0.003689276985824108
0.021942138671875;-0.185150146484375;-1.0019378662109375;0.0035265579354017973;-0.01038419734686613;0.003689276985824108
0.0210723876953125;-0.1843719482421875;-1.0018310546875;0.005222458858042955;-0.012402873486280441;0.0008282430935651064
0.0210723876953125;-0.1843719482421875;-1.0018310546875;0.005222458858042955;-0.012402873486280441;0.0008282430935651064
0.0210723876953125;-0.1843719482421875;-1.0018310546875;0.005222458858042955;-0.012402873486280441;0.0008282430935651064
0.0210723876953125;-0.1843719482421875;-1.0018310546875;0.005222458858042955;-0.012402873486280441;0.0008282430935651064
0.0210723876953125;-0.1843719482421875;-1.0018310546875;0.005222458858042955;-0.012402873486280441;0.0008282430935651064
0.0213775634765625;-0.18450927734375;-0.999725341796875;0.0019374496769160032;-0.007099188398569822;0.0007747135823592544
0.0213775634765625;-0.18450927734375;-0.999725341796875;0.0019374496769160032;-0.007099188398569822;0.0007747135823592544
0.0213775634765625;-0.18450927734375;-0.999725341796875;0.0019374496769160032;-0.007099188398569822;0.0007747135823592544
0.0213775634765625;-0.18450927734375;-0.999725341796875;0.0019374496769160032;-0.007099188398569822;0.0007747135823592544
0.0213775634765625;-0.18450927734375;-0.999725341796875;0.0019374496769160032;-0.007099188398569822;0.0007747135823592544
0.0211029052734375;-0.183990478515625;-1.000396728515625;0.0031523837242275476;-0.009100553579628468;0.00027856664382852614
0.0211029052734375;-0.183990478515625;-1.000396728515625;0.0031523837242275476;-0.009100553579628468;0.00027856664382852614
0.0211029052734375;-0.183990478515625;-1.000396728515625;0.0031523837242275476;-0.009100553579628468;0.00027856664382852614
0.0211029052734375;-0.183990478515625;-1.000396728515625;0.0031523837242275476;-0.009100553579628468;0.00027856664382852614
0.0211029052734375;-0.183990478515625;-1.000396728515625;0.0031523837242275476;-0.009100553579628468;0.00027856664382852614
0.0207977294921875;-0.1854248046875;-1.001251220703125;0.007364705670624971;-0.0030370689928531647;-0.0009962886106222868
0.0207977294921875;-0.1854248046875;-1.001251220703125;0.007364705670624971;-0.0030370689928531647;-0.0009962886106222868
0.0207977294921875;-0.1854248046875;-1.001251220703125;0.007364705670624971;-0.0030370689928531647;-0.0009962886106222868
0.0207977294921875;-0.1854248046875;-1.001251220703125;0.007364705670624971;-0.0030370689928531647;-0.0009962886106222868
0.0207977294921875;-0.1854248046875;-1.001251220703125;0.007364705670624971;-0.0030370689928531647;-0.0009962886106222868
0.02056884765625;-0.18536376953125;-1.000762939453125;0.006124471314251423;-0.005661880597472191;0.0012460930738598108
0.02056884765625;-0.18536376953125;-1.000762939453125;0.006124471314251423;-0.005661880597472191;0.0012460930738598108
0.02056884765625;-0.18536376953125;-1.000762939453125;0.006124471314251423;-0.005661880597472191;0.0012460930738598108
0.02056884765625;-0.18536376953125;-1.000762939453125;0.006124471314251423;-0.005661880597472191;0.0012460930738598108
0.02056884765625;-0.18536376953125;-1.000762939453125;0.006124471314251423;-0.005661880597472191;0.0012460930738598108
0.021392822265625;-0.1846466064453125;-1.0016937255859375;0.005365204066038132;-0.002825613832101226;0.002180862706154585
0.021392822265625;-0.1846466064453125;-1.0016937255859375;0.005365204066038132;-0.002825613832101226;0.002180862706154585
0.021392822265625;-0.1846466064453125;-1.0016937255859375;0.005365204066038132;-0.002825613832101226;0.002180862706154585
0.021392822265625;-0.1846466064453125;-1.0016937255859375;0.005365204066038132;-0.002825613832101226;0.002180862706154585
0.021392822265625;-0.1846466064453125;-1.0016937255859375;0.005365204066038132;-0.002825613832101226;0.002180862706154585
0.02294921875;-0.1855621337890625;-0.998748779296875;0.002043976215645671;-0.005136172287166119;0.0009355684742331505
0.02294921875;-0.1855621337890625;-0.998748779296875;0.002043976215645671;-0.005136172287166119;0.0009355684742331505
0.02294921875;-0.1855621337890625;-0.998748779296875;0.002043976215645671;-0.005136172287166119;0.0009355684742331505
0.02294921875;-0.1855621337890625;-0.998748779296875;0.002043976215645671;-0.005136172287166119;0.0009355684742331505
0.02294921875;-0.1855621337890625;-0.998748779296875;0.002043976215645671;-0.005136172287166119;0.0009355684742331505
0.0246734619140625;-0.1853179931640625;-0.99664306640625;0.004473578184843063;-0.0028450549580156803;-0.0004090615548193455
0.0246734619140625;-0.1853179931640625;-0.99664306640625;0.004473578184843063;-0.0028450549580156803;-0.0004090615548193455
0.0246734619140625;-0.1853179931640625;-0.99664306640625;0.004473578184843063;-0.0028450549580156803;-0.0004090615548193455
0.0246734619140625;-0.1853179931640625;-0.99664306640625;0.004473578184843063;-0.0028450549580156803;-0.0004090615548193455
0.0246734619140625;-0.1853179931640625;-0.99664306640625;0.004473578184843063;-0.0028450549580156803;-0.0004090615548193455
0.0237884521484375;-0.1847381591796875;-0.9988861083984375;0.00842810608446598;-0.006761499680578709;-0.0013281183782964945
0.0237884521484375;-0.1847381591796875;-0.9988861083984375;0.00842810608446598;-0.006761499680578709;-0.0013281183782964945
0.0237884521484375;-0.1847381591796875;-0.9988861083984375;0.00842810608446598;-0.006761499680578709;-0.0013281183782964945
0.0237884521484375;-0.1847381591796875;-0.9988861083984375;0.00842810608446598;-0.006761499680578709;-0.0013281183782964945
0.0237884521484375;-0.1847381591796875;-0.9988861083984375;0.00842810608446598;-0.006761499680578709;-0.0013281183782964945
0.0235443115234375;-0.185760498046875;-1.0034027099609375;0.012586631812155247;-0.0142343295738101;0.001181111903861165
0.0235443115234375;-0.185760498046875;-1.0034027099609375;0.012586631812155247;-0.0142343295738101;0.001181111903861165
0.0235443115234375;-0.185760498046875;-1.0034027099609375;0.012586631812155247;-0.0142343295738101;0.001181111903861165
0.0235443115234375;-0.185760498046875;-1.0034027099609375;0.012586631812155247;-0.0142343295738101;0.001181111903861165
0.0235443115234375;-0.185760498046875;-1.0034027099609375;0.012586631812155247;-0.0142343295738101;0.001181111903861165
0.022613525390625;-0.185882568359375;-1.004302978515625;0.011379420757293701;-0.014946991577744484;0.004864530172199011
0.022613525390625;-0.185882568359375;-1.004302978515625;0.011379420757293701;-0.014946991577744484;0.004864530172199011
0.022613525390625;-0.185882568359375;-1.004302978515625;0.011379420757293701;-0.014946991577744484;0.004864530172199011
0.022613525390625;-0.185882568359375;-1.004302978515625;0.011379420757293701;-0.014946991577744484;0.004864530172199011
0.022613525390625;-0.185882568359375;-1.004302978515625;0.011379420757293701;-0.014946991577744484;0.004864530172199011
0.022216796875;-0.1872100830078125;-1.00079345703125;0.009582852013409138;-0.016209596768021584;0.003480218816548586
0.022216796875;-0.1872100830078125;-1.00079345703125;0.009582852013409138;-0.016209596768021584;0.003480218816548586
0.022216796875;-0.1872100830078125;-1.00079345703125;0.009582852013409138;-0.016209596768021584;0.003480218816548586
0.022216796875;-0.1872100830078125;-1.00079345703125;0.009582852013409138;-0.016209596768021584;0.003480218816548586
0.022216796875;-0.1872100830078125;-1.00079345703125;0.009582852013409138;-0.016209596768021584;0.003480218816548586
0.0230865478515625;-0.1878662109375;-0.998138427734375;0.0030977888964116573;-0.006228867452591658;0.007879761047661304
0.0230865478515625;-0.1878662109375;-0.998138427734375;0.0030977888964116573;-0.006228867452591658;0.007879761047661304
0.0230865478515625;-0.1878662109375;-0.998138427734375;0.0030977888964116573;-0.006228867452591658;0.007879761047661304
0.0230865478515625;-0.1878662109375;-0.998138427734375;0.0030977888964116573;-0.006228867452591658;0.007879761047661304
0.0230865478515625;-0.1878662109375;-0.998138427734375;0.0030977888964116573;-0.006228867452591658;0.007879761047661304
0.0225830078125;-0.1888885498046875;-0.9991302490234375;0.0006524744676426053;-0.011327755637466908;0.0028072381392121315
0.0225830078125;-0.1888885498046875;-0.9991302490234375;0.0006524744676426053;-0.011327755637466908;0.0028072381392121315
0.0225830078125;-0.1888885498046875;-0.9991302490234375;0.0006524744676426053;-0.011327755637466908;0.0028072381392121315
0.0225830078125;-0.1888885498046875;-0.9991302490234375;0.0006524744676426053;-0.011327755637466908;0.0028072381392121315
0.0228729248046875;-0.1890869140625;-0.993316650390625;-0.005179582163691521;0.006351639050990343;0.0065202172845602036
0.0228729248046875;-0.1890869140625;-0.993316650390625;-0.005179582163691521;0.006351639050990343;0.0065202172845602036
0.0228729248046875;-0.1890869140625;-0.993316650390625;-0.005179582163691521;0.006351639050990343;0.0065202172845602036
0.0228729248046875;-0.1890869140625;-0.993316650390625;-0.005179582163691521;0.006351639050990343;0.0065202172845602036
0.0228729248046875;-0.1890869140625;-0.993316650390625;-0.005179582163691521;0.006351639050990343;0.0065202172845602036
0.02301025390625;-0.1883392333984375;-0.97943115234375;-0.008100536651909351;0.014570953324437141;0.0025217472575604916
0.02301025390625;-0.1883392333984375;-0.97943115234375;-0.008100536651909351;0.014570953324437141;0.0025217472575604916
0.02301025390625;-0.1883392333984375;-0.97943115234375;-0.008100536651909351;0.014570953324437141;0.0025217472575604916
0.02301025390625;-0.1883392333984375;-0.97943115234375;-0.008100536651909351;0.014570953324437141;0.0025217472575604916
0.02301025390625;-0.1883392333984375;-0.97943115234375;-0.008100536651909351;0.014570953324437141;0.0025217472575604916
0.0214385986328125;-0.18524169921875;-0.98944091796875;0.006187854800373316;0.013132845982909203;0.0020748688839375973
0.0214385986328125;-0.18524169921875;-0.98944091796875;0.006187854800373316;0.013132845982909203;0.0020748688839375973
0.0214385986328125;-0.18524169921875;-0.98944091796875;0.006187854800373316;0.013132845982909203;0.0020748688839375973
0.0214385986328125;-0.18524169921875;-0.98944091796875;0.006187854800373316;0.013132845982909203;0.0020748688839375973
0.0214385986328125;-0.18524169921875;-0.98944091796875;0.006187854800373316;0.013132845982909203;0.0020748688839375973
0.0176239013671875;-0.181854248046875;-1.0139312744140625;0.018858376890420914;-0.0017100156983360648;-0.0010255833622068167
0.0176239013671875;-0.181854248046875;-1.0139312744140625;0.018858376890420914;-0.0017100156983360648;-0.0010255833622068167
0.0176239013671875;-0.181854248046875;-1.0139312744140625;0.018858376890420914;-0.0017100156983360648;-0.0010255833622068167
0.0176239013671875;-0.181854248046875;-1.0139312744140625;0.018858376890420914;-0.0017100156983360648;-0.0010255833622068167
0.0176239013671875;-0.181854248046875;-1.0139312744140625;0.018858376890420914;-0.0017100156983360648;-0.0010255833622068167
0.0186614990234375;-0.181884765625;-1.02215576171875;0.014655109494924545;-0.03801955282688141;0.006485329940915108
0.0186614990234375;-0.181884765625;-1.02215576171875;0.014655109494924545;-0.03801955282688141;0.006485329940915108
0.0186614990234375;-0.181884765625;-1.02215576171875;0.014655109494924545;-0.03801955282688141;0.006485329940915108
0.0186614990234375;-0.181884765625;-1.02215576171875;0.014655109494924545;-0.03801955282688141;0.006485329940915108
0.0186614990234375;-0.181884765625;-1.02215576171875;0.014655109494924545;-0.03801955282688141;0.006485329940915108
0.0201263427734375;-0.1831512451171875;-1.008331298828125;0.005602758377790451;-0.041908036917448044;0.0057103498838841915
0.0201263427734375;-0.1831512451171875;-1.008331298828125;0.005602758377790451;-0.041908036917448044;0.0057103498838841915
0.0201263427734375;-0.1831512451171875;-1.008331298828125;0.005602758377790451;-0.041908036917448044;0.0057103498838841915
0.0201263427734375;-0.1831512451171875;-1.008331298828125;0.005602758377790451;-0.041908036917448044;0.0057103498838841915
0.0201263427734375;-0.1831512451171875;-1.008331298828125;0.005602758377790451;-0.041908036917448044;0.0057103498838841915
0.0175628662109375;-0.183197021484375;-0.9909515380859375;-0.0052363071590662;-0.02406485565006733;0.0023153522051870823
0.0175628662109375;-0.183197021484375;-0.9909515380859375;-0.0052363071590662;-0.02406485565006733;0.0023153522051870823
0.0175628662109375;-0.183197021484375;-0.9909515380859375;-0.0052363071590662;-0.02406485565006733;0.0023153522051870823
0.0175628662109375;-0.183197021484375;-0.9909515380859375;-0.0052363071590662;-0.02406485565006733;0.0023153522051870823
0.0175628662109375;-0.183197021484375;-0.9909515380859375;-0.0052363071590662;-0.02406485565006733;0.0023153522051870823
0.01629638671875;-0.1846771240234375;-0.9777069091796875;-0.0059899818152189255;-0.0008335694437846541;7.297061529243365e-05
0.01629638671875;-0.1846771240234375;-0.9777069091796875;-0.0059899818152189255;-0.0008335694437846541;7.297061529243365e-05
0.01629638671875;-0.1846771240234375;-0.9777069091796875;-0.0059899818152189255;-0.0008335694437846541;7.297061529243365e-05
0.01629638671875;-0.1846771240234375;-0.9777069091796875;-0.0059899818152189255;-0.0008335694437846541;7.297061529243365e-05
0.01629638671875;-0.1846771240234375;-0.9777069091796875;-0.0059899818152189255;-0.0008335694437846541;7.297061529243365e-05
0.01611328125;-0.1844329833984375;-0.9887542724609375;0.007249390706419945;0.0025100293569266796;-0.0020967067684978247
0.01611328125;-0.1844329833984375;-0.9887542724609375;0.007249390706419945;0.0025100293569266796;-0.0020967067684978247
0.01611328125;-0.1844329833984375;-0.9887542724609375;0.007249390706419945;0.0025100293569266796;-0.0020967067684978247
0.01611328125;-0.1844329833984375;-0.9887542724609375;0.007249390706419945;0.0025100293569266796;-0.0020967067684978247
0.01611328125;-0.1844329833984375;-0.9887542724609375;0.007249390706419945;0.0025100293569266796;-0.0020967067684978247
0.017913818359375;-0.1839752197265625;-0.9984130859375;0.02167120762169361;-0.0126420259475708;8.28243064461276e-05
0.017913818359375;-0.1839752197265625;-0.9984130859375;0.02167120762169361;-0.0126420259475708;8.28243064461276e-05
0.017913818359375;-0.1839752197265625;-0.9984130859375;0.02167120762169361;-0.0126420259475708;8.28243064461276e-05
0.017913818359375;-0.1839752197265625;-0.9984130859375;0.02167120762169361;-0.0126420259475708;8.28243064461276e-05
0.017913818359375;-0.1839752197265625;-0.9984130859375;0.02167120762169361;-0.0126420259475708;8.28243064461276e-05
0.0179290771484375;-0.1844482421875;-1.008209228515625;0.027234816923737526;-0.023789219558238983;0.0036970002111047506
0.0179290771484375;-0.1844482421875;-1.008209228515625;0.027234816923737526;-0.023789219558238983;0.0036970002111047506
0.0179290771484375;-0.1844482421875;-1.008209228515625;0.027234816923737526;-0.023789219558238983;0.0036970002111047506
0.0179290771484375;-0.1844482421875;-1.008209228515625;0.027234816923737526;-0.023789219558238983;0.0036970002111047506
0.0179290771484375;-0.1844482421875;-1.008209228515625;0.027234816923737526;-0.023789219558238983;0.0036970002111047506
0.020172119140625;-0.18634033203125;-1.011688232421875;0.025129588320851326;-0.02780659683048725;0.0033902039285749197
0.020172119140625;-0.18634033203125;-1.011688232421875;0.025129588320851326;-0.02780659683048725;0.0033902039285749197
0.020172119140625;-0.18634033203125;-1.011688232421875;0.025129588320851326;-0.02780659683048725;0.0033902039285749197
0.020172119140625;-0.18634033203125;-1.011688232421875;0.025129588320851326;-0.02780659683048725;0.0033902039285749197
0.020172119140625;-0.18634033203125;-1.011688232421875;0.025129588320851326;-0.02780659683048725;0.0033902039285749197
0.02288818359375;-0.188323974609375;-1.0086669921875;0.019766779616475105;-0.02111886814236641;0.003424292430281639
0.02288818359375;-0.188323974609375;-1.0086669921875;0.019766779616475105;-0.02111886814236641;0.003424292430281639
0.02288818359375;-0.188323974609375;-1.0086669921875;0.019766779616475105;-0.02111886814236641;0.003424292430281639
0.02288818359375;-0.188323974609375;-1.0086669921875;0.019766779616475105;-0.02111886814236641;0.003424292430281639
0.02288818359375;-0.188323974609375;-1.0086669921875;0.019766779616475105;-0.02111886814236641;0.003424292430281639
0.0246734619140625;-0.1936798095703125;-1.0043487548828125;0.012645754031836987;-0.016705477610230446;0.0057164751924574375
0.0246734619140625;-0.1936798095703125;-1.0043487548828125;0.012645754031836987;-0.016705477610230446;0.0057164751924574375
0.0246734619140625;-0.1936798095703125;-1.0043487548828125;0.012645754031836987;-0.016705477610230446;0.0057164751924574375
0.0246734619140625;-0.1936798095703125;-1.0043487548828125;0.012645754031836987;-0.016705477610230446;0.0057164751924574375
0.0246734619140625;-0.1936798095703125;-1.0043487548828125;0.012645754031836987;-0.016705477610230446;0.0057164751924574375
0.02313232421875;-0.198089599609375;-0.9990692138671875;-0.0012623383663594723;-0.009584716521203518;0.004019509069621563
0.02313232421875;-0.198089599609375;-0.9990692138671875;-0.0012623383663594723;-0.009584716521203518;0.004019509069621563
0.02313232421875;-0.198089599609375;-0.9990692138671875;-0.0012623383663594723;-0.009584716521203518;0.004019509069621563
0.02313232421875;-0.198089599609375;-0.9990692138671875;-0.0012623383663594723;-0.009584716521203518;0.004019509069621563
0.02313232421875;-0.198089599609375;-0.9990692138671875;-0.0012623383663594723;-0.009584716521203518;0.004019509069621563
0.0218505859375;-0.2007904052734375;-0.997406005859375;-0.012118981219828129;-0.0057313889265060425;0.004132693167775869
0.0218505859375;-0.2007904052734375;-0.997406005859375;-0.012118981219828129;-0.0057313889265060425;0.004132693167775869
0.0218505859375;-0.2007904052734375;-0.997406005859375;-0.012118981219828129;-0.0057313889265060425;0.004132693167775869
0.0218505859375;-0.2007904052734375;-0.997406005859375;-0.012118981219828129;-0.0057313889265060425;0.004132693167775869
0.0218505859375;-0.2007904052734375;-0.997406005859375;-0.012118981219828129;-0.0057313889265060425;0.004132693167775869
0.0194854736328125;-0.2012176513671875;-0.99505615234375;-0.017257550731301308;0.0070581757463514805;0.0038245655596256256
0.0194854736328125;-0.2012176513671875;-0.99505615234375;-0.017257550731301308;0.0070581757463514805;0.0038245655596256256
0.0194854736328125;-0.2012176513671875;-0.99505615234375;-0.017257550731301308;0.0070581757463514805;0.0038245655596256256
0.0194854736328125;-0.2012176513671875;-0.99505615234375;-0.017257550731301308;0.0070581757463514805;0.0038245655596256256
0.0194854736328125;-0.2012176513671875;-0.99505615234375;-0.017257550731301308;0.0070581757463514805;0.0038245655596256256
0.020263671875;-0.1985931396484375;-0.9949951171875;-0.015919843688607216;0.011070494540035725;0.006583068054169416
0.020263671875;-0.1985931396484375;-0.9949951171875;-0.015919843688607216;0.011070494540035725;0.006583068054169416
0.020263671875;-0.1985931396484375;-0.9949951171875;-0.015919843688607216;0.011070494540035725;0.006583068054169416
0.020263671875;-0.1985931396484375;-0.9949951171875;-0.015919843688607216;0.011070494540035725;0.006583068054169416
0.022216796875;-0.194366455078125;-0.9969635009765625;-0.01034638099372387;0.008833172731101513;0.007637679576873779
0.022216796875;-0.194366455078125;-0.9969635009765625;-0.01034638099372387;0.008833172731101513;0.007637679576873779
0.022216796875;-0.194366455078125;-0.9969635009765625;-0.01034638099372387;0.008833172731101513;0.007637679576873779
0.022216796875;-0.194366455078125;-0.9969635009765625;-0.01034638099372387;0.008833172731101513;0.007637679576873779
0.022216796875;-0.194366455078125;-0.9969635009765625;-0.01034638099372387;0.008833172731101513;0.007637679576873779
0.022216796875;-0.194366455078125;-0.9969635009765625;-0.007899735122919083;0.006603308022022247;0.007926099933683872
0.02325439453125;-0.1903228759765625;-1.00628662109375;-0.007899735122919083;0.006603308022022247;0.007926099933683872
0.02325439453125;-0.1903228759765625;-1.00628662109375;-0.007899735122919083;0.006603308022022247;0.007926099933683872
0.02325439453125;-0.1903228759765625;-1.00628662109375;-0.007899735122919083;0.006603308022022247;0.007926099933683872
0.02325439453125;-0.1903228759765625;-1.00628662109375;-0.007899735122919083;0.006603308022022247;0.007926099933683872
0.02325439453125;-0.1903228759765625;-1.00628662109375;-0.0035571842454373837;0.006842725910246372;0.003930026665329933
0.0250701904296875;-0.1887664794921875;-1.0122528076171875;-0.0035571842454373837;0.006842725910246372;0.003930026665329933
0.0250701904296875;-0.1887664794921875;-1.0122528076171875;-0.0035571842454373837;0.006842725910246372;0.003930026665329933
0.0250701904296875;-0.1887664794921875;-1.0122528076171875;-0.0035571842454373837;0.006842725910246372;0.003930026665329933
0.0250701904296875;-0.1887664794921875;-1.0122528076171875;-0.0035571842454373837;0.006842725910246372;0.003930026665329933
0.0250701904296875;-0.1887664794921875;-1.0122528076171875;-0.011714979074895382;0.007210774812847376;0.00044767739018425345
0.026092529296875;-0.1871185302734375;-1.0108489990234375;-0.011714979074895382;0.007210774812847376;0.00044767739018425345
0.026092529296875;-0.1871185302734375;-1.0108489990234375;-0.011714979074895382;0.007210774812847376;0.00044767739018425345
0.026092529296875;-0.1871185302734375;-1.0108489990234375;-0.011714979074895382;0.007210774812847376;0.00044767739018425345
0.026092529296875;-0.1871185302734375;-1.0108489990234375;-0.011714979074895382;0.007210774812847376;0.00044767739018425345
0.026092529296875;-0.1871185302734375;-1.0108489990234375;-0.022227007895708084;0.009095493704080582;0.0009286442655138671
0.0272216796875;-0.18780517578125;-1.010162353515625;-0.022227007895708084;0.009095493704080582;0.0009286442655138671
0.0272216796875;-0.18780517578125;-1.010162353515625;-0.022227007895708084;0.009095493704080582;0.0009286442655138671
0.0272216796875;-0.18780517578125;-1.010162353515625;-0.022227007895708084;0.009095493704080582;0.0009286442655138671
0.0272216796875;-0.18780517578125;-1.010162353515625;-0.022227007895708084;0.009095493704080582;0.0009286442655138671
0.0264892578125;-0.188720703125;-1.00640869140625;-0.030459905043244362;0.006171077024191618;-0.0041095237247645855
0.0264892578125;-0.188720703125;-1.00640869140625;-0.030459905043244362;0.006171077024191618;-0.0041095237247645855
0.0264892578125;-0.188720703125;-1.00640869140625;-0.030459905043244362;0.006171077024191618;-0.0041095237247645855
0.0264892578125;-0.188720703125;-1.00640869140625;-0.030459905043244362;0.006171077024191618;-0.0041095237247645855
0.0264892578125;-0.188720703125;-1.00640869140625;-0.030459905043244362;0.006171077024191618;-0.0041095237247645855
0.02410888671875;-0.1886138916015625;-1.0037384033203125;-0.0356283001601696;0.005397961009293795;-0.0036045885644853115
0.02410888671875;-0.1886138916015625;-1.0037384033203125;-0.0356283001601696;0.005397961009293795;-0.0036045885644853115
0.02410888671875;-0.1886138916015625;-1.0037384033203125;-0.0356283001601696;0.005397961009293795;-0.0036045885644853115
0.02410888671875;-0.1886138916015625;-1.0037384033203125;-0.0356283001601696;0.005397961009293795;-0.0036045885644853115
0.02410888671875;-0.1886138916015625;-1.0037384033203125;-0.0356283001601696;0.005397961009293795;-0.0036045885644853115
0.0231781005859375;-0.1860198974609375;-1.003570556640625;-0.03111957013607025;0.007730091456323862;-0.0029824741650372744
0.0231781005859375;-0.1860198974609375;-1.003570556640625;-0.03111957013607025;0.007730091456323862;-0.0029824741650372744
0.0231781005859375;-0.1860198974609375;-1.003570556640625;-0.03111957013607025;0.007730091456323862;-0.0029824741650372744
0.0231781005859375;-0.1860198974609375;-1.003570556640625;-0.03111957013607025;0.007730091456323862;-0.0029824741650372744
0.0231781005859375;-0.1860198974609375;-1.003570556640625;-0.03111957013607025;0.007730091456323862;-0.0029824741650372744
0.022979736328125;-0.1822509765625;-1.0023193359375;-0.01744263991713524;-0.006416087504476309;0.002360359765589237
0.022979736328125;-0.1822509765625;-1.0023193359375;-0.01744263991713524;-0.006416087504476309;0.002360359765589237
0.022979736328125;-0.1822509765625;-1.0023193359375;-0.01744263991713524;-0.006416087504476309;0.002360359765589237
0.022979736328125;-0.1822509765625;-1.0023193359375;-0.01744263991713524;-0.006416087504476309;0.002360359765589237
0.022979736328125;-0.1822509765625;-1.0023193359375;-0.01744263991713524;-0.006416087504476309;0.002360359765589237
0.0238037109375;-0.179107666015625;-1.003387451171875;-0.005638711154460907;-0.01549453753978014;0.00452950457111001
0.0238037109375;-0.179107666015625;-1.003387451171875;-0.005638711154460907;-0.01549453753978014;0.00452950457111001
0.0238037109375;-0.179107666015625;-1.003387451171875;-0.005638711154460907;-0.01549453753978014;0.00452950457111001
0.0238037109375;-0.179107666015625;-1.003387451171875;-0.005638711154460907;-0.01549453753978014;0.00452950457111001
0.0238037109375;-0.179107666015625;-1.003387451171875;-0.005638711154460907;-0.01549453753978014;0.00452950457111001
0.0246429443359375;-0.1772308349609375;-1.0055389404296875;0.0032168321777135134;-0.01841309480369091;0.007802262902259827
0.0246429443359375;-0.1772308349609375;-1.0055389404296875;0.0032168321777135134;-0.01841309480369091;0.007802262902259827
0.0246429443359375;-0.1772308349609375;-1.0055389404296875;0.0032168321777135134;-0.01841309480369091;0.007802262902259827
0.0246429443359375;-0.1772308349609375;-1.0055389404296875;0.0032168321777135134;-0.01841309480369091;0.007802262902259827
0.0246429443359375;-0.1772308349609375;-1.0055389404296875;0.0032168321777135134;-0.01841309480369091;0.007802262902259827
0.0242462158203125;-0.1782989501953125;-1.0030517578125;0.002666090615093708;-0.011875834316015244;0.01125318743288517
0.0242462158203125;-0.1782989501953125;-1.0030517578125;0.002666090615093708;-0.011875834316015244;0.01125318743288517
0.0242462158203125;-0.1782989501953125;-1.0030517578125;0.002666090615093708;-0.011875834316015244;0.01125318743288517
0.0242462158203125;-0.1782989501953125;-1.0030517578125;0.002666090615093708;-0.011875834316015244;0.01125318743288517
0.0242462158203125;-0.1782989501953125;-1.0030517578125;0.002666090615093708;-0.011875834316015244;0.01125318743288517
0.022857666015625;-0.181182861328125;-1.0011138916015625;0.0018522285390645266;-0.0068326061591506;0.007930360734462738
0.022857666015625;-0.181182861328125;-1.0011138916015625;0.0018522285390645266;-0.0068326061591506;0.007930360734462738
0.022857666015625;-0.181182861328125;-1.0011138916015625;0.0018522285390645266;-0.0068326061591506;0.007930360734462738
0.022857666015625;-0.181182861328125;-1.0011138916015625;0.0018522285390645266;-0.0068326061591506;0.007930360734462738
0.022857666015625;-0.181182861328125;-1.0011138916015625;0.0018522285390645266;-0.0068326061591506;0.007930360734462738
0.020965576171875;-0.18463134765625;-1.0019683837890625;-0.00370072852820158;-0.004480235744267702;0.011099789291620255
0.020965576171875;-0.18463134765625;-1.0019683837890625;-0.00370072852820158;-0.004480235744267702;0.011099789291620255
0.020965576171875;-0.18463134765625;-1.0019683837890625;-0.00370072852820158;-0.004480235744267702;0.011099789291620255
0.020965576171875;-0.18463134765625;-1.0019683837890625;-0.00370072852820158;-0.004480235744267702;0.011099789291620255
0.020965576171875;-0.18463134765625;-1.0019683837890625;-0.00370072852820158;-0.004480235744267702;0.011099789291620255
0.020111083984375;-0.1882476806640625;-1.0027008056640625;-0.004339620936661959;0.0014855111949145794;0.010909639298915863
0.020111083984375;-0.1882476806640625;-1.0027008056640625;-0.004339620936661959;0.0014855111949145794;0.010909639298915863
0.020111083984375;-0.1882476806640625;-1.0027008056640625;-0.004339620936661959;0.0014855111949145794;0.010909639298915863
0.020111083984375;-0.1882476806640625;-1.0027008056640625;-0.004339620936661959;0.0014855111949145794;0.010909639298915863
0.020111083984375;-0.1882476806640625;-1.0027008056640625;-0.004339620936661959;0.0014855111949145794;0.010909639298915863
0.018951416015625;-0.19207763671875;-1.002593994140625;-0.01251286268234253;-0.008870989084243774;0.0064922538585960865
0.018951416015625;-0.19207763671875;-1.002593994140625;-0.01251286268234253;-0.008870989084243774;0.0064922538585960865
0.018951416015625;-0.19207763671875;-1.002593994140625;-0.01251286268234253;-0.008870989084243774;0.0064922538585960865
0.018951416015625;-0.19207763671875;-1.002593994140625;-0.01251286268234253;-0.008870989084243774;0.0064922538585960865
0.018951416015625;-0.19207763671875;-1.002593994140625;-0.01251286268234253;-0.008870989084243774;0.0064922538585960865
0.0173492431640625;-0.19622802734375;-1.0043487548828125;-0.021029917523264885;-0.006410228554159403;0.00899908784776926
0.0173492431640625;-0.19622802734375;-1.0043487548828125;-0.021029917523264885;-0.006410228554159403;0.00899908784776926
0.0173492431640625;-0.19622802734375;-1.0043487548828125;-0.021029917523264885;-0.006410228554159403;0.00899908784776926
0.0173492431640625;-0.19622802734375;-1.0043487548828125;-0.021029917523264885;-0.006410228554159403;0.00899908784776926
0.0173492431640625;-0.19622802734375;-1.0043487548828125;-0.021029917523264885;-0.006410228554159403;0.00899908784776926
0.0168914794921875;-0.1979217529296875;-1.0007781982421875;-0.03110305778682232;0.006902380846440792;0.004805940669029951
0.0168914794921875;-0.1979217529296875;-1.0007781982421875;-0.03110305778682232;0.006902380846440792;0.004805940669029951
0.0168914794921875;-0.1979217529296875;-1.0007781982421875;-0.03110305778682232;0.006902380846440792;0.004805940669029951
0.0168914794921875;-0.1979217529296875;-1.0007781982421875;-0.03110305778682232;0.006902380846440792;0.004805940669029951
0.0168914794921875;-0.1979217529296875;-1.0007781982421875;-0.03110305778682232;0.006902380846440792;0.004805940669029951
0.0181732177734375;-0.1966400146484375;-0.99334716796875;-0.03834552317857742;0.014198110438883305;-0.00023915186466183513
0.0181732177734375;-0.1966400146484375;-0.99334716796875;-0.03834552317857742;0.014198110438883305;-0.00023915186466183513
0.0181732177734375;-0.1966400146484375;-0.99334716796875;-0.03834552317857742;0.014198110438883305;-0.00023915186466183513
0.0181732177734375;-0.1966400146484375;-0.99334716796875;-0.03834552317857742;0.014198110438883305;-0.00023915186466183513
0.0181732177734375;-0.1966400146484375;-0.99334716796875;-0.03834552317857742;0.014198110438883305;-0.00023915186466183513
0.016815185546875;-0.192718505859375;-0.9943695068359375;-0.03933195769786835;0.016516659408807755;0.0029230855870991945
0.016815185546875;-0.192718505859375;-0.9943695068359375;-0.03933195769786835;0.016516659408807755;0.0029230855870991945
0.016815185546875;-0.192718505859375;-0.9943695068359375;-0.03933195769786835;0.016516659408807755;0.0029230855870991945
0.016815185546875;-0.192718505859375;-0.9943695068359375;-0.03933195769786835;0.016516659408807755;0.0029230855870991945
0.016815185546875;-0.192718505859375;-0.9943695068359375;-0.03933195769786835;0.016516659408807755;0.0029230855870991945
0.0179595947265625;-0.1897735595703125;-0.9966278076171875;-0.030727818608283997;0.00669492082670331;0.0023790018167346716
0.0179595947265625;-0.1897735595703125;-0.9966278076171875;-0.030727818608283997;0.00669492082670331;0.0023790018167346716
0.0179595947265625;-0.1897735595703125;-0.9966278076171875;-0.030727818608283997;0.00669492082670331;0.0023790018167346716
0.0179595947265625;-0.1897735595703125;-0.9966278076171875;-0.030727818608283997;0.00669492082670331;0.0023790018167346716
0.0179595947265625;-0.1897735595703125;-0.9966278076171875;-0.030727818608283997;0.00669492082670331;0.0023790018167346716
0.0166473388671875;-0.184967041015625;-0.998626708984375;-0.012598616071045399;0.004515123087912798;-0.000898550555575639
0.0166473388671875;-0.184967041015625;-0.998626708984375;-0.012598616071045399;0.004515123087912798;-0.000898550555575639
0.0166473388671875;-0.184967041015625;-0.998626708984375;-0.012598616071045399;0.004515123087912798;-0.000898550555575639
0.0166473388671875;-0.184967041015625;-0.998626708984375;-0.012598616071045399;0.004515123087912798;-0.000898550555575639
0.0166473388671875;-0.184967041015625;-0.998626708984375;-0.012598616071045399;0.004515123087912798;-0.000898550555575639
0.0167236328125;-0.1809539794921875;-0.99993896484375;0.002409095410257578;0.0018953717080876231;0.0009574064170010388
0.0167236328125;-0.1809539794921875;-0.99993896484375;0.002409095410257578;0.0018953717080876231;0.0009574064170010388
0.0167236328125;-0.1809539794921875;-0.99993896484375;0.002409095410257578;0.0018953717080876231;0.0009574064170010388
0.0167236328125;-0.1809539794921875;-0.99993896484375;0.002409095410257578;0.0018953717080876231;0.0009574064170010388
0.0167236328125;-0.1809539794921875;-0.99993896484375;0.002409095410257578;0.0018953717080876231;0.0009574064170010388
0.0200653076171875;-0.1786346435546875;-1.001373291015625;0.010086189955472946;0.0014444985426962376;0.00683154072612524
0.0200653076171875;-0.1786346435546875;-1.001373291015625;0.010086189955472946;0.0014444985426962376;0.00683154072612524
0.0200653076171875;-0.1786346435546875;-1.001373291015625;0.010086189955472946;0.0014444985426962376;0.00683154072612524
0.0200653076171875;-0.1786346435546875;-1.001373291015625;0.010086189955472946;0.0014444985426962376;0.00683154072612524
0.0200653076171875;-0.1786346435546875;-1.001373291015625;0.010086189955472946;0.0014444985426962376;0.00683154072612524
0.021026611328125;-0.1774749755859375;-1.003875732421875;0.017545970156788826;-0.003900465788319707;0.008328503929078579
0.021026611328125;-0.1774749755859375;-1.003875732421875;0.017545970156788826;-0.003900465788319707;0.008328503929078579
0.021026611328125;-0.1774749755859375;-1.003875732421875;0.017545970156788826;-0.003900465788319707;0.008328503929078579
0.021026611328125;-0.1774749755859375;-1.003875732421875;0.017545970156788826;-0.003900465788319707;0.008328503929078579
0.021026611328125;-0.1774749755859375;-1.003875732421875;0.017545970156788826;-0.003900465788319707;0.008328503929078579
0.0219573974609375;-0.1785888671875;-1.0054473876953125;0.015004249289631844;-0.003322825999930501;0.006129798013716936
0.0219573974609375;-0.1785888671875;-1.0054473876953125;0.015004249289631844;-0.003322825999930501;0.006129798013716936
0.0219573974609375;-0.1785888671875;-1.0054473876953125;0.015004249289631844;-0.003322825999930501;0.006129798013716936
0.0219573974609375;-0.1785888671875;-1.0054473876953125;0.015004249289631844;-0.003322825999930501;0.006129798013716936
0.0219573974609375;-0.1785888671875;-1.0054473876953125;0.015004249289631844;-0.003322825999930501;0.006129798013716936
0.0219879150390625;-0.181396484375;-1.0040283203125;0.011623899452388287;-0.0005624596378766;0.0070762853138148785
0.0219879150390625;-0.181396484375;-1.0040283203125;0.011623899452388287;-0.0005624596378766;0.0070762853138148785
0.0219879150390625;-0.181396484375;-1.0040283203125;0.011623899452388287;-0.0005624596378766;0.0070762853138148785
0.0219879150390625;-0.181396484375;-1.0040283203125;0.011623899452388287;-0.0005624596378766;0.0070762853138148785
0.0219879150390625;-0.181396484375;-1.0040283203125;0.011623899452388287;-0.0005624596378766;0.0070762853138148785
0.02044677734375;-0.18304443359375;-1.004180908203125;0.008684834465384483;0.00014141385327093303;0.008989499881863594
0.02044677734375;-0.18304443359375;-1.004180908203125;0.008684834465384483;0.00014141385327093303;0.008989499881863594
0.02044677734375;-0.18304443359375;-1.004180908203125;0.008684834465384483;0.00014141385327093303;0.008989499881863594
0.02044677734375;-0.18304443359375;-1.004180908203125;0.008684834465384483;0.00014141385327093303;0.008989499881863594
0.02044677734375;-0.18304443359375;-1.004180908203125;0.008684834465384483;0.00014141385327093303;0.008989499881863594
0.0184173583984375;-0.186614990234375;-1.0044403076171875;0.0005243764026090503;-0.0025648903101682663;0.004880775231868029
0.0184173583984375;-0.186614990234375;-1.0044403076171875;0.0005243764026090503;-0.0025648903101682663;0.004880775231868029
0.0184173583984375;-0.186614990234375;-1.0044403076171875;0.0005243764026090503;-0.0025648903101682663;0.004880775231868029
0.0184173583984375;-0.186614990234375;-1.0044403076171875;0.0005243764026090503;-0.0025648903101682663;0.004880775231868029
0.0184173583984375;-0.186614990234375;-1.0044403076171875;0.0005243764026090503;-0.0025648903101682663;0.004880775231868029
0.0178070068359375;-0.18719482421875;-1.0024261474609375;0.0019744676537811756;-0.006729808170348406;0.0038922098465263844
0.0178070068359375;-0.18719482421875;-1.0024261474609375;0.0019744676537811756;-0.006729808170348406;0.0038922098465263844
0.0178070068359375;-0.18719482421875;-1.0024261474609375;0.0019744676537811756;-0.006729808170348406;0.0038922098465263844
0.0178070068359375;-0.18719482421875;-1.0024261474609375;0.0019744676537811756;-0.006729808170348406;0.0038922098465263844
0.0178070068359375;-0.18719482421875;-1.0024261474609375;0.0019744676537811756;-0.006729808170348406;0.0038922098465263844
0.0176544189453125;-0.1876373291015625;-1.0003204345703125;0.0008173241512849927;-0.005164934787899256;0.008252603933215141
0.0176544189453125;-0.1876373291015625;-1.0003204345703125;0.0008173241512849927;-0.005164934787899256;0.008252603933215141
0.0176544189453125;-0.1876373291015625;-1.0003204345703125;0.0008173241512849927;-0.005164934787899256;0.008252603933215141
0.0176544189453125;-0.1876373291015625;-1.0003204345703125;0.0008173241512849927;-0.005164934787899256;0.008252603933215141
0.0176544189453125;-0.1876373291015625;-1.0003204345703125;0.0008173241512849927;-0.005164934787899256;0.008252603933215141
0.0190582275390625;-0.1865997314453125;-0.9994354248046875;-0.005627791862934828;-0.002746784361079335;0.008431834168732166
0.0190582275390625;-0.1865997314453125;-0.9994354248046875;-0.005627791862934828;-0.002746784361079335;0.008431834168732166
0.0190582275390625;-0.1865997314453125;-0.9994354248046875;-0.005627791862934828;-0.002746784361079335;0.008431834168732166
0.0190582275390625;-0.1865997314453125;-0.9994354248046875;-0.005627791862934828;-0.002746784361079335;0.008431834168732166
0.0190582275390625;-0.1865997314453125;-0.9994354248046875;-0.005627791862934828;-0.002746784361079335;0.008431834168732166
0.02020263671875;-0.185028076171875;-1.000457763671875;-0.007829426787793636;-0.008891495876014233;0.0029257487040013075
0.02020263671875;-0.185028076171875;-1.000457763671875;-0.007829426787793636;-0.008891495876014233;0.0029257487040013075
0.02020263671875;-0.185028076171875;-1.000457763671875;-0.007829426787793636;-0.008891495876014233;0.0029257487040013075
0.02020263671875;-0.185028076171875;-1.000457763671875;-0.007829426787793636;-0.008891495876014233;0.0029257487040013075
0.02020263671875;-0.185028076171875;-1.000457763671875;-0.007829426787793636;-0.008891495876014233;0.0029257487040013075
0.0213470458984375;-0.1839599609375;-0.998870849609375;-0.004236023873090744;-0.00875088106840849;0.0035843485966324806
0.0213470458984375;-0.1839599609375;-0.998870849609375;-0.004236023873090744;-0.00875088106840849;0.0035843485966324806
0.0213470458984375;-0.1839599609375;-0.998870849609375;-0.004236023873090744;-0.00875088106840849;0.0035843485966324806
0.0213470458984375;-0.1839599609375;-0.998870849609375;-0.004236023873090744;-0.00875088106840849;0.0035843485966324806
0.0213470458984375;-0.1839599609375;-0.998870849609375;-0.004236023873090744;-0.00875088106840849;0.0035843485966324806
0.0225067138671875;-0.184051513671875;-0.997802734375;-0.006296245381236076;0.0009526127250865102;0.0011579424608498812
0.0225067138671875;-0.184051513671875;-0.997802734375;-0.006296245381236076;0.0009526127250865102;0.0011579424608498812
0.0225067138671875;-0.184051513671875;-0.997802734375;-0.006296245381236076;0.0009526127250865102;0.0011579424608498812
0.0225067138671875;-0.184051513671875;-0.997802734375;-0.006296245381236076;0.0009526127250865102;0.0011579424608498812
0.0225067138671875;-0.184051513671875;-0.997802734375;-0.006296245381236076;0.0009526127250865102;0.0011579424608498812
0.0228729248046875;-0.1830291748046875;-0.9961395263671875;-0.006066680885851383;0.0030013825744390488;-0.0014301175251603127
0.0228729248046875;-0.1830291748046875;-0.9961395263671875;-0.006066680885851383;0.0030013825744390488;-0.0014301175251603127
0.0228729248046875;-0.1830291748046875;-0.9961395263671875;-0.006066680885851383;0.0030013825744390488;-0.0014301175251603127
0.0228729248046875;-0.1830291748046875;-0.9961395263671875;-0.006066680885851383;0.0030013825744390488;-0.0014301175251603127
0.0228729248046875;-0.1830291748046875;-0.9961395263671875;-0.006066680885851383;0.0030013825744390488;-0.0014301175251603127
0.02398681640625;-0.1833343505859375;-0.9980621337890625;-0.00746084563434124;0.0024264061357825994;-0.0021465078461915255
0.02398681640625;-0.1833343505859375;-0.9980621337890625;-0.00746084563434124;0.0024264061357825994;-0.0021465078461915255
0.02398681640625;-0.1833343505859375;-0.9980621337890625;-0.00746084563434124;0.0024264061357825994;-0.0021465078461915255
0.02398681640625;-0.1833343505859375;-0.9980621337890625;-0.00746084563434124;0.0024264061357825994;-0.0021465078461915255
0.02398681640625;-0.1833343505859375;-0.9980621337890625;-0.00746084563434124;0.0024264061357825994;-0.0021465078461915255
0.02471923828125;-0.1835784912109375;-0.998443603515625;-0.011376225389540195;-0.0006021407316438854;-0.00711729796603322
0.02471923828125;-0.1835784912109375;-0.998443603515625;-0.011376225389540195;-0.0006021407316438854;-0.00711729796603322
0.02471923828125;-0.1835784912109375;-0.998443603515625;-0.011376225389540195;-0.0006021407316438854;-0.00711729796603322
0.02471923828125;-0.1835784912109375;-0.998443603515625;-0.011376225389540195;-0.0006021407316438854;-0.00711729796603322
0.02471923828125;-0.1835784912109375;-0.998443603515625;-0.011376225389540195;-0.0006021407316438854;-0.00711729796603322
0.023773193359375;-0.18450927734375;-0.998504638671875;-0.01733025349676609;0.0012383698485791683;-0.005318066570907831
0.023773193359375;-0.18450927734375;-0.998504638671875;-0.01733025349676609;0.0012383698485791683;-0.005318066570907831
0.023773193359375;-0.18450927734375;-0.998504638671875;-0.01733025349676609;0.0012383698485791683;-0.005318066570907831
0.023773193359375;-0.18450927734375;-0.998504638671875;-0.01733025349676609;0.0012383698485791683;-0.005318066570907831
0.023773193359375;-0.18450927734375;-0.998504638671875;-0.01733025349676609;0.0012383698485791683;-0.005318066570907831
0.024200439453125;-0.1843719482421875;-0.994720458984375;-0.022888271138072014;0.008159126155078411;-0.005056277383118868
0.024200439453125;-0.1843719482421875;-0.994720458984375;-0.022888271138072014;0.008159126155078411;-0.005056277383118868
0.024200439453125;-0.1843719482421875;-0.994720458984375;-0.022888271138072014;0.008159126155078411;-0.005056277383118868
0.024200439453125;-0.1843719482421875;-0.994720458984375;-0.022888271138072014;0.008159126155078411;-0.005056277383118868
0.024200439453125;-0.1843719482421875;-0.994720458984375;-0.02533997781574726;0.01654701866209507;-0.007607319392263889
0.0231781005859375;-0.1839447021484375;-0.9943389892578125;-0.02533997781574726;0.01654701866209507;-0.007607319392263889
0.0231781005859375;-0.1839447021484375;-0.9943389892578125;-0.02533997781574726;0.01654701866209507;-0.007607319392263889
0.0231781005859375;-0.1839447021484375;-0.9943389892578125;-0.02533997781574726;0.01654701866209507;-0.007607319392263889
0.0231781005859375;-0.1839447021484375;-0.9943389892578125;-0.02533997781574726;0.01654701866209507;-0.007607319392263889
0.0231781005859375;-0.1839447021484375;-0.9943389892578125;-0.02533997781574726;0.01654701866209507;-0.007607319392263889
0.02423095703125;-0.1833953857421875;-0.9970703125;-0.021589182317256927;0.019296465441584587;-0.006128998938947916
0.02423095703125;-0.1833953857421875;-0.9970703125;-0.021589182317256927;0.019296465441584587;-0.006128998938947916
0.02423095703125;-0.1833953857421875;-0.9970703125;-0.021589182317256927;0.019296465441584587;-0.006128998938947916
0.02423095703125;-0.1833953857421875;-0.9970703125;-0.021589182317256927;0.019296465441584587;-0.006128998938947916
0.02423095703125;-0.1833953857421875;-0.9970703125;-0.01660773903131485;0.01841149851679802;-0.0049462891183793545
0.024749755859375;-0.183441162109375;-1.0008697509765625;-0.01660773903131485;0.01841149851679802;-0.0049462891183793545
0.024749755859375;-0.183441162109375;-1.0008697509765625;-0.01660773903131485;0.01841149851679802;-0.0049462891183793545
0.024749755859375;-0.183441162109375;-1.0008697509765625;-0.01660773903131485;0.01841149851679802;-0.0049462891183793545
0.024749755859375;-0.183441162109375;-1.0008697509765625;-0.01660773903131485;0.01841149851679802;-0.0049462891183793545
0.0244140625;-0.18316650390625;-1.003082275390625;-0.014153369702398777;0.016598684713244438;-0.0037521275226026773
0.0244140625;-0.18316650390625;-1.003082275390625;-0.014153369702398777;0.016598684713244438;-0.0037521275226026773
0.0244140625;-0.18316650390625;-1.003082275390625;-0.014153369702398777;0.016598684713244438;-0.0037521275226026773
0.0244140625;-0.18316650390625;-1.003082275390625;-0.014153369702398777;0.016598684713244438;-0.0037521275226026773
0.0244140625;-0.18316650390625;-1.003082275390625;-0.014153369702398777;0.016598684713244438;-0.0037521275226026773
0.0244140625;-0.18316650390625;-1.003082275390625;-0.011456119827926159;0.014825551770627499;-0.0019097528420388699
0.024261474609375;-0.183624267578125;-1.00335693359375;-0.011456119827926159;0.014825551770627499;-0.0019097528420388699
0.024261474609375;-0.183624267578125;-1.00335693359375;-0.011456119827926159;0.014825551770627499;-0.0019097528420388699
0.024261474609375;-0.183624267578125;-1.00335693359375;-0.011456119827926159;0.014825551770627499;-0.0019097528420388699
0.024261474609375;-0.183624267578125;-1.00335693359375;-0.011456119827926159;0.014825551770627499;-0.0019097528420388699
0.0241241455078125;-0.1846160888671875;-1.0033721923828125;-0.010218016803264618;0.019209381192922592;-0.0017393104499205947
0.0241241455078125;-0.1846160888671875;-1.0033721923828125;-0.010218016803264618;0.019209381192922592;-0.0017393104499205947
0.0241241455078125;-0.1846160888671875;-1.0033721923828125;-0.010218016803264618;0.019209381192922592;-0.0017393104499205947
0.0241241455078125;-0.1846160888671875;-1.0033721923828125;-0.010218016803264618;0.019209381192922592;-0.0017393104499205947
0.0241241455078125;-0.1846160888671875;-1.0033721923828125;-0.010218016803264618;0.019209381192922592;-0.0017393104499205947
0.0238037109375;-0.1854248046875;-1.0019073486328125;-0.015105982311069965;0.015984825789928436;0.0009515474666841328
0.0238037109375;-0.1854248046875;-1.0019073486328125;-0.015105982311069965;0.015984825789928436;0.0009515474666841328
0.0238037109375;-0.1854248046875;-1.0019073486328125;-0.015105982311069965;0.015984825789928436;0.0009515474666841328
0.0238037109375;-0.1854248046875;-1.0019073486328125;-0.015105982311069965;0.015984825789928436;0.0009515474666841328
0.0238037109375;-0.1854248046875;-1.0019073486328125;-0.015105982311069965;0.015984825789928436;0.0009515474666841328
0.0243988037109375;-0.1864471435546875;-0.9991302490234375;-0.017597103491425514;0.013793043792247772;0.0005094627267681062
0.0243988037109375;-0.1864471435546875;-0.9991302490234375;-0.017597103491425514;0.013793043792247772;0.0005094627267681062
0.0243988037109375;-0.1864471435546875;-0.9991302490234375;-0.017597103491425514;0.013793043792247772;0.0005094627267681062
0.0243988037109375;-0.1864471435546875;-0.9991302490234375;-0.017597103491425514;0.013793043792247772;0.0005094627267681062
0.0243988037109375;-0.1864471435546875;-0.9991302490234375;-0.017597103491425514;0.013793043792247772;0.0005094627267681062
0.024627685546875;-0.1860504150390625;-0.999542236328125;-0.0180000402033329;0.009485913440585136;0.002628007438033819
0.024627685546875;-0.1860504150390625;-0.999542236328125;-0.0180000402033329;0.009485913440585136;0.002628007438033819
0.024627685546875;-0.1860504150390625;-0.999542236328125;-0.0180000402033329;0.009485913440585136;0.002628007438033819
0.024627685546875;-0.1860504150390625;-0.999542236328125;-0.0180000402033329;0.009485913440585136;0.002628007438033819
0.024627685546875;-0.1860504150390625;-0.999542236328125;-0.0180000402033329;0.009485913440585136;0.002628007438033819
0.0247955322265625;-0.18719482421875;-1.0002288818359375;-0.014933409169316292;0.012111257761716843;0.0002495381922926754
0.0247955322265625;-0.18719482421875;-1.0002288818359375;-0.014933409169316292;0.012111257761716843;0.0002495381922926754
0.0247955322265625;-0.18719482421875;-1.0002288818359375;-0.014933409169316292;0.012111257761716843;0.0002495381922926754
0.0247955322265625;-0.18719482421875;-1.0002288818359375;-0.014933409169316292;0.012111257761716843;0.0002495381922926754
0.0247955322265625;-0.18719482421875;-1.0002288818359375;-0.014933409169316292;0.012111257761716843;0.0002495381922926754
0.02398681640625;-0.186004638671875;-1.0012054443359375;-0.014788267202675343;0.007987353019416332;0.0030104373581707478
0.02398681640625;-0.186004638671875;-1.0012054443359375;-0.014788267202675343;0.007987353019416332;0.0030104373581707478
0.02398681640625;-0.186004638671875;-1.0012054443359375;-0.014788267202675343;0.007987353019416332;0.0030104373581707478
0.02398681640625;-0.186004638671875;-1.0012054443359375;-0.014788267202675343;0.007987353019416332;0.0030104373581707478
0.02398681640625;-0.186004638671875;-1.0012054443359375;-0.014788267202675343;0.007987353019416332;0.0030104373581707478
0.0234222412109375;-0.184112548828125;-1.0020294189453125;-0.01661466248333454;0.00433003343641758;0.002698581200093031
0.0234222412109375;-0.184112548828125;-1.0020294189453125;-0.01661466248333454;0.00433003343641758;0.002698581200093031
0.0234222412109375;-0.184112548828125;-1.0020294189453125;-0.01661466248333454;0.00433003343641758;0.002698581200093031
0.0234222412109375;-0.184112548828125;-1.0020294189453125;-0.01661466248333454;0.00433003343641758;0.002698581200093031
0.0234222412109375;-0.184112548828125;-1.0020294189453125;-0.01661466248333454;0.00433003343641758;0.002698581200093031
0.0223236083984375;-0.1834869384765625;-1.0009918212890625;-0.01612544059753418;0.0054419031366705894;0.003063700394704938
0.0223236083984375;-0.1834869384765625;-1.0009918212890625;-0.01612544059753418;0.0054419031366705894;0.003063700394704938
0.0223236083984375;-0.1834869384765625;-1.0009918212890625;-0.01612544059753418;0.0054419031366705894;0.003063700394704938
0.0223236083984375;-0.1834869384765625;-1.0009918212890625;-0.01612544059753418;0.0054419031366705894;0.003063700394704938
0.0223236083984375;-0.1834869384765625;-1.0009918212890625;-0.01612544059753418;0.0054419031366705894;0.003063700394704938
0.0223541259765625;-0.1819000244140625;-0.9997711181640625;-0.012536032125353813;0.00044794369023293257;0.0004223773430567235
0.0223541259765625;-0.1819000244140625;-0.9997711181640625;-0.012536032125353813;0.00044794369023293257;0.0004223773430567235
0.0223541259765625;-0.1819000244140625;-0.9997711181640625;-0.012536032125353813;0.00044794369023293257;0.0004223773430567235
0.0223541259765625;-0.1819000244140625;-0.9997711181640625;-0.012536032125353813;0.00044794369023293257;0.0004223773430567235
0.0223541259765625;-0.1819000244140625;-0.9997711181640625;-0.012536032125353813;0.00044794369023293257;0.0004223773430567235
0.021453857421875;-0.1802520751953125;-1.00030517578125;-0.012823387049138546;0.004455734975636005;0.0013291836949065328
0.021453857421875;-0.1802520751953125;-1.00030517578125;-0.012823387049138546;0.004455734975636005;0.0013291836949065328
0.021453857421875;-0.1802520751953125;-1.00030517578125;-0.012823387049138546;0.004455734975636005;0.0013291836949065328
0.021453857421875;-0.1802520751953125;-1.00030517578125;-0.012823387049138546;0.004455734975636005;0.0013291836949065328
0.021453857421875;-0.1802520751953125;-1.00030517578125;-0.012823387049138546;0.004455734975636005;0.0013291836949065328
0.0214691162109375;-0.1798095703125;-1.00054931640625;-0.009792177006602287;0.002855441300198436;-0.0015683355741202831
0.0214691162109375;-0.1798095703125;-1.00054931640625;-0.009792177006602287;0.002855441300198436;-0.0015683355741202831
0.0214691162109375;-0.1798095703125;-1.00054931640625;-0.009792177006602287;0.002855441300198436;-0.0015683355741202831
0.0214691162109375;-0.1798095703125;-1.00054931640625;-0.009792177006602287;0.002855441300198436;-0.0015683355741202831
0.0214691162109375;-0.1798095703125;-1.00054931640625;-0.009792177006602287;0.002855441300198436;-0.0015683355741202831
0.0218048095703125;-0.180389404296875;-1.0007476806640625;-0.011302455328404903;0.00498197553679347;-0.003210174385458231
0.0218048095703125;-0.180389404296875;-1.0007476806640625;-0.011302455328404903;0.00498197553679347;-0.003210174385458231
0.0218048095703125;-0.180389404296875;-1.0007476806640625;-0.011302455328404903;0.00498197553679347;-0.003210174385458231
0.0218048095703125;-0.180389404296875;-1.0007476806640625;-0.011302455328404903;0.00498197553679347;-0.003210174385458231
0.0218048095703125;-0.180389404296875;-1.0007476806640625;-0.011302455328404903;0.00498197553679347;-0.003210174385458231
0.0221099853515625;-0.1801300048828125;-1.0006866455078125;-0.009729859419167042;0.009064069017767906;-0.004524976946413517
0.0221099853515625;-0.1801300048828125;-1.0006866455078125;-0.009729859419167042;0.009064069017767906;-0.004524976946413517
0.0221099853515625;-0.1801300048828125;-1.0006866455078125;-0.009729859419167042;0.009064069017767906;-0.004524976946413517
0.0221099853515625;-0.1801300048828125;-1.0006866455078125;-0.009729859419167042;0.009064069017767906;-0.004524976946413517
0.0221099853515625;-0.1801300048828125;-1.0006866455078125;-0.009729859419167042;0.009064069017767906;-0.004524976946413517
0.021759033203125;-0.1787109375;-1.0014495849609375;-0.009091765619814396;0.005264270585030317;-0.002560895634815097
0.021759033203125;-0.1787109375;-1.0014495849609375;-0.009091765619814396;0.005264270585030317;-0.002560895634815097
0.021759033203125;-0.1787109375;-1.0014495849609375;-0.009091765619814396;0.005264270585030317;-0.002560895634815097
0.021759033203125;-0.1787109375;-1.0014495849609375;-0.009091765619814396;0.005264270585030317;-0.002560895634815097
0.021759033203125;-0.1787109375;-1.0014495849609375;-0.009091765619814396;0.005264270585030317;-0.002560895634815097
0.0224456787109375;-0.18060302734375;-1.002288818359375;-0.013792777433991432;0.009549030102789402;-0.0031531827989965677
0.0224456787109375;-0.18060302734375;-1.002288818359375;-0.013792777433991432;0.009549030102789402;-0.0031531827989965677
0.0224456787109375;-0.18060302734375;-1.002288818359375;-0.013792777433991432;0.009549030102789402;-0.0031531827989965677
0.0224456787109375;-0.18060302734375;-1.002288818359375;-0.013792777433991432;0.009549030102789402;-0.0031531827989965677
0.0224456787109375;-0.18060302734375;-1.002288818359375;-0.013792777433991432;0.009549030102789402;-0.0031531827989965677
0.0236053466796875;-0.18048095703125;-0.9990386962890625;-0.015964850783348083;0.011987420730292797;-0.00233266269788146
0.0236053466796875;-0.18048095703125;-0.9990386962890625;-0.015964850783348083;0.011987420730292797;-0.00233266269788146
0.0236053466796875;-0.18048095703125;-0.9990386962890625;-0.015964850783348083;0.011987420730292797;-0.00233266269788146
0.0236053466796875;-0.18048095703125;-0.9990386962890625;-0.015964850783348083;0.011987420730292797;-0.00233266269788146
0.0236053466796875;-0.18048095703125;-0.9990386962890625;-0.015964850783348083;0.011987420730292797;-0.00233266269788146
0.024444580078125;-0.1804046630859375;-0.9990692138671875;-0.011100322008132935;0.012235094793140888;-0.0027683558873832226
0.024444580078125;-0.1804046630859375;-0.9990692138671875;-0.011100322008132935;0.012235094793140888;-0.0027683558873832226
0.024444580078125;-0.1804046630859375;-0.9990692138671875;-0.011100322008132935;0.012235094793140888;-0.0027683558873832226
0.024444580078125;-0.1804046630859375;-0.9990692138671875;-0.011100322008132935;0.012235094793140888;-0.0027683558873832226
0.024444580078125;-0.1804046630859375;-0.9990692138671875;-0.011100322008132935;0.012235094793140888;-0.0027683558873832226
0.0246124267578125;-0.181304931640625;-1.003387451171875;-0.007411310914903879;0.00854501873254776;-0.001752093667164445
0.0246124267578125;-0.181304931640625;-1.003387451171875;-0.007411310914903879;0.00854501873254776;-0.001752093667164445
0.0246124267578125;-0.181304931640625;-1.003387451171875;-0.007411310914903879;0.00854501873254776;-0.001752093667164445
0.0246124267578125;-0.181304931640625;-1.003387451171875;-0.007411310914903879;0.00854501873254776;-0.001752093667164445
0.0246124267578125;-0.181304931640625;-1.003387451171875;-0.007411310914903879;0.00854501873254776;-0.001752093667164445
0.025421142578125;-0.1814422607421875;-1.00384521484375;-0.003847468877211213;0.0011475561186671257;0.002615756820887327
0.025421142578125;-0.1814422607421875;-1.00384521484375;-0.003847468877211213;0.0011475561186671257;0.002615756820887327
0.025421142578125;-0.1814422607421875;-1.00384521484375;-0.003847468877211213;0.0011475561186671257;0.002615756820887327
0.025421142578125;-0.1814422607421875;-1.00384521484375;-0.003847468877211213;0.0011475561186671257;0.002615756820887327
0.025421142578125;-0.1814422607421875;-1.00384521484375;-0.003847468877211213;0.0011475561186671257;0.002615756820887327
0.0256805419921875;-0.181854248046875;-1.00140380859375;-0.005197159014642239;-0.0019449065439403057;0.006055229343473911
0.0256805419921875;-0.181854248046875;-1.00140380859375;-0.005197159014642239;-0.0019449065439403057;0.006055229343473911
0.0256805419921875;-0.181854248046875;-1.00140380859375;-0.005197159014642239;-0.0019449065439403057;0.006055229343473911
0.0256805419921875;-0.181854248046875;-1.00140380859375;-0.005197159014642239;-0.0019449065439403057;0.006055229343473911
0.0256805419921875;-0.181854248046875;-1.00140380859375;-0.005197159014642239;-0.0019449065439403057;0.006055229343473911
0.0244903564453125;-0.183197021484375;-1.002166748046875;-0.0064714811742305756;-0.00028575718170031905;0.005227785091847181
0.0244903564453125;-0.183197021484375;-1.002166748046875;-0.0064714811742305756;-0.00028575718170031905;0.005227785091847181
0.0244903564453125;-0.183197021484375;-1.002166748046875;-0.0064714811742305756;-0.00028575718170031905;0.005227785091847181
0.0244903564453125;-0.183197021484375;-1.002166748046875;-0.0064714811742305756;-0.00028575718170031905;0.005227785091847181
0.0244903564453125;-0.183197021484375;-1.002166748046875;-0.0064714811742305756;-0.00028575718170031905;0.005227785091847181
0.0248870849609375;-0.1838836669921875;-1.00244140625;-0.006048038601875305;0.0018250643042847514;0.005020591430366039
0.0248870849609375;-0.1838836669921875;-1.00244140625;-0.006048038601875305;0.0018250643042847514;0.005020591430366039
0.0248870849609375;-0.1838836669921875;-1.00244140625;-0.006048038601875305;0.0018250643042847514;0.005020591430366039
0.0248870849609375;-0.1838836669921875;-1.00244140625;-0.006048038601875305;0.0018250643042847514;0.005020591430366039
0.0248870849609375;-0.1838836669921875;-1.00244140625;-0.006048038601875305;0.0018250643042847514;0.005020591430366039
0.0261383056640625;-0.1846771240234375;-0.9996337890625;-0.013790646567940712;0.0033803503029048443;0.004624579101800919
0.0261383056640625;-0.1846771240234375;-0.9996337890625;-0.013790646567940712;0.0033803503029048443;0.004624579101800919
0.0261383056640625;-0.1846771240234375;-0.9996337890625;-0.013790646567940712;0.0033803503029048443;0.004624579101800919
0.0261383056640625;-0.1846771240234375;-0.9996337890625;-0.013790646567940712;0.0033803503029048443;0.004624579101800919
0.0261383056640625;-0.1846771240234375;-0.9996337890625;-0.013790646567940712;0.0033803503029048443;0.004624579101800919
0.0286102294921875;-0.1847991943359375;-0.994903564453125;-0.018674883991479874;0.021585453301668167;0.005285309627652168
0.0286102294921875;-0.1847991943359375;-0.994903564453125;-0.018674883991479874;0.021585453301668167;0.005285309627652168
0.0286102294921875;-0.1847991943359375;-0.994903564453125;-0.018674883991479874;0.021585453301668167;0.005285309627652168
0.0286102294921875;-0.1847991943359375;-0.994903564453125;-0.018674883991479874;0.021585453301668167;0.005285309627652168
0.0286102294921875;-0.1847991943359375;-0.994903564453125;-0.018674883991479874;0.021585453301668167;0.005285309627652168
0.02838134765625;-0.1834716796875;-0.9820709228515625;-0.03225700557231903;0.02334846556186676;0.00440992834046483
0.02838134765625;-0.1834716796875;-0.9820709228515625;-0.03225700557231903;0.02334846556186676;0.00440992834046483
0.02838134765625;-0.1834716796875;-0.9820709228515625;-0.03225700557231903;0.02334846556186676;0.00440992834046483
0.02838134765625;-0.1834716796875;-0.9820709228515625;-0.03225700557231903;0.02334846556186676;0.00440992834046483
0.02838134765625;-0.1834716796875;-0.9820709228515625;-0.03225700557231903;0.02334846556186676;0.00440992834046483
0.0271759033203125;-0.1801605224609375;-0.98504638671875;-0.026510968804359436;0.030338197946548462;0.001621332485228777
0.0271759033203125;-0.1801605224609375;-0.98504638671875;-0.026510968804359436;0.030338197946548462;0.001621332485228777
0.0271759033203125;-0.1801605224609375;-0.98504638671875;-0.026510968804359436;0.030338197946548462;0.001621332485228777
0.0271759033203125;-0.1801605224609375;-0.98504638671875;-0.026510968804359436;0.030338197946548462;0.001621332485228777
0.0271759033203125;-0.1801605224609375;-0.98504638671875;-0.026510968804359436;0.030338197946548462;0.001621332485228777
0.0248260498046875;-0.175811767578125;-1.0091705322265625;-0.003376888344064355;0.012309130281209946;0.0038005972746759653
0.0248260498046875;-0.175811767578125;-1.0091705322265625;-0.003376888344064355;0.012309130281209946;0.0038005972746759653
0.0248260498046875;-0.175811767578125;-1.0091705322265625;-0.003376888344064355;0.012309130281209946;0.0038005972746759653
0.0248260498046875;-0.175811767578125;-1.0091705322265625;-0.003376888344064355;0.012309130281209946;0.0038005972746759653
0.0248260498046875;-0.175811767578125;-1.0091705322265625;-0.003376888344064355;0.012309130281209946;0.0038005972746759653
0.0265045166015625;-0.17425537109375;-1.0283660888671875;0.008761533536016941;-0.038711708039045334;0.00926114246249199
0.0265045166015625;-0.17425537109375;-1.0283660888671875;0.008761533536016941;-0.038711708039045334;0.00926114246249199
0.0265045166015625;-0.17425537109375;-1.0283660888671875;0.008761533536016941;-0.038711708039045334;0.00926114246249199
0.0265045166015625;-0.17425537109375;-1.0283660888671875;0.008761533536016941;-0.038711708039045334;0.00926114246249199
0.0265045166015625;-0.17425537109375;-1.0283660888671875;0.008761533536016941;-0.038711708039045334;0.00926114246249199
0.0266571044921875;-0.1749267578125;-1.0200653076171875;0.010218016803264618;-0.052974533289670944;0.009949835948646069
0.0266571044921875;-0.1749267578125;-1.0200653076171875;0.010218016803264618;-0.052974533289670944;0.009949835948646069
0.0266571044921875;-0.1749267578125;-1.0200653076171875;0.010218016803264618;-0.052974533289670944;0.009949835948646069
0.0266571044921875;-0.1749267578125;-1.0200653076171875;0.010218016803264618;-0.052974533289670944;0.009949835948646069
0.0266571044921875;-0.1749267578125;-1.0200653076171875;0.010218016803264618;-0.052974533289670944;0.009949835948646069
0.0235137939453125;-0.1751861572265625;-0.99365234375;-0.013913152739405632;-0.037228062748909;0.006943926215171814
0.0235137939453125;-0.1751861572265625;-0.99365234375;-0.013913152739405632;-0.037228062748909;0.006943926215171814
0.0235137939453125;-0.1751861572265625;-0.99365234375;-0.013913152739405632;-0.037228062748909;0.006943926215171814
0.0235137939453125;-0.1751861572265625;-0.99365234375;-0.013913152739405632;-0.037228062748909;0.006943926215171814
0.0235137939453125;-0.1751861572265625;-0.99365234375;-0.013913152739405632;-0.037228062748909;0.006943926215171814
0.02056884765625;-0.17681884765625;-0.976593017578125;-0.017678596079349518;-0.0015699334908276796;0.0046384274028241634
0.02056884765625;-0.17681884765625;-0.976593017578125;-0.017678596079349518;-0.0015699334908276796;0.0046384274028241634
0.02056884765625;-0.17681884765625;-0.976593017578125;-0.017678596079349518;-0.0015699334908276796;0.0046384274028241634
0.02056884765625;-0.17681884765625;-0.976593017578125;-0.017678596079349518;-0.0015699334908276796;0.0046384274028241634
0.02056884765625;-0.17681884765625;-0.976593017578125;-0.017678596079349518;-0.0015699334908276796;0.0046384274028241634
0.0198211669921875;-0.1791534423828125;-0.98553466796875;-0.0038192393258213997;0.02118091844022274;0.001954760169610381
0.0198211669921875;-0.1791534423828125;-0.98553466796875;-0.0038192393258213997;0.02118091844022274;0.001954760169610381
0.0198211669921875;-0.1791534423828125;-0.98553466796875;-0.0038192393258213997;0.02118091844022274;0.001954760169610381
0.0198211669921875;-0.1791534423828125;-0.98553466796875;-0.0038192393258213997;0.02118091844022274;0.001954760169610381
0.0198211669921875;-0.1791534423828125;-0.98553466796875;0.010247577913105488;0.015018098056316376;-2.902845517382957e-05
0.0218963623046875;-0.180908203125;-0.9979705810546875;0.010247577913105488;0.015018098056316376;-2.902845517382957e-05
0.0218963623046875;-0.180908203125;-0.9979705810546875;0.010247577913105488;0.015018098056316376;-2.902845517382957e-05
0.0218963623046875;-0.180908203125;-0.9979705810546875;0.010247577913105488;0.015018098056316376;-2.902845517382957e-05
0.0218963623046875;-0.180908203125;-0.9979705810546875;0.010247577913105488;0.015018098056316376;-2.902845517382957e-05
0.0218963623046875;-0.180908203125;-0.9979705810546875;0.015425029210746288;-0.004186755511909723;0.0026232136879116297
0.0276641845703125;-0.1819915771484375;-1.011383056640625;0.015425029210746288;-0.004186755511909723;0.0026232136879116297
0.0276641845703125;-0.1819915771484375;-1.011383056640625;0.015425029210746288;-0.004186755511909723;0.0026232136879116297
0.0276641845703125;-0.1819915771484375;-1.011383056640625;0.015425029210746288;-0.004186755511909723;0.0026232136879116297
0.0276641845703125;-0.1819915771484375;-1.011383056640625;0.015425029210746288;-0.004186755511909723;0.0026232136879116297
0.0276641845703125;-0.1819915771484375;-1.011383056640625;0.015425029210746288;-0.004186755511909723;0.0026232136879116297
0.03167724609375;-0.183807373046875;-1.0150604248046875;0.011894742958247662;-0.020351611077785492;0.0031076427549123764
0.03167724609375;-0.183807373046875;-1.0150604248046875;0.011894742958247662;-0.020351611077785492;0.0031076427549123764
0.03167724609375;-0.183807373046875;-1.0150604248046875;0.011894742958247662;-0.020351611077785492;0.0031076427549123764
0.03167724609375;-0.183807373046875;-1.0150604248046875;0.011894742958247662;-0.020351611077785492;0.0031076427549123764
0.03167724609375;-0.183807373046875;-1.0150604248046875;0.011894742958247662;-0.020351611077785492;0.0031076427549123764
0.0314788818359375;-0.1873931884765625;-1.0082550048828125;-0.0021435783710330725;-0.02485874481499195;0.0018996327416971326
0.0314788818359375;-0.1873931884765625;-1.0082550048828125;-0.0021435783710330725;-0.02485874481499195;0.0018996327416971326
0.0314788818359375;-0.1873931884765625;-1.0082550048828125;-0.0021435783710330725;-0.02485874481499195;0.0018996327416971326
