Acell X;Acell Y;Acell Z;Gyro X;Gyro Y;Gyro Z

-0.1027679443359375;-0.0114898681640625;-1.0024566650390625;-0.036975063383579254;-0.013523532077670097;0.008913333527743816
-0.121612548828125;-0.003173828125;-0.9810638427734375;-0.018276741728186607;0.016768859699368477;0.011658520437777042
-0.121612548828125;-0.003173828125;-0.9810638427734375;-0.018276741728186607;0.016768859699368477;0.011658520437777042
-0.121612548828125;-0.003173828125;-0.9810638427734375;-0.018276741728186607;0.016768859699368477;0.011658520437777042
-0.121612548828125;-0.003173828125;-0.9810638427734375;-0.018276741728186607;0.016768859699368477;0.011658520437777042
-0.121612548828125;-0.003173828125;-0.9810638427734375;-0.018276741728186607;0.016768859699368477;0.011658520437777042
-0.1241455078125;0.001800537109375;-1.0118865966796875;-0.013113937340676785;0.009002016857266426;0.004549211822450161
-0.1241455078125;0.001800537109375;-1.0118865966796875;-0.013113937340676785;0.009002016857266426;0.004549211822450161
-0.1241455078125;0.001800537109375;-1.0118865966796875;-0.013113937340676785;0.009002016857266426;0.004549211822450161
-0.1241455078125;0.001800537109375;-1.0118865966796875;-0.013113937340676785;0.009002016857266426;0.004549211822450161
-0.1241455078125;0.001800537109375;-1.0118865966796875;-0.013113937340676785;0.009002016857266426;0.004549211822450161
-0.116424560546875;0.0032806396484375;-1.0147552490234375;-0.0067881313152611256;0.009732255712151527;0.0015132081462070346
-0.116424560546875;0.0032806396484375;-1.0147552490234375;-0.0067881313152611256;0.009732255712151527;0.0015132081462070346
-0.116424560546875;0.0032806396484375;-1.0147552490234375;-0.0067881313152611256;0.009732255712151527;0.0015132081462070346
-0.116424560546875;0.0032806396484375;-1.0147552490234375;-0.0067881313152611256;0.009732255712151527;0.0015132081462070346
-0.116424560546875;0.0032806396484375;-1.0147552490234375;-0.0067881313152611256;0.009732255712151527;0.0015132081462070346
-0.111663818359375;0.0011444091796875;-1.013641357421875;-0.007917577400803566;0.011381018906831741;0.001976065570488572
-0.111663818359375;0.0011444091796875;-1.013641357421875;-0.007917577400803566;0.011381018906831741;0.001976065570488572
-0.111663818359375;0.0011444091796875;-1.013641357421875;-0.007917577400803566;0.011381018906831741;0.001976065570488572
-0.111663818359375;0.0011444091796875;-1.013641357421875;-0.007917577400803566;0.011381018906831741;0.001976065570488572
-0.11090087890625;-0.0005340576171875;-1.0128936767578125;-0.009236641228199005;0.009608152322471142;-0.0022477079182863235
-0.11090087890625;-0.0005340576171875;-1.0128936767578125;-0.009236641228199005;0.009608152322471142;-0.0022477079182863235
-0.11090087890625;-0.0005340576171875;-1.0128936767578125;-0.009236641228199005;0.009608152322471142;-0.0022477079182863235
-0.11090087890625;-0.0005340576171875;-1.0128936767578125;-0.009236641228199005;0.009608152322471142;-0.0022477079182863235
-0.11090087890625;-0.0005340576171875;-1.0128936767578125;-0.009236641228199005;0.009608152322471142;-0.0022477079182863235
-0.11090087890625;-0.0005340576171875;-1.0128936767578125;-0.01537336315959692;0.00945182517170906;-0.0022772690281271935
-0.11212158203125;-0.0048675537109375;-1.0102691650390625;-0.01537336315959692;0.00945182517170906;-0.0022772690281271935
-0.11212158203125;-0.0048675537109375;-1.0102691650390625;-0.01537336315959692;0.00945182517170906;-0.0022772690281271935
-0.11212158203125;-0.0048675537109375;-1.0102691650390625;-0.01537336315959692;0.00945182517170906;-0.0022772690281271935
-0.11212158203125;-0.0048675537109375;-1.0102691650390625;-0.01537336315959692;0.00945182517170906;-0.0022772690281271935
-0.113525390625;-0.0091400146484375;-1.0081024169921875;-0.019581424072384834;0.006340453866869211;-0.0011286477092653513
-0.113525390625;-0.0091400146484375;-1.0081024169921875;-0.019581424072384834;0.006340453866869211;-0.0011286477092653513
-0.113525390625;-0.0091400146484375;-1.0081024169921875;-0.019581424072384834;0.006340453866869211;-0.0011286477092653513
-0.113525390625;-0.0091400146484375;-1.0081024169921875;-0.019581424072384834;0.006340453866869211;-0.0011286477092653513
-0.113525390625;-0.0091400146484375;-1.0081024169921875;-0.019581424072384834;0.006340453866869211;-0.0011286477092653513
-0.1133270263671875;-0.01104736328125;-1.007904052734375;-0.021083448082208633;0.0037023264449089766;-0.00019920444174204022
-0.1133270263671875;-0.01104736328125;-1.007904052734375;-0.021083448082208633;0.0037023264449089766;-0.00019920444174204022
-0.1133270263671875;-0.01104736328125;-1.007904052734375;-0.021083448082208633;0.0037023264449089766;-0.00019920444174204022
-0.1133270263671875;-0.01104736328125;-1.007904052734375;-0.021083448082208633;0.0037023264449089766;-0.00019920444174204022
-0.1133270263671875;-0.01104736328125;-1.007904052734375;-0.021083448082208633;0.0037023264449089766;-0.00019920444174204022
-0.1128692626953125;-0.01171875;-1.0062255859375;-0.02177906408905983;0.002787797013297677;0.0009145294898189604
-0.1128692626953125;-0.01171875;-1.0062255859375;-0.02177906408905983;0.002787797013297677;0.0009145294898189604
-0.1128692626953125;-0.01171875;-1.0062255859375;-0.02177906408905983;0.002787797013297677;0.0009145294898189604
-0.1128692626953125;-0.01171875;-1.0062255859375;-0.02177906408905983;0.002787797013297677;0.0009145294898189604
-0.1128692626953125;-0.01171875;-1.0062255859375;-0.02177906408905983;0.002787797013297677;0.0009145294898189604
-0.113250732421875;-0.0118560791015625;-1.006500244140625;-0.0206296443939209;0.001960619119927287;0.0014239922165870667
-0.113250732421875;-0.0118560791015625;-1.006500244140625;-0.0206296443939209;0.001960619119927287;0.0014239922165870667
-0.113250732421875;-0.0118560791015625;-1.006500244140625;-0.0206296443939209;0.001960619119927287;0.0014239922165870667
-0.113250732421875;-0.0118560791015625;-1.006500244140625;-0.0206296443939209;0.001960619119927287;0.0014239922165870667
-0.113250732421875;-0.0118560791015625;-1.006500244140625;-0.0206296443939209;0.001960619119927287;0.0014239922165870667
-0.113800048828125;-0.0103302001953125;-1.0093536376953125;-0.014661766588687897;0.003561711637303233;0.001876995898783207
-0.113800048828125;-0.0103302001953125;-1.0093536376953125;-0.014661766588687897;0.003561711637303233;0.001876995898783207
-0.113800048828125;-0.0103302001953125;-1.0093536376953125;-0.014661766588687897;0.003561711637303233;0.001876995898783207
-0.113800048828125;-0.0103302001953125;-1.0093536376953125;-0.014661766588687897;0.003561711637303233;0.001876995898783207
-0.113800048828125;-0.0103302001953125;-1.0093536376953125;-0.014661766588687897;0.003561711637303233;0.001876995898783207
-0.113800048828125;-0.0103302001953125;-1.0093536376953125;-0.014661766588687897;0.003561711637303233;0.001876995898783207
-0.1132659912109375;-0.00970458984375;-1.0109405517578125;-0.009726396761834621;0.005558283533900976;0.001589108258485794
-0.1132659912109375;-0.00970458984375;-1.0109405517578125;-0.009726396761834621;0.005558283533900976;0.001589108258485794
-0.1132659912109375;-0.00970458984375;-1.0109405517578125;-0.009726396761834621;0.005558283533900976;0.001589108258485794
-0.1132659912109375;-0.00970458984375;-1.0109405517578125;-0.009726396761834621;0.005558283533900976;0.001589108258485794
-0.1119232177734375;-0.0099945068359375;-1.011383056640625;-0.0095096156001091;0.009911486878991127;0.0022301310673356056
-0.1119232177734375;-0.0099945068359375;-1.011383056640625;-0.0095096156001091;0.009911486878991127;0.0022301310673356056
-0.1119232177734375;-0.0099945068359375;-1.011383056640625;-0.0095096156001091;0.009911486878991127;0.0022301310673356056
-0.1119232177734375;-0.0099945068359375;-1.011383056640625;-0.0095096156001091;0.009911486878991127;0.0022301310673356056
-0.1119232177734375;-0.0099945068359375;-1.011383056640625;-0.0095096156001091;0.009911486878991127;0.0022301310673356056
-0.1123809814453125;-0.009002685546875;-1.0110931396484375;-0.011359979398548603;0.0052136704325675964;-0.00020106865849811584
-0.1123809814453125;-0.009002685546875;-1.0110931396484375;-0.011359979398548603;0.0052136704325675964;-0.00020106865849811584
-0.1123809814453125;-0.009002685546875;-1.0110931396484375;-0.011359979398548603;0.0052136704325675964;-0.00020106865849811584
-0.1123809814453125;-0.009002685546875;-1.0110931396484375;-0.011359979398548603;0.0052136704325675964;-0.00020106865849811584
-0.1123809814453125;-0.009002685546875;-1.0110931396484375;-0.011359979398548603;0.0052136704325675964;-0.00020106865849811584
-0.1112060546875;-0.0101470947265625;-1.0153656005859375;-0.024056866765022278;-0.0030682277865707874;-0.0011954930378124118
-0.1112060546875;-0.0101470947265625;-1.0153656005859375;-0.024056866765022278;-0.0030682277865707874;-0.0011954930378124118
-0.1112060546875;-0.0101470947265625;-1.0153656005859375;-0.024056866765022278;-0.0030682277865707874;-0.0011954930378124118
-0.1112060546875;-0.0101470947265625;-1.0153656005859375;-0.024056866765022278;-0.0030682277865707874;-0.0011954930378124118
-0.1112060546875;-0.0101470947265625;-1.0153656005859375;-0.024056866765022278;-0.0030682277865707874;-0.0011954930378124118
-0.1117706298828125;-0.01055908203125;-1.01068115234375;-0.043228961527347565;-0.0206363033503294;0.0011230550007894635
-0.1117706298828125;-0.01055908203125;-1.01068115234375;-0.043228961527347565;-0.0206363033503294;0.0011230550007894635
-0.1117706298828125;-0.01055908203125;-1.01068115234375;-0.043228961527347565;-0.0206363033503294;0.0011230550007894635
-0.1117706298828125;-0.01055908203125;-1.01068115234375;-0.043228961527347565;-0.0206363033503294;0.0011230550007894635
-0.1117706298828125;-0.01055908203125;-1.01068115234375;-0.043228961527347565;-0.0206363033503294;0.0011230550007894635
-0.111572265625;-0.0124664306640625;-1.00701904296875;-0.057205766439437866;-0.014230867847800255;0.0036823528353124857
-0.111572265625;-0.0124664306640625;-1.00701904296875;-0.057205766439437866;-0.014230867847800255;0.0036823528353124857
-0.111572265625;-0.0124664306640625;-1.00701904296875;-0.057205766439437866;-0.014230867847800255;0.0036823528353124857
-0.111572265625;-0.0124664306640625;-1.00701904296875;-0.057205766439437866;-0.014230867847800255;0.0036823528353124857
-0.111572265625;-0.0124664306640625;-1.00701904296875;-0.057205766439437866;-0.014230867847800255;0.0036823528353124857
-0.11346435546875;-0.0099029541015625;-1.00384521484375;-0.04519836977124214;-0.0035358788445591927;0.0022269352339208126
-0.11346435546875;-0.0099029541015625;-1.00384521484375;-0.04519836977124214;-0.0035358788445591927;0.0022269352339208126
-0.11346435546875;-0.0099029541015625;-1.00384521484375;-0.04519836977124214;-0.0035358788445591927;0.0022269352339208126
-0.11346435546875;-0.0099029541015625;-1.00384521484375;-0.04519836977124214;-0.0035358788445591927;0.0022269352339208126
-0.11346435546875;-0.0099029541015625;-1.00384521484375;-0.04519836977124214;-0.0035358788445591927;0.0022269352339208126
-0.114959716796875;-0.0040740966796875;-1.011383056640625;-0.03135392814874649;-0.006061887368559837;0.004400074947625399
-0.114959716796875;-0.0040740966796875;-1.011383056640625;-0.03135392814874649;-0.006061887368559837;0.004400074947625399
-0.114959716796875;-0.0040740966796875;-1.011383056640625;-0.03135392814874649;-0.006061887368559837;0.004400074947625399
-0.114959716796875;-0.0040740966796875;-1.011383056640625;-0.03135392814874649;-0.006061887368559837;0.004400074947625399
-0.114959716796875;-0.0040740966796875;-1.011383056640625;-0.03135392814874649;-0.006061887368559837;0.004400074947625399
-0.115203857421875;-0.000213623046875;-1.0175933837890625;-0.027630295604467392;-0.010871822014451027;-0.0008420915110036731
-0.115203857421875;-0.000213623046875;-1.0175933837890625;-0.027630295604467392;-0.010871822014451027;-0.0008420915110036731
-0.115203857421875;-0.000213623046875;-1.0175933837890625;-0.027630295604467392;-0.010871822014451027;-0.0008420915110036731
-0.115203857421875;-0.000213623046875;-1.0175933837890625;-0.027630295604467392;-0.010871822014451027;-0.0008420915110036731
-0.115203857421875;-0.000213623046875;-1.0175933837890625;-0.027630295604467392;-0.010871822014451027;-0.0008420915110036731
-0.1149749755859375;-0.000396728515625;-1.01373291015625;-0.03382773697376251;-0.012585832737386227;0.0070738885551691055
-0.1149749755859375;-0.000396728515625;-1.01373291015625;-0.03382773697376251;-0.012585832737386227;0.0070738885551691055
-0.1149749755859375;-0.000396728515625;-1.01373291015625;-0.03382773697376251;-0.012585832737386227;0.0070738885551691055
-0.1149749755859375;-0.000396728515625;-1.01373291015625;-0.03382773697376251;-0.012585832737386227;0.0070738885551691055
-0.1149749755859375;-0.000396728515625;-1.01373291015625;-0.03382773697376251;-0.012585832737386227;0.0070738885551691055
-0.1160736083984375;-0.0015106201171875;-1.0102691650390625;-0.026557574048638344;-0.02052125334739685;0.003932689782232046
-0.1160736083984375;-0.0015106201171875;-1.0102691650390625;-0.026557574048638344;-0.02052125334739685;0.003932689782232046
-0.1160736083984375;-0.0015106201171875;-1.0102691650390625;-0.026557574048638344;-0.02052125334739685;0.003932689782232046
-0.1160736083984375;-0.0015106201171875;-1.0102691650390625;-0.026557574048638344;-0.02052125334739685;0.003932689782232046
-0.1160736083984375;-0.0015106201171875;-1.0102691650390625;-0.026557574048638344;-0.02052125334739685;0.003932689782232046
-0.1155548095703125;0.0004730224609375;-1.015625;-0.011898204684257507;-0.03154247999191284;0.003686880227178335
-0.1155548095703125;0.0004730224609375;-1.015625;-0.011898204684257507;-0.03154247999191284;0.003686880227178335
-0.1155548095703125;0.0004730224609375;-1.015625;-0.011898204684257507;-0.03154247999191284;0.003686880227178335
-0.1155548095703125;0.0004730224609375;-1.015625;-0.011898204684257507;-0.03154247999191284;0.003686880227178335
-0.1155548095703125;0.0004730224609375;-1.015625;-0.011898204684257507;-0.03154247999191284;0.003686880227178335
-0.1153411865234375;0.000885009765625;-1.018157958984375;-0.002496180823072791;-0.030918501317501068;0.007760184817016125
-0.1153411865234375;0.000885009765625;-1.018157958984375;-0.002496180823072791;-0.030918501317501068;0.007760184817016125
-0.1153411865234375;0.000885009765625;-1.018157958984375;-0.002496180823072791;-0.030918501317501068;0.007760184817016125
-0.1153411865234375;0.000885009765625;-1.018157958984375;-0.002496180823072791;-0.030918501317501068;0.007760184817016125
-0.1153411865234375;0.000885009765625;-1.018157958984375;-0.002496180823072791;-0.030918501317501068;0.007760184817016125
-0.11651611328125;-0.001708984375;-1.0132904052734375;-0.006422745529562235;-0.028445223346352577;0.009165801107883453
-0.11651611328125;-0.001708984375;-1.0132904052734375;-0.006422745529562235;-0.028445223346352577;0.009165801107883453
-0.11651611328125;-0.001708984375;-1.0132904052734375;-0.006422745529562235;-0.028445223346352577;0.009165801107883453
-0.11651611328125;-0.001708984375;-1.0132904052734375;-0.006422745529562235;-0.028445223346352577;0.009165801107883453
-0.11651611328125;-0.001708984375;-1.0132904052734375;-0.006422745529562235;-0.028445223346352577;0.009165801107883453
-0.11798095703125;-0.005462646484375;-1.0110931396484375;-0.008378837257623672;-0.026697391644120216;0.009329053573310375
-0.11798095703125;-0.005462646484375;-1.0110931396484375;-0.008378837257623672;-0.026697391644120216;0.009329053573310375
-0.11798095703125;-0.005462646484375;-1.0110931396484375;-0.008378837257623672;-0.026697391644120216;0.009329053573310375
-0.11798095703125;-0.005462646484375;-1.0110931396484375;-0.008378837257623672;-0.026697391644120216;0.009329053573310375
-0.11798095703125;-0.005462646484375;-1.0110931396484375;-0.008378837257623672;-0.026697391644120216;0.009329053573310375
-0.12017822265625;-0.0102996826171875;-1.012115478515625;-0.01785968989133835;-0.023025956004858017;0.00782703049480915
-0.12017822265625;-0.0102996826171875;-1.012115478515625;-0.01785968989133835;-0.023025956004858017;0.00782703049480915
-0.12017822265625;-0.0102996826171875;-1.012115478515625;-0.01785968989133835;-0.023025956004858017;0.00782703049480915
-0.12017822265625;-0.0102996826171875;-1.012115478515625;-0.01785968989133835;-0.023025956004858017;0.00782703049480915
-0.12017822265625;-0.0102996826171875;-1.012115478515625;-0.01785968989133835;-0.023025956004858017;0.00782703049480915
-0.1189117431640625;-0.0122222900390625;-1.0104217529296875;-0.027847077697515488;-0.014827681705355644;0.006583068054169416
-0.1189117431640625;-0.0122222900390625;-1.0104217529296875;-0.027847077697515488;-0.014827681705355644;0.006583068054169416
-0.1189117431640625;-0.0122222900390625;-1.0104217529296875;-0.027847077697515488;-0.014827681705355644;0.006583068054169416
-0.1189117431640625;-0.0122222900390625;-1.0104217529296875;-0.027847077697515488;-0.014827681705355644;0.006583068054169416
-0.1189117431640625;-0.0122222900390625;-1.0104217529296875;-0.027847077697515488;-0.014827681705355644;0.006583068054169416
-0.1164093017578125;-0.011627197265625;-1.011749267578125;-0.029698241502046585;-0.010042780078947544;0.00788801722228527
-0.1164093017578125;-0.011627197265625;-1.011749267578125;-0.029698241502046585;-0.010042780078947544;0.00788801722228527
-0.1164093017578125;-0.011627197265625;-1.011749267578125;-0.029698241502046585;-0.010042780078947544;0.00788801722228527
-0.1164093017578125;-0.011627197265625;-1.011749267578125;-0.029698241502046585;-0.010042780078947544;0.00788801722228527
-0.1164093017578125;-0.011627197265625;-1.011749267578125;-0.029698241502046585;-0.010042780078947544;0.00788801722228527
-0.114227294921875;-0.0086212158203125;-1.0146942138671875;-0.02503451332449913;-0.009909356012940407;0.008562861941754818
-0.114227294921875;-0.0086212158203125;-1.0146942138671875;-0.02503451332449913;-0.009909356012940407;0.008562861941754818
-0.114227294921875;-0.0086212158203125;-1.0146942138671875;-0.02503451332449913;-0.009909356012940407;0.008562861941754818
-0.114227294921875;-0.0086212158203125;-1.0146942138671875;-0.02503451332449913;-0.009909356012940407;0.008562861941754818
-0.114227294921875;-0.0086212158203125;-1.0146942138671875;-0.02503451332449913;-0.009909356012940407;0.008562861941754818
-0.1140899658203125;-0.0061187744140625;-1.013641357421875;-0.015527560375630856;-0.005406217183917761;0.008415322750806808
-0.1140899658203125;-0.0061187744140625;-1.013641357421875;-0.015527560375630856;-0.005406217183917761;0.008415322750806808
-0.1140899658203125;-0.0061187744140625;-1.013641357421875;-0.015527560375630856;-0.005406217183917761;0.008415322750806808
-0.1140899658203125;-0.0061187744140625;-1.013641357421875;-0.015527560375630856;-0.005406217183917761;0.008415322750806808
-0.1140899658203125;-0.0061187744140625;-1.013641357421875;-0.015527560375630856;-0.005406217183917761;0.008415322750806808
-0.11505126953125;-0.0013275146484375;-1.01025390625;-0.009184709750115871;-0.004195277579128742;0.0076246303506195545
-0.11505126953125;-0.0013275146484375;-1.01025390625;-0.009184709750115871;-0.004195277579128742;0.0076246303506195545
-0.11505126953125;-0.0013275146484375;-1.01025390625;-0.009184709750115871;-0.004195277579128742;0.0076246303506195545
-0.11505126953125;-0.0013275146484375;-1.01025390625;-0.009184709750115871;-0.004195277579128742;0.0076246303506195545
-0.11505126953125;-0.0013275146484375;-1.01025390625;-0.009184709750115871;-0.004195277579128742;0.0076246303506195545
-0.114959716796875;0.001678466796875;-1.0134735107421875;-0.00720464950427413;-0.009874468669295311;0.005474660079926252
-0.114959716796875;0.001678466796875;-1.0134735107421875;-0.00720464950427413;-0.009874468669295311;0.005474660079926252
-0.114959716796875;0.001678466796875;-1.0134735107421875;-0.00720464950427413;-0.009874468669295311;0.005474660079926252
-0.114959716796875;0.001678466796875;-1.0134735107421875;-0.00720464950427413;-0.009874468669295311;0.005474660079926252
-0.114959716796875;0.001678466796875;-1.0134735107421875;-0.00720464950427413;-0.009874468669295311;0.005474660079926252
-0.1143646240234375;0.0029449462890625;-1.01165771484375;-0.013718741945922375;-0.016026902943849564;0.0019323896849527955
-0.1143646240234375;0.0029449462890625;-1.01165771484375;-0.013718741945922375;-0.016026902943849564;0.0019323896849527955
-0.1143646240234375;0.0029449462890625;-1.01165771484375;-0.013718741945922375;-0.016026902943849564;0.0019323896849527955
-0.1143646240234375;0.0029449462890625;-1.01165771484375;-0.013718741945922375;-0.016026902943849564;0.0019323896849527955
-0.1143646240234375;0.0029449462890625;-1.01165771484375;-0.013718741945922375;-0.016026902943849564;0.0019323896849527955
-0.112884521484375;0.001434326171875;-1.0077362060546875;-0.015082280151546001;-0.01677711494266987;-0.0005866943974979222
-0.112884521484375;0.001434326171875;-1.0077362060546875;-0.015082280151546001;-0.01677711494266987;-0.0005866943974979222
-0.112884521484375;0.001434326171875;-1.0077362060546875;-0.015082280151546001;-0.01677711494266987;-0.0005866943974979222
-0.112884521484375;0.001434326171875;-1.0077362060546875;-0.015082280151546001;-0.01677711494266987;-0.0005866943974979222
-0.112884521484375;0.001434326171875;-1.0077362060546875;-0.015082280151546001;-0.01677711494266987;-0.0005866943974979222
-0.1113739013671875;0.0012359619140625;-1.006103515625;-0.012673184275627136;-0.010569820180535316;-0.0037473340053111315
-0.1113739013671875;0.0012359619140625;-1.006103515625;-0.012673184275627136;-0.010569820180535316;-0.0037473340053111315
-0.1113739013671875;0.0012359619140625;-1.006103515625;-0.012673184275627136;-0.010569820180535316;-0.0037473340053111315
-0.1113739013671875;0.0012359619140625;-1.006103515625;-0.012673184275627136;-0.010569820180535316;-0.0037473340053111315
-0.1113739013671875;0.0012359619140625;-1.006103515625;-0.012673184275627136;-0.010569820180535316;-0.0037473340053111315
-0.1107025146484375;0.0015869140625;-1.0065460205078125;-0.006441121455281973;-0.008382299914956093;0.00036671728594228625
-0.1107025146484375;0.0015869140625;-1.0065460205078125;-0.006441121455281973;-0.008382299914956093;0.00036671728594228625
-0.1107025146484375;0.0015869140625;-1.0065460205078125;-0.006441121455281973;-0.008382299914956093;0.00036671728594228625
-0.1107025146484375;0.0015869140625;-1.0065460205078125;-0.006441121455281973;-0.008382299914956093;0.00036671728594228625
-0.1107025146484375;0.0015869140625;-1.0065460205078125;-0.006441121455281973;-0.008382299914956093;0.00036671728594228625
-0.110443115234375;0.001617431640625;-1.00885009765625;-0.0030746194534003735;-0.003926298581063747;-0.0023220102302730083
-0.110443115234375;0.001617431640625;-1.00885009765625;-0.0030746194534003735;-0.003926298581063747;-0.0023220102302730083
-0.110443115234375;0.001617431640625;-1.00885009765625;-0.0030746194534003735;-0.003926298581063747;-0.0023220102302730083
-0.110443115234375;0.001617431640625;-1.00885009765625;-0.0030746194534003735;-0.003926298581063747;-0.0023220102302730083
-0.110443115234375;0.001617431640625;-1.00885009765625;-0.0030746194534003735;-0.003926298581063747;-0.0023220102302730083
-0.1110687255859375;-0.0012969970703125;-1.0069122314453125;-0.004114584065973759;-0.011021492071449757;0.00259418529458344
-0.1110687255859375;-0.0012969970703125;-1.0069122314453125;-0.004114584065973759;-0.011021492071449757;0.00259418529458344
-0.1110687255859375;-0.0012969970703125;-1.0069122314453125;-0.004114584065973759;-0.011021492071449757;0.00259418529458344
-0.1110687255859375;-0.0012969970703125;-1.0069122314453125;-0.004114584065973759;-0.011021492071449757;0.00259418529458344
-0.1110687255859375;-0.0012969970703125;-1.0069122314453125;-0.004114584065973759;-0.011021492071449757;0.00259418529458344
-0.112030029296875;-0.0026397705078125;-1.0052337646484375;-0.007978564128279686;-0.005471730604767799;0.001216531964018941
-0.112030029296875;-0.0026397705078125;-1.0052337646484375;-0.007978564128279686;-0.005471730604767799;0.001216531964018941
-0.112030029296875;-0.0026397705078125;-1.0052337646484375;-0.007978564128279686;-0.005471730604767799;0.001216531964018941
-0.112030029296875;-0.0026397705078125;-1.0052337646484375;-0.007978564128279686;-0.005471730604767799;0.001216531964018941
-0.112030029296875;-0.0026397705078125;-1.0052337646484375;-0.007978564128279686;-0.005471730604767799;0.001216531964018941
-0.1144866943359375;-0.0034637451171875;-1.0037841796875;-0.008787100203335285;-0.0010852381819859147;0.0019036275334656239
-0.1144866943359375;-0.0034637451171875;-1.0037841796875;-0.008787100203335285;-0.0010852381819859147;0.0019036275334656239
-0.1144866943359375;-0.0034637451171875;-1.0037841796875;-0.008787100203335285;-0.0010852381819859147;0.0019036275334656239
-0.1144866943359375;-0.0034637451171875;-1.0037841796875;-0.008787100203335285;-0.0010852381819859147;0.0019036275334656239
-0.1144866943359375;-0.0034637451171875;-1.0037841796875;-0.008787100203335285;-0.0010852381819859147;0.0019036275334656239
-0.115966796875;-0.0026397705078125;-1.0061492919921875;-0.00833968911319971;-0.000179230744834058;0.0007041397620923817
-0.115966796875;-0.0026397705078125;-1.0061492919921875;-0.00833968911319971;-0.000179230744834058;0.0007041397620923817
-0.115966796875;-0.0026397705078125;-1.0061492919921875;-0.00833968911319971;-0.000179230744834058;0.0007041397620923817
-0.115966796875;-0.0026397705078125;-1.0061492919921875;-0.00833968911319971;-0.000179230744834058;0.0007041397620923817
-0.115966796875;-0.0026397705078125;-1.0061492919921875;-0.00833968911319971;-0.000179230744834058;0.0007041397620923817
-0.116119384765625;-0.00201416015625;-1.0071563720703125;-0.01152882445603609;0.003674363251775503;0.0008103998843580484
-0.116119384765625;-0.00201416015625;-1.0071563720703125;-0.01152882445603609;0.003674363251775503;0.0008103998843580484
-0.116119384765625;-0.00201416015625;-1.0071563720703125;-0.01152882445603609;0.003674363251775503;0.0008103998843580484
-0.116119384765625;-0.00201416015625;-1.0071563720703125;-0.01152882445603609;0.003674363251775503;0.0008103998843580484
-0.116119384765625;-0.00201416015625;-1.0071563720703125;-0.01152882445603609;0.003674363251775503;0.0008103998843580484
-0.1150665283203125;-0.002899169921875;-1.0069580078125;-0.015900669619441032;-0.00026604978484101593;0.0005289037944748998
-0.1150665283203125;-0.002899169921875;-1.0069580078125;-0.015900669619441032;-0.00026604978484101593;0.0005289037944748998
-0.1150665283203125;-0.002899169921875;-1.0069580078125;-0.015900669619441032;-0.00026604978484101593;0.0005289037944748998
-0.1150665283203125;-0.002899169921875;-1.0069580078125;-0.015900669619441032;-0.00026604978484101593;0.0005289037944748998
-0.1150665283203125;-0.002899169921875;-1.0069580078125;-0.015900669619441032;-0.00026604978484101593;0.0005289037944748998
-0.11541748046875;-0.0031280517578125;-1.008209228515625;-0.017349962145090103;0.0009257147903554142;0.0031353395897895098
-0.11541748046875;-0.0031280517578125;-1.008209228515625;-0.017349962145090103;0.0009257147903554142;0.0031353395897895098
-0.11541748046875;-0.0031280517578125;-1.008209228515625;-0.017349962145090103;0.0009257147903554142;0.0031353395897895098
-0.11541748046875;-0.0031280517578125;-1.008209228515625;-0.017349962145090103;0.0009257147903554142;0.0031353395897895098
-0.11541748046875;-0.0031280517578125;-1.008209228515625;-0.019962256774306297;0.002529470482841134;0.0013648699969053268
-0.1159515380859375;-0.0028839111328125;-1.008514404296875;-0.019962256774306297;0.002529470482841134;0.0013648699969053268
-0.1159515380859375;-0.0028839111328125;-1.008514404296875;-0.019962256774306297;0.002529470482841134;0.0013648699969053268
-0.1159515380859375;-0.0028839111328125;-1.008514404296875;-0.019962256774306297;0.002529470482841134;0.0013648699969053268
-0.1159515380859375;-0.0028839111328125;-1.008514404296875;-0.019962256774306297;0.002529470482841134;0.0013648699969053268
-0.1165618896484375;-0.0027313232421875;-1.011444091796875;-0.012953882105648518;-0.0007483482477255166;0.0015038870042189956
-0.1165618896484375;-0.0027313232421875;-1.011444091796875;-0.012953882105648518;-0.0007483482477255166;0.0015038870042189956
-0.1165618896484375;-0.0027313232421875;-1.011444091796875;-0.012953882105648518;-0.0007483482477255166;0.0015038870042189956
-0.1165618896484375;-0.0027313232421875;-1.011444091796875;-0.012953882105648518;-0.0007483482477255166;0.0015038870042189956
-0.1165618896484375;-0.0027313232421875;-1.011444091796875;-0.012953882105648518;-0.0007483482477255166;0.0015038870042189956
-0.1165618896484375;-0.0027313232421875;-1.011444091796875;-0.008021174930036068;-0.0026935210917145014;0.0005840312223881483
-0.1157379150390625;-0.001922607421875;-1.01483154296875;-0.008021174930036068;-0.0026935210917145014;0.0005840312223881483
-0.1157379150390625;-0.001922607421875;-1.01483154296875;-0.008021174930036068;-0.0026935210917145014;0.0005840312223881483
-0.1157379150390625;-0.001922607421875;-1.01483154296875;-0.008021174930036068;-0.0026935210917145014;0.0005840312223881483
-0.1157379150390625;-0.001922607421875;-1.01483154296875;-0.008021174930036068;-0.0026935210917145014;0.0005840312223881483
-0.1171417236328125;-0.0003814697265625;-1.011749267578125;-0.009583651088178158;-0.004538558889180422;0.0035899411886930466
-0.1171417236328125;-0.0003814697265625;-1.011749267578125;-0.009583651088178158;-0.004538558889180422;0.0035899411886930466
-0.1171417236328125;-0.0003814697265625;-1.011749267578125;-0.009583651088178158;-0.004538558889180422;0.0035899411886930466
-0.1171417236328125;-0.0003814697265625;-1.011749267578125;-0.009583651088178158;-0.004538558889180422;0.0035899411886930466
-0.1171417236328125;-0.0003814697265625;-1.011749267578125;-0.009583651088178158;-0.004538558889180422;0.0035899411886930466
-0.1188812255859375;0.0003204345703125;-1.010467529296875;-0.01372486725449562;-0.0067817396484315395;0.0023347933311015368
-0.1188812255859375;0.0003204345703125;-1.010467529296875;-0.01372486725449562;-0.0067817396484315395;0.0023347933311015368
-0.1188812255859375;0.0003204345703125;-1.010467529296875;-0.01372486725449562;-0.0067817396484315395;0.0023347933311015368
-0.1188812255859375;0.0003204345703125;-1.010467529296875;-0.01372486725449562;-0.0067817396484315395;0.0023347933311015368
-0.1188812255859375;0.0003204345703125;-1.010467529296875;-0.01372486725449562;-0.0067817396484315395;0.0023347933311015368
-0.1188812255859375;0.0003204345703125;-1.010467529296875;-0.013130716048181057;-0.004248008131980896;-0.002439721953123808
-0.12005615234375;0.0007781982421875;-1.012420654296875;-0.013130716048181057;-0.004248008131980896;-0.002439721953123808
-0.12005615234375;0.0007781982421875;-1.012420654296875;-0.013130716048181057;-0.004248008131980896;-0.002439721953123808
-0.12005615234375;0.0007781982421875;-1.012420654296875;-0.013130716048181057;-0.004248008131980896;-0.002439721953123808
-0.12005615234375;0.0007781982421875;-1.012420654296875;-0.013130716048181057;-0.004248008131980896;-0.002439721953123808
-0.1187591552734375;0.001007080078125;-1.012176513671875;-0.011696603149175644;-0.0007595335482619703;-7.643271965207532e-05
-0.1187591552734375;0.001007080078125;-1.012176513671875;-0.011696603149175644;-0.0007595335482619703;-7.643271965207532e-05
-0.1187591552734375;0.001007080078125;-1.012176513671875;-0.011696603149175644;-0.0007595335482619703;-7.643271965207532e-05
-0.1187591552734375;0.001007080078125;-1.012176513671875;-0.011696603149175644;-0.0007595335482619703;-7.643271965207532e-05
-0.1187591552734375;0.001007080078125;-1.012176513671875;-0.011696603149175644;-0.0007595335482619703;-7.643271965207532e-05
-0.1171722412109375;-0.000396728515625;-1.010833740234375;-0.012291287072002888;-0.004494883120059967;-0.0010908307740464807
-0.1171722412109375;-0.000396728515625;-1.010833740234375;-0.012291287072002888;-0.004494883120059967;-0.0010908307740464807
-0.1171722412109375;-0.000396728515625;-1.010833740234375;-0.012291287072002888;-0.004494883120059967;-0.0010908307740464807
-0.1171722412109375;-0.000396728515625;-1.010833740234375;-0.012291287072002888;-0.004494883120059967;-0.0010908307740464807
-0.1171722412109375;-0.000396728515625;-1.010833740234375;-0.012291287072002888;-0.004494883120059967;-0.0010908307740464807
-0.115386962890625;-0.0009002685546875;-1.0113372802734375;-0.011650264263153076;-0.002947586588561535;-0.0016207997687160969
-0.115386962890625;-0.0009002685546875;-1.0113372802734375;-0.011650264263153076;-0.002947586588561535;-0.0016207997687160969
-0.115386962890625;-0.0009002685546875;-1.0113372802734375;-0.011650264263153076;-0.002947586588561535;-0.0016207997687160969
-0.115386962890625;-0.0009002685546875;-1.0113372802734375;-0.011650264263153076;-0.002947586588561535;-0.0016207997687160969
-0.115386962890625;-0.0009002685546875;-1.0113372802734375;-0.011650264263153076;-0.002947586588561535;-0.0016207997687160969
-0.114837646484375;-0.0012664794921875;-1.01092529296875;-0.006841128226369619;0.0012884372845292091;0.00213665422052145
-0.114837646484375;-0.0012664794921875;-1.01092529296875;-0.006841128226369619;0.0012884372845292091;0.00213665422052145
-0.114837646484375;-0.0012664794921875;-1.01092529296875;-0.006841128226369619;0.0012884372845292091;0.00213665422052145
-0.114837646484375;-0.0012664794921875;-1.01092529296875;-0.006841128226369619;0.0012884372845292091;0.00213665422052145
-0.114837646484375;-0.0012664794921875;-1.01092529296875;-0.006841128226369619;0.0012884372845292091;0.00213665422052145
-0.11566162109375;-0.0009918212890625;-1.0112457275390625;-0.006536195985972881;0.00019121496006846428;0.003736414946615696
-0.11566162109375;-0.0009918212890625;-1.0112457275390625;-0.006536195985972881;0.00019121496006846428;0.003736414946615696
-0.11566162109375;-0.0009918212890625;-1.0112457275390625;-0.006536195985972881;0.00019121496006846428;0.003736414946615696
-0.11566162109375;-0.0009918212890625;-1.0112457275390625;-0.006536195985972881;0.00019121496006846428;0.003736414946615696
-0.11566162109375;-0.0009918212890625;-1.0112457275390625;-0.006536195985972881;0.00019121496006846428;0.003736414946615696
-0.115814208984375;-0.0006103515625;-1.0120697021484375;-0.004430434666574001;0.00029348034877330065;0.0012415656819939613
-0.115814208984375;-0.0006103515625;-1.0120697021484375;-0.004430434666574001;0.00029348034877330065;0.0012415656819939613
-0.115814208984375;-0.0006103515625;-1.0120697021484375;-0.004430434666574001;0.00029348034877330065;0.0012415656819939613
-0.115814208984375;-0.0006103515625;-1.0120697021484375;-0.004430434666574001;0.00029348034877330065;0.0012415656819939613
-0.115814208984375;-0.0006103515625;-1.0120697021484375;-0.004430434666574001;0.00029348034877330065;0.0012415656819939613
-0.1150665283203125;-0.0003204345703125;-1.012176513671875;-0.004355333745479584;-0.002502838848158717;0.0028093685396015644
-0.1150665283203125;-0.0003204345703125;-1.012176513671875;-0.004355333745479584;-0.002502838848158717;0.0028093685396015644
-0.1150665283203125;-0.0003204345703125;-1.012176513671875;-0.004355333745479584;-0.002502838848158717;0.0028093685396015644
-0.1150665283203125;-0.0003204345703125;-1.012176513671875;-0.004355333745479584;-0.002502838848158717;0.0028093685396015644
-0.1150665283203125;-0.0003204345703125;-1.012176513671875;-0.004355333745479584;-0.002502838848158717;0.0028093685396015644
-0.1139068603515625;-0.0010223388671875;-1.010223388671875;-0.004117513541132212;-0.0044075315818190575;0.0037915424909442663
-0.1139068603515625;-0.0010223388671875;-1.010223388671875;-0.004117513541132212;-0.0044075315818190575;0.0037915424909442663
-0.1139068603515625;-0.0010223388671875;-1.010223388671875;-0.004117513541132212;-0.0044075315818190575;0.0037915424909442663
-0.1139068603515625;-0.0010223388671875;-1.010223388671875;-0.004117513541132212;-0.0044075315818190575;0.0037915424909442663
-0.1139068603515625;-0.0010223388671875;-1.010223388671875;-0.004117513541132212;-0.0044075315818190575;0.0037915424909442663
-0.1136932373046875;-0.001220703125;-1.0084686279296875;-0.007305849809199572;-0.004085022956132889;0.003238936420530081
-0.1136932373046875;-0.001220703125;-1.0084686279296875;-0.007305849809199572;-0.004085022956132889;0.003238936420530081
-0.1136932373046875;-0.001220703125;-1.0084686279296875;-0.007305849809199572;-0.004085022956132889;0.003238936420530081
-0.1136932373046875;-0.001220703125;-1.0084686279296875;-0.007305849809199572;-0.004085022956132889;0.003238936420530081
-0.1136932373046875;-0.001220703125;-1.0084686279296875;-0.007305849809199572;-0.004085022956132889;0.003238936420530081
-0.114532470703125;-0.0012054443359375;-1.0086212158203125;-0.008084291592240334;-0.0017278589075431228;0.0035835495218634605
-0.114532470703125;-0.0012054443359375;-1.0086212158203125;-0.008084291592240334;-0.0017278589075431228;0.0035835495218634605
-0.114532470703125;-0.0012054443359375;-1.0086212158203125;-0.008084291592240334;-0.0017278589075431228;0.0035835495218634605
-0.114532470703125;-0.0012054443359375;-1.0086212158203125;-0.008084291592240334;-0.0017278589075431228;0.0035835495218634605
-0.114532470703125;-0.0012054443359375;-1.0086212158203125;-0.008084291592240334;-0.0017278589075431228;0.0035835495218634605
-0.1150970458984375;-0.001251220703125;-1.00921630859375;-0.007841144688427448;-0.002870887517929077;0.002258893335238099
-0.1150970458984375;-0.001251220703125;-1.00921630859375;-0.007841144688427448;-0.002870887517929077;0.002258893335238099
-0.1150970458984375;-0.001251220703125;-1.00921630859375;-0.007841144688427448;-0.002870887517929077;0.002258893335238099
-0.1150970458984375;-0.001251220703125;-1.00921630859375;-0.007841144688427448;-0.002870887517929077;0.002258893335238099
-0.1150970458984375;-0.001251220703125;-1.00921630859375;-0.007841144688427448;-0.002870887517929077;0.002258893335238099
-0.114501953125;-0.0002899169921875;-1.0102081298828125;-0.005917277652770281;-0.004413124173879623;0.003564641112461686
-0.114501953125;-0.0002899169921875;-1.0102081298828125;-0.005917277652770281;-0.004413124173879623;0.003564641112461686
-0.114501953125;-0.0002899169921875;-1.0102081298828125;-0.005917277652770281;-0.004413124173879623;0.003564641112461686
-0.114501953125;-0.0002899169921875;-1.0102081298828125;-0.005917277652770281;-0.004413124173879623;0.003564641112461686
-0.114501953125;-0.0002899169921875;-1.0102081298828125;-0.005917277652770281;-0.004413124173879623;0.003564641112461686
-0.115020751953125;0.001190185546875;-1.0091705322265625;-0.004729773849248886;-0.0007563377148471773;0.0018434401135891676
-0.115020751953125;0.001190185546875;-1.0091705322265625;-0.004729773849248886;-0.0007563377148471773;0.0018434401135891676
-0.115020751953125;0.001190185546875;-1.0091705322265625;-0.004729773849248886;-0.0007563377148471773;0.0018434401135891676
-0.115020751953125;0.001190185546875;-1.0091705322265625;-0.004729773849248886;-0.0007563377148471773;0.0018434401135891676
-0.115020751953125;0.001190185546875;-1.0091705322265625;-0.004729773849248886;-0.0007563377148471773;0.0018434401135891676
-0.115203857421875;0.0015869140625;-1.00860595703125;-0.0092923017218709;-0.0026581010315567255;0.0007877630414441228
-0.115203857421875;0.0015869140625;-1.00860595703125;-0.0092923017218709;-0.0026581010315567255;0.0007877630414441228
-0.115203857421875;0.0015869140625;-1.00860595703125;-0.0092923017218709;-0.0026581010315567255;0.0007877630414441228
-0.115203857421875;0.0015869140625;-1.00860595703125;-0.0092923017218709;-0.0026581010315567255;0.0007877630414441228
-0.115203857421875;0.0015869140625;-1.00860595703125;-0.0092923017218709;-0.0026581010315567255;0.0007877630414441228
-0.114990234375;0.001800537109375;-1.0095062255859375;-0.01287691667675972;-0.00040746363811194897;0.004849616438150406
-0.114990234375;0.001800537109375;-1.0095062255859375;-0.01287691667675972;-0.00040746363811194897;0.004849616438150406
-0.114990234375;0.001800537109375;-1.0095062255859375;-0.01287691667675972;-0.00040746363811194897;0.004849616438150406
-0.114990234375;0.001800537109375;-1.0095062255859375;-0.01287691667675972;-0.00040746363811194897;0.004849616438150406
-0.114990234375;0.001800537109375;-1.0095062255859375;-0.01287691667675972;-0.00040746363811194897;0.004849616438150406
-0.1145172119140625;0.0009765625;-1.009613037109375;-0.011957060545682907;-0.0025563682429492474;0.0010301107540726662
-0.1145172119140625;0.0009765625;-1.009613037109375;-0.011957060545682907;-0.0025563682429492474;0.0010301107540726662
-0.1145172119140625;0.0009765625;-1.009613037109375;-0.011957060545682907;-0.0025563682429492474;0.0010301107540726662
-0.1145172119140625;0.0009765625;-1.009613037109375;-0.011957060545682907;-0.0025563682429492474;0.0010301107540726662
-0.1145172119140625;0.0009765625;-1.009613037109375;-0.011957060545682907;-0.0025563682429492474;0.0010301107540726662
-0.1141357421875;0.0013275146484375;-1.010284423828125;-0.008232896216213703;-0.0006295712664723396;0.0006332996999844909
-0.1141357421875;0.0013275146484375;-1.010284423828125;-0.008232896216213703;-0.0006295712664723396;0.0006332996999844909
-0.1141357421875;0.0013275146484375;-1.010284423828125;-0.008232896216213703;-0.0006295712664723396;0.0006332996999844909
-0.1141357421875;0.0013275146484375;-1.010284423828125;-0.008232896216213703;-0.0006295712664723396;0.0006332996999844909
-0.1141357421875;0.0013275146484375;-1.010284423828125;-0.008232896216213703;-0.0006295712664723396;0.0006332996999844909
-0.114288330078125;6.103515625e-05;-1.01068115234375;-0.007760184817016125;1.9707391402334906e-05;-0.0009345032158307731
-0.114288330078125;6.103515625e-05;-1.01068115234375;-0.007760184817016125;1.9707391402334906e-05;-0.0009345032158307731
-0.114288330078125;6.103515625e-05;-1.01068115234375;-0.007760184817016125;1.9707391402334906e-05;-0.0009345032158307731
-0.114288330078125;6.103515625e-05;-1.01068115234375;-0.007760184817016125;1.9707391402334906e-05;-0.0009345032158307731
-0.114288330078125;6.103515625e-05;-1.01068115234375;-0.007760184817016125;1.9707391402334906e-05;-0.0009345032158307731
-0.1147613525390625;-0.0002899169921875;-1.013153076171875;-0.01007899921387434;-0.003135872073471546;0.002945456188172102
-0.1147613525390625;-0.0002899169921875;-1.013153076171875;-0.01007899921387434;-0.003135872073471546;0.002945456188172102
-0.1147613525390625;-0.0002899169921875;-1.013153076171875;-0.01007899921387434;-0.003135872073471546;0.002945456188172102
-0.1147613525390625;-0.0002899169921875;-1.013153076171875;-0.01007899921387434;-0.003135872073471546;0.002945456188172102
-0.1147613525390625;-0.0002899169921875;-1.013153076171875;-0.01007899921387434;-0.003135872073471546;0.002945456188172102
-0.1148681640625;-0.0001678466796875;-1.0134735107421875;-0.008953015320003033;0.0007419566973112524;0.0030631679110229015
-0.1148681640625;-0.0001678466796875;-1.0134735107421875;-0.008953015320003033;0.0007419566973112524;0.0030631679110229015
-0.1148681640625;-0.0001678466796875;-1.0134735107421875;-0.008953015320003033;0.0007419566973112524;0.0030631679110229015
-0.1148681640625;-0.0001678466796875;-1.0134735107421875;-0.008953015320003033;0.0007419566973112524;0.0030631679110229015
-0.1148681640625;-0.0001678466796875;-1.0134735107421875;-0.008953015320003033;0.0007419566973112524;0.0030631679110229015
-0.11505126953125;-0.00048828125;-1.0135955810546875;-0.005120992194861174;0.0019624833948910236;-0.00021971078240312636
-0.11505126953125;-0.00048828125;-1.0135955810546875;-0.005120992194861174;0.0019624833948910236;-0.00021971078240312636
-0.11505126953125;-0.00048828125;-1.0135955810546875;-0.005120992194861174;0.0019624833948910236;-0.00021971078240312636
-0.11505126953125;-0.00048828125;-1.0135955810546875;-0.005120992194861174;0.0019624833948910236;-0.00021971078240312636
-0.11505126953125;-0.00048828125;-1.0135955810546875;-0.005120992194861174;0.0019624833948910236;-0.00021971078240312636
-0.1153564453125;0.00189208984375;-1.009521484375;0.007003048434853554;0.02930409274995327;-0.005212338641285896
-0.1153564453125;0.00189208984375;-1.009521484375;0.007003048434853554;0.02930409274995327;-0.005212338641285896
-0.1153564453125;0.00189208984375;-1.009521484375;0.007003048434853554;0.02930409274995327;-0.005212338641285896
-0.1153564453125;0.00189208984375;-1.009521484375;0.007003048434853554;0.02930409274995327;-0.005212338641285896
-0.1153564453125;0.00189208984375;-1.009521484375;0.007003048434853554;0.02930409274995327;-0.005212338641285896
-0.1159210205078125;0.003082275390625;-0.994476318359375;0.01575872302055359;0.027662521228194237;-0.0054664043709635735
-0.1159210205078125;0.003082275390625;-0.994476318359375;0.01575872302055359;0.027662521228194237;-0.0054664043709635735
-0.1159210205078125;0.003082275390625;-0.994476318359375;0.01575872302055359;0.027662521228194237;-0.0054664043709635735
-0.1159210205078125;0.003082275390625;-0.994476318359375;0.01575872302055359;0.027662521228194237;-0.0054664043709635735
-0.1159210205078125;0.003082275390625;-0.994476318359375;0.01575872302055359;0.027662521228194237;-0.0054664043709635735
-0.113922119140625;0.0037841796875;-1.0029449462890625;0.015001053921878338;0.0229180995374918;-0.0011827098205685616
-0.113922119140625;0.0037841796875;-1.0029449462890625;0.015001053921878338;0.0229180995374918;-0.0011827098205685616
-0.113922119140625;0.0037841796875;-1.0029449462890625;0.015001053921878338;0.0229180995374918;-0.0011827098205685616
-0.113922119140625;0.0037841796875;-1.0029449462890625;0.015001053921878338;0.0229180995374918;-0.0011827098205685616
-0.113922119140625;0.0037841796875;-1.0029449462890625;0.015001053921878338;0.0229180995374918;-0.0011827098205685616
-0.11370849609375;0.0049591064453125;-1.0178985595703125;-0.0001573928166180849;0.00339126936160028;0.003347060875967145
-0.11370849609375;0.0049591064453125;-1.0178985595703125;-0.0001573928166180849;0.00339126936160028;0.003347060875967145
-0.11370849609375;0.0049591064453125;-1.0178985595703125;-0.0001573928166180849;0.00339126936160028;0.003347060875967145
-0.11370849609375;0.0049591064453125;-1.0178985595703125;-0.0001573928166180849;0.00339126936160028;0.003347060875967145
-0.11370849609375;0.0049591064453125;-1.0178985595703125;-0.0001573928166180849;0.00339126936160028;0.003347060875967145
-0.114654541015625;0.001953125;-1.0185394287109375;-0.009886719286441803;-0.040777791291475296;0.00495161535218358
-0.114654541015625;0.001953125;-1.0185394287109375;-0.009886719286441803;-0.040777791291475296;0.00495161535218358
-0.114654541015625;0.001953125;-1.0185394287109375;-0.009886719286441803;-0.040777791291475296;0.00495161535218358
-0.114654541015625;0.001953125;-1.0185394287109375;-0.009886719286441803;-0.040777791291475296;0.00495161535218358
-0.114654541015625;0.001953125;-1.0185394287109375;-0.009886719286441803;-0.040777791291475296;0.00495161535218358
-0.1141204833984375;0.0007781982421875;-1.0130157470703125;-0.00018029600323643535;-0.023066969588398933;0.006971622817218304
-0.1141204833984375;0.0007781982421875;-1.0130157470703125;-0.00018029600323643535;-0.023066969588398933;0.006971622817218304
-0.1141204833984375;0.0007781982421875;-1.0130157470703125;-0.00018029600323643535;-0.023066969588398933;0.006971622817218304
-0.1141204833984375;0.0007781982421875;-1.0130157470703125;-0.00018029600323643535;-0.023066969588398933;0.006971622817218304
-0.1141204833984375;0.0007781982421875;-1.0130157470703125;-0.00018029600323643535;-0.023066969588398933;0.006971622817218304
-0.1179656982421875;0.00128173828125;-1.0057830810546875;0.01961524598300457;-0.013429256156086922;0.0033542513847351074
-0.1179656982421875;0.00128173828125;-1.0057830810546875;0.01961524598300457;-0.013429256156086922;0.0033542513847351074
-0.1179656982421875;0.00128173828125;-1.0057830810546875;0.01961524598300457;-0.013429256156086922;0.0033542513847351074
-0.1179656982421875;0.00128173828125;-1.0057830810546875;0.01961524598300457;-0.013429256156086922;0.0033542513847351074
-0.1179656982421875;0.00128173828125;-1.0057830810546875;0.01961524598300457;-0.013429256156086922;0.0033542513847351074
-0.1183624267578125;0.00152587890625;-1.013153076171875;0.049184855073690414;0.003597398055717349;0.0006572681595571339
-0.1183624267578125;0.00152587890625;-1.013153076171875;0.049184855073690414;0.003597398055717349;0.0006572681595571339
-0.1183624267578125;0.00152587890625;-1.013153076171875;0.049184855073690414;0.003597398055717349;0.0006572681595571339
-0.1183624267578125;0.00152587890625;-1.013153076171875;0.049184855073690414;0.003597398055717349;0.0006572681595571339
-0.1183624267578125;0.00152587890625;-1.013153076171875;0.049184855073690414;0.003597398055717349;0.0006572681595571339
-0.1175079345703125;-0.0003509521484375;-1.0137481689453125;0.050868771970272064;0.007164435926824808;-0.0007113303290680051
-0.1175079345703125;-0.0003509521484375;-1.0137481689453125;0.050868771970272064;0.007164435926824808;-0.0007113303290680051
-0.1175079345703125;-0.0003509521484375;-1.0137481689453125;0.050868771970272064;0.007164435926824808;-0.0007113303290680051
-0.1175079345703125;-0.0003509521484375;-1.0137481689453125;0.050868771970272064;0.007164435926824808;-0.0007113303290680051
-0.1175079345703125;-0.0003509521484375;-1.0137481689453125;0.050868771970272064;0.007164435926824808;-0.0007113303290680051
-0.11474609375;-0.004638671875;-1.0068206787109375;0.029500633478164673;0.002951581496745348;0.0006697850185446441
-0.11474609375;-0.004638671875;-1.0068206787109375;0.029500633478164673;0.002951581496745348;0.0006697850185446441
-0.11474609375;-0.004638671875;-1.0068206787109375;0.029500633478164673;0.002951581496745348;0.0006697850185446441
-0.11474609375;-0.004638671875;-1.0068206787109375;0.029500633478164673;0.002951581496745348;0.0006697850185446441
-0.11474609375;-0.004638671875;-1.0068206787109375;0.029500633478164673;0.002951581496745348;0.0006697850185446441
-0.1123199462890625;-0.008544921875;-1.0076141357421875;0.004258926957845688;-0.0051811798475682735;-0.001395496423356235
-0.1123199462890625;-0.008544921875;-1.0076141357421875;0.004258926957845688;-0.0051811798475682735;-0.001395496423356235
-0.1123199462890625;-0.008544921875;-1.0076141357421875;0.004258926957845688;-0.0051811798475682735;-0.001395496423356235
-0.1123199462890625;-0.008544921875;-1.0076141357421875;0.004258926957845688;-0.0051811798475682735;-0.001395496423356235
-0.1123199462890625;-0.008544921875;-1.0076141357421875;0.004258926957845688;-0.0051811798475682735;-0.001395496423356235
-0.11114501953125;-0.0106201171875;-1.0126495361328125;0.0007709851488471031;-0.008649414405226707;-0.0009518137667328119
-0.11114501953125;-0.0106201171875;-1.0126495361328125;0.0007709851488471031;-0.008649414405226707;-0.0009518137667328119
-0.11114501953125;-0.0106201171875;-1.0126495361328125;0.0007709851488471031;-0.008649414405226707;-0.0009518137667328119
-0.11114501953125;-0.0106201171875;-1.0126495361328125;0.0007709851488471031;-0.008649414405226707;-0.0009518137667328119
-0.11114501953125;-0.0106201171875;-1.0126495361328125;0.0007709851488471031;-0.008649414405226707;-0.0009518137667328119
-0.111724853515625;-0.0086822509765625;-1.0095062255859375;0.002517752582207322;-0.0037768951151520014;-0.00250576832331717
-0.111724853515625;-0.0086822509765625;-1.0095062255859375;0.002517752582207322;-0.0037768951151520014;-0.00250576832331717
-0.111724853515625;-0.0086822509765625;-1.0095062255859375;0.002517752582207322;-0.0037768951151520014;-0.00250576832331717
-0.111724853515625;-0.0086822509765625;-1.0095062255859375;0.002517752582207322;-0.0037768951151520014;-0.00250576832331717
-0.111724853515625;-0.0086822509765625;-1.0095062255859375;0.006623281631618738;0.0004247741890139878;0.007348460145294666
-0.113525390625;-0.0063629150390625;-1.0047454833984375;0.006623281631618738;0.0004247741890139878;0.007348460145294666
-0.113525390625;-0.0063629150390625;-1.0047454833984375;0.006623281631618738;0.0004247741890139878;0.007348460145294666
-0.113525390625;-0.0063629150390625;-1.0047454833984375;0.006623281631618738;0.0004247741890139878;0.007348460145294666
-0.113525390625;-0.0063629150390625;-1.0047454833984375;0.006623281631618738;0.0004247741890139878;0.007348460145294666
-0.113525390625;-0.0063629150390625;-1.0047454833984375;0.006623281631618738;0.0004247741890139878;0.007348460145294666
-0.115203857421875;-0.0037689208984375;-1.0086822509765625;0.00875008199363947;0.0034559841733425856;0.009400958195328712
-0.115203857421875;-0.0037689208984375;-1.0086822509765625;0.00875008199363947;0.0034559841733425856;0.009400958195328712
-0.115203857421875;-0.0037689208984375;-1.0086822509765625;0.00875008199363947;0.0034559841733425856;0.009400958195328712
-0.115203857421875;-0.0037689208984375;-1.0086822509765625;0.00875008199363947;0.0034559841733425856;0.009400958195328712
-0.115203857421875;-0.0037689208984375;-1.0086822509765625;0.012521384283900261;0.007188937161117792;0.009214270859956741
-0.117919921875;-0.001190185546875;-1.012542724609375;0.012521384283900261;0.007188937161117792;0.009214270859956741
-0.117919921875;-0.001190185546875;-1.012542724609375;0.012521384283900261;0.007188937161117792;0.009214270859956741
-0.117919921875;-0.001190185546875;-1.012542724609375;0.012521384283900261;0.007188937161117792;0.009214270859956741
-0.117919921875;-0.001190185546875;-1.012542724609375;0.012521384283900261;0.007188937161117792;0.009214270859956741
-0.117919921875;0.00274658203125;-1.01214599609375;0.013364541344344616;0.0096259955316782;0.005126318894326687
-0.117919921875;0.00274658203125;-1.01214599609375;0.013364541344344616;0.0096259955316782;0.005126318894326687
-0.117919921875;0.00274658203125;-1.01214599609375;0.013364541344344616;0.0096259955316782;0.005126318894326687
-0.117919921875;0.00274658203125;-1.01214599609375;0.013364541344344616;0.0096259955316782;0.005126318894326687
-0.117919921875;0.00274658203125;-1.01214599609375;0.013364541344344616;0.0096259955316782;0.005126318894326687
-0.117919921875;0.00274658203125;-1.01214599609375;0.013462278991937637;0.010277139022946358;0.004502606578171253
-0.11785888671875;0.003662109375;-1.0087890625;0.013462278991937637;0.010277139022946358;0.004502606578171253
-0.11785888671875;0.003662109375;-1.0087890625;0.013462278991937637;0.010277139022946358;0.004502606578171253
-0.11785888671875;0.003662109375;-1.0087890625;0.013462278991937637;0.010277139022946358;0.004502606578171253
-0.11785888671875;0.003662109375;-1.0087890625;0.013462278991937637;0.010277139022946358;0.004502606578171253
-0.115203857421875;0.0034027099609375;-1.01226806640625;0.016815997660160065;0.005460012704133987;0.004652542527765036
-0.115203857421875;0.0034027099609375;-1.01226806640625;0.016815997660160065;0.005460012704133987;0.004652542527765036
-0.115203857421875;0.0034027099609375;-1.01226806640625;0.016815997660160065;0.005460012704133987;0.004652542527765036
-0.115203857421875;0.0034027099609375;-1.01226806640625;0.016815997660160065;0.005460012704133987;0.004652542527765036
-0.115203857421875;0.0034027099609375;-1.01226806640625;0.016815997660160065;0.005460012704133987;0.004652542527765036
-0.113372802734375;0.0033111572265625;-1.0130767822265625;0.019884224981069565;0.009490973316133022;0.0008735168376006186
-0.113372802734375;0.0033111572265625;-1.0130767822265625;0.019884224981069565;0.009490973316133022;0.0008735168376006186
-0.113372802734375;0.0033111572265625;-1.0130767822265625;0.019884224981069565;0.009490973316133022;0.0008735168376006186
-0.113372802734375;0.0033111572265625;-1.0130767822265625;0.019884224981069565;0.009490973316133022;0.0008735168376006186
-0.113372802734375;0.0033111572265625;-1.0130767822265625;0.019884224981069565;0.009490973316133022;0.0008735168376006186
-0.113372802734375;0.0033111572265625;-1.0130767822265625;0.019884224981069565;0.009490973316133022;0.0008735168376006186
-0.114105224609375;0.0032196044921875;-1.0117034912109375;0.023503195494413376;0.007893609814345837;-3.382214708835818e-05
-0.114105224609375;0.0032196044921875;-1.0117034912109375;0.023503195494413376;0.007893609814345837;-3.382214708835818e-05
-0.114105224609375;0.0032196044921875;-1.0117034912109375;0.023503195494413376;0.007893609814345837;-3.382214708835818e-05
-0.114105224609375;0.0032196044921875;-1.0117034912109375;0.023503195494413376;0.007893609814345837;-3.382214708835818e-05
-0.1144561767578125;0.0026092529296875;-1.01171875;0.021626731380820274;0.003057841444388032;-0.0007390272221527994
-0.1144561767578125;0.0026092529296875;-1.01171875;0.021626731380820274;0.003057841444388032;-0.0007390272221527994
-0.1144561767578125;0.0026092529296875;-1.01171875;0.021626731380820274;0.003057841444388032;-0.0007390272221527994
-0.1144561767578125;0.0026092529296875;-1.01171875;0.021626731380820274;0.003057841444388032;-0.0007390272221527994
-0.1144561767578125;0.0026092529296875;-1.01171875;0.021626731380820274;0.003057841444388032;-0.0007390272221527994
-0.1137542724609375;0.00067138671875;-1.0106353759765625;0.017961690202355385;0.00598545465618372;0.0015579492319375277
-0.1137542724609375;0.00067138671875;-1.0106353759765625;0.017961690202355385;0.00598545465618372;0.0015579492319375277
-0.1137542724609375;0.00067138671875;-1.0106353759765625;0.017961690202355385;0.00598545465618372;0.0015579492319375277
-0.1137542724609375;0.00067138671875;-1.0106353759765625;0.017961690202355385;0.00598545465618372;0.0015579492319375277
-0.1137542724609375;0.00067138671875;-1.0106353759765625;0.017961690202355385;0.00598545465618372;0.0015579492319375277
-0.1123046875;-0.0014801025390625;-1.0080718994140625;0.01278636883944273;0.0016117451013997197;-0.0011688614031299949
-0.1123046875;-0.0014801025390625;-1.0080718994140625;0.01278636883944273;0.0016117451013997197;-0.0011688614031299949
-0.1123046875;-0.0014801025390625;-1.0080718994140625;0.01278636883944273;0.0016117451013997197;-0.0011688614031299949
-0.1123046875;-0.0014801025390625;-1.0080718994140625;0.01278636883944273;0.0016117451013997197;-0.0011688614031299949
-0.1123046875;-0.0014801025390625;-1.0080718994140625;0.01278636883944273;0.0016117451013997197;-0.0011688614031299949
-0.1122894287109375;-0.003448486328125;-1.0085906982421875;0.01200047042220831;0.0005366269615478814;0.002139050979167223
-0.1122894287109375;-0.003448486328125;-1.0085906982421875;0.01200047042220831;0.0005366269615478814;0.002139050979167223
-0.1122894287109375;-0.003448486328125;-1.0085906982421875;0.01200047042220831;0.0005366269615478814;0.002139050979167223
-0.1122894287109375;-0.003448486328125;-1.0085906982421875;0.01200047042220831;0.0005366269615478814;0.002139050979167223
-0.1122894287109375;-0.003448486328125;-1.0085906982421875;0.01200047042220831;0.0005366269615478814;0.002139050979167223
-0.1112823486328125;-0.00360107421875;-1.0092010498046875;0.008227037265896797;0.0015129417879506946;0.001841575838625431
-0.1112823486328125;-0.00360107421875;-1.0092010498046875;0.008227037265896797;0.0015129417879506946;0.001841575838625431
-0.1112823486328125;-0.00360107421875;-1.0092010498046875;0.008227037265896797;0.0015129417879506946;0.001841575838625431
-0.1112823486328125;-0.00360107421875;-1.0092010498046875;0.008227037265896797;0.0015129417879506946;0.001841575838625431
-0.1112823486328125;-0.00360107421875;-1.0092010498046875;0.008227037265896797;0.0015129417879506946;0.001841575838625431
-0.1117401123046875;-0.0045623779296875;-1.0102386474609375;0.01290168333798647;0.0007781756576150656;0.0012687299167737365
-0.1117401123046875;-0.0045623779296875;-1.0102386474609375;0.01290168333798647;0.0007781756576150656;0.0012687299167737365
-0.1117401123046875;-0.0045623779296875;-1.0102386474609375;0.01290168333798647;0.0007781756576150656;0.0012687299167737365
-0.1117401123046875;-0.0045623779296875;-1.0102386474609375;0.01290168333798647;0.0007781756576150656;0.0012687299167737365
-0.1117401123046875;-0.0045623779296875;-1.0102386474609375;0.01290168333798647;0.0007781756576150656;0.0012687299167737365
-0.1127471923828125;-0.0055694580078125;-1.0087738037109375;0.013422331772744656;0.0030099046416580677;0.004053597338497639
-0.1127471923828125;-0.0055694580078125;-1.0087738037109375;0.013422331772744656;0.0030099046416580677;0.004053597338497639
-0.1127471923828125;-0.0055694580078125;-1.0087738037109375;0.013422331772744656;0.0030099046416580677;0.004053597338497639
-0.1127471923828125;-0.0055694580078125;-1.0087738037109375;0.013422331772744656;0.0030099046416580677;0.004053597338497639
-0.1127471923828125;-0.0055694580078125;-1.0087738037109375;0.013422331772744656;0.0030099046416580677;0.004053597338497639
-0.1128997802734375;-0.0059661865234375;-1.0073089599609375;0.015532087534666061;0.004830175079405308;0.0038045919500291348
-0.1128997802734375;-0.0059661865234375;-1.0073089599609375;0.015532087534666061;0.004830175079405308;0.0038045919500291348
-0.1128997802734375;-0.0059661865234375;-1.0073089599609375;0.015532087534666061;0.004830175079405308;0.0038045919500291348
-0.1128997802734375;-0.0059661865234375;-1.0073089599609375;0.015532087534666061;0.004830175079405308;0.0038045919500291348
-0.1131591796875;-0.0059967041015625;-1.0103302001953125;0.02142726071178913;0.0054333810694515705;0.0013243899447843432
-0.1131591796875;-0.0059967041015625;-1.0103302001953125;0.02142726071178913;0.0054333810694515705;0.0013243899447843432
-0.1131591796875;-0.0059967041015625;-1.0103302001953125;0.02142726071178913;0.0054333810694515705;0.0013243899447843432
-0.1131591796875;-0.0059967041015625;-1.0103302001953125;0.02142726071178913;0.0054333810694515705;0.0013243899447843432
-0.1131591796875;-0.0059967041015625;-1.0103302001953125;0.02142726071178913;0.0054333810694515705;0.0013243899447843432
-0.11224365234375;-0.0056915283203125;-1.014312744140625;0.019833892583847046;0.0013731258222833276;0.00276089902035892
-0.11224365234375;-0.0056915283203125;-1.014312744140625;0.019833892583847046;0.0013731258222833276;0.00276089902035892
-0.11224365234375;-0.0056915283203125;-1.014312744140625;0.019833892583847046;0.0013731258222833276;0.00276089902035892
-0.11224365234375;-0.0056915283203125;-1.014312744140625;0.019833892583847046;0.0013731258222833276;0.00276089902035892
-0.11224365234375;-0.0056915283203125;-1.014312744140625;0.019833892583847046;0.0013731258222833276;0.00276089902035892
-0.1121978759765625;-0.00714111328125;-1.0130615234375;0.00333214714191854;-0.008649680763483047;0.002561161993071437
-0.1121978759765625;-0.00714111328125;-1.0130615234375;0.00333214714191854;-0.008649680763483047;0.002561161993071437
-0.1121978759765625;-0.00714111328125;-1.0130615234375;0.00333214714191854;-0.008649680763483047;0.002561161993071437
-0.1121978759765625;-0.00714111328125;-1.0130615234375;0.00333214714191854;-0.008649680763483047;0.002561161993071437
-0.1121978759765625;-0.00714111328125;-1.0130615234375;0.00333214714191854;-0.008649680763483047;0.002561161993071437
-0.1122589111328125;-0.009490966796875;-1.0048828125;-0.02028689533472061;-0.015138206072151661;0.0009552759001962841
-0.1122589111328125;-0.009490966796875;-1.0048828125;-0.02028689533472061;-0.015138206072151661;0.0009552759001962841
-0.1122589111328125;-0.009490966796875;-1.0048828125;-0.02028689533472061;-0.015138206072151661;0.0009552759001962841
-0.1122589111328125;-0.009490966796875;-1.0048828125;-0.02028689533472061;-0.015138206072151661;0.0009552759001962841
-0.1122589111328125;-0.009490966796875;-1.0048828125;-0.02028689533472061;-0.015138206072151661;0.0009552759001962841
-0.11248779296875;-0.0079193115234375;-1.00604248046875;-0.020843230187892914;-0.007107976824045181;0.00236222380772233
-0.11248779296875;-0.0079193115234375;-1.00604248046875;-0.020843230187892914;-0.007107976824045181;0.00236222380772233
-0.11248779296875;-0.0079193115234375;-1.00604248046875;-0.020843230187892914;-0.007107976824045181;0.00236222380772233
-0.11248779296875;-0.0079193115234375;-1.00604248046875;-0.020843230187892914;-0.007107976824045181;0.00236222380772233
-0.11248779296875;-0.0079193115234375;-1.00604248046875;-0.020843230187892914;-0.007107976824045181;0.00236222380772233
-0.113525390625;-0.0029449462890625;-1.0142364501953125;0.004601942375302315;-0.0073109096847474575;0.003997670952230692
-0.113525390625;-0.0029449462890625;-1.0142364501953125;0.004601942375302315;-0.0073109096847474575;0.003997670952230692
-0.113525390625;-0.0029449462890625;-1.0142364501953125;0.004601942375302315;-0.0073109096847474575;0.003997670952230692
-0.113525390625;-0.0029449462890625;-1.0142364501953125;0.004601942375302315;-0.0073109096847474575;0.003997670952230692
-0.113525390625;-0.0029449462890625;-1.0142364501953125;0.004601942375302315;-0.0073109096847474575;0.003997670952230692
-0.1135711669921875;-0.0006866455078125;-1.01824951171875;0.006499444600194693;-0.014563229866325855;0.003997404593974352
-0.1135711669921875;-0.0006866455078125;-1.01824951171875;0.006499444600194693;-0.014563229866325855;0.003997404593974352
-0.1135711669921875;-0.0006866455078125;-1.01824951171875;0.006499444600194693;-0.014563229866325855;0.003997404593974352
-0.1135711669921875;-0.0006866455078125;-1.01824951171875;0.006499444600194693;-0.014563229866325855;0.003997404593974352
-0.1135711669921875;-0.0006866455078125;-1.01824951171875;0.006499444600194693;-0.014563229866325855;0.003997404593974352
-0.1138763427734375;-0.0032501220703125;-1.0077362060546875;-0.013344034552574158;-0.00974743627011776;0.0033715618774294853
-0.1138763427734375;-0.0032501220703125;-1.0077362060546875;-0.013344034552574158;-0.00974743627011776;0.0033715618774294853
-0.1138763427734375;-0.0032501220703125;-1.0077362060546875;-0.013344034552574158;-0.00974743627011776;0.0033715618774294853
-0.1138763427734375;-0.0032501220703125;-1.0077362060546875;-0.013344034552574158;-0.00974743627011776;0.0033715618774294853
-0.1138763427734375;-0.0032501220703125;-1.0077362060546875;-0.013344034552574158;-0.00974743627011776;0.0033715618774294853
-0.1155853271484375;-0.0058441162109375;-0.99969482421875;-0.023676300421357155;-0.012404471635818481;0.0017438378417864442
-0.1155853271484375;-0.0058441162109375;-0.99969482421875;-0.023676300421357155;-0.012404471635818481;0.0017438378417864442
-0.1155853271484375;-0.0058441162109375;-0.99969482421875;-0.023676300421357155;-0.012404471635818481;0.0017438378417864442
-0.1155853271484375;-0.0058441162109375;-0.99969482421875;-0.023676300421357155;-0.012404471635818481;0.0017438378417864442
-0.1155853271484375;-0.0058441162109375;-0.99969482421875;-0.023676300421357155;-0.012404471635818481;0.0017438378417864442
-0.1147003173828125;-0.0037078857421875;-1.0041961669921875;-0.015573632903397083;-0.028665998950600624;-0.0016322514275088906
-0.1147003173828125;-0.0037078857421875;-1.0041961669921875;-0.015573632903397083;-0.028665998950600624;-0.0016322514275088906
-0.1147003173828125;-0.0037078857421875;-1.0041961669921875;-0.015573632903397083;-0.028665998950600624;-0.0016322514275088906
-0.1147003173828125;-0.0037078857421875;-1.0041961669921875;-0.015573632903397083;-0.028665998950600624;-0.0016322514275088906
-0.1147003173828125;-0.0037078857421875;-1.0041961669921875;-0.015573632903397083;-0.028665998950600624;-0.0016322514275088906
-0.111968994140625;0.000823974609375;-1.0123748779296875;0.004305532667785883;-0.03744244575500488;0.0021646174136549234
-0.111968994140625;0.000823974609375;-1.0123748779296875;0.004305532667785883;-0.03744244575500488;0.0021646174136549234
-0.111968994140625;0.000823974609375;-1.0123748779296875;0.004305532667785883;-0.03744244575500488;0.0021646174136549234
-0.111968994140625;0.000823974609375;-1.0123748779296875;0.004305532667785883;-0.03744244575500488;0.0021646174136549234
-0.111968994140625;0.000823974609375;-1.0123748779296875;0.004305532667785883;-0.03744244575500488;0.0021646174136549234
-0.1143798828125;0.0030975341796875;-1.0192413330078125;0.014199442230165005;-0.035465847700834274;0.00205276464112103
-0.1143798828125;0.0030975341796875;-1.0192413330078125;0.014199442230165005;-0.035465847700834274;0.00205276464112103
-0.1143798828125;0.0030975341796875;-1.0192413330078125;0.014199442230165005;-0.035465847700834274;0.00205276464112103
-0.1143798828125;0.0030975341796875;-1.0192413330078125;0.014199442230165005;-0.035465847700834274;0.00205276464112103
-0.1143798828125;0.0030975341796875;-1.0192413330078125;0.014199442230165005;-0.035465847700834274;0.00205276464112103
-0.1175537109375;0.001556396484375;-1.0202789306640625;0.01787939853966236;-0.03765203803777695;0.004429635591804981
-0.1175537109375;0.001556396484375;-1.0202789306640625;0.01787939853966236;-0.03765203803777695;0.004429635591804981
-0.1175537109375;0.001556396484375;-1.0202789306640625;0.01787939853966236;-0.03765203803777695;0.004429635591804981
-0.1175537109375;0.001556396484375;-1.0202789306640625;0.01787939853966236;-0.03765203803777695;0.004429635591804981
-0.1175537109375;0.001556396484375;-1.0202789306640625;0.01787939853966236;-0.03765203803777695;0.004429635591804981
-0.11956787109375;-0.002838134765625;-1.0177764892578125;0.011137072928249836;-0.0357273705303669;0.007202785462141037
-0.11956787109375;-0.002838134765625;-1.0177764892578125;0.011137072928249836;-0.0357273705303669;0.007202785462141037
-0.11956787109375;-0.002838134765625;-1.0177764892578125;0.011137072928249836;-0.0357273705303669;0.007202785462141037
-0.11956787109375;-0.002838134765625;-1.0177764892578125;0.011137072928249836;-0.0357273705303669;0.007202785462141037
-0.11956787109375;-0.002838134765625;-1.0177764892578125;0.011137072928249836;-0.0357273705303669;0.007202785462141037
-0.1191558837890625;-0.009185791015625;-1.01568603515625;0.005625395104289055;-0.02881699986755848;0.010834538377821445
-0.1191558837890625;-0.009185791015625;-1.01568603515625;0.005625395104289055;-0.02881699986755848;0.010834538377821445
-0.1191558837890625;-0.009185791015625;-1.01568603515625;0.005625395104289055;-0.02881699986755848;0.010834538377821445
-0.1191558837890625;-0.009185791015625;-1.01568603515625;0.005625395104289055;-0.02881699986755848;0.010834538377821445
-0.1191558837890625;-0.009185791015625;-1.01568603515625;0.005625395104289055;-0.02881699986755848;0.010834538377821445
-0.12066650390625;-0.00933837890625;-1.0116424560546875;0.003008306724950671;-0.020506873726844788;0.009297095239162445
-0.12066650390625;-0.00933837890625;-1.0116424560546875;0.003008306724950671;-0.020506873726844788;0.009297095239162445
-0.12066650390625;-0.00933837890625;-1.0116424560546875;0.003008306724950671;-0.020506873726844788;0.009297095239162445
-0.12066650390625;-0.00933837890625;-1.0116424560546875;0.003008306724950671;-0.020506873726844788;0.009297095239162445
-0.12066650390625;-0.00933837890625;-1.0116424560546875;0.003008306724950671;-0.020506873726844788;0.009297095239162445
-0.11981201171875;-0.0086669921875;-1.0106353759765625;0.003625627374276519;-0.017853831872344017;0.008166583254933357
-0.11981201171875;-0.0086669921875;-1.0106353759765625;0.003625627374276519;-0.017853831872344017;0.008166583254933357
-0.11981201171875;-0.0086669921875;-1.0106353759765625;0.003625627374276519;-0.017853831872344017;0.008166583254933357
-0.11981201171875;-0.0086669921875;-1.0106353759765625;0.003625627374276519;-0.017853831872344017;0.008166583254933357
-0.11981201171875;-0.0086669921875;-1.0106353759765625;0.003625627374276519;-0.017853831872344017;0.008166583254933357
-0.1181182861328125;-0.007171630859375;-1.01220703125;0.005558017175644636;-0.006121009588241577;0.007604922633618116
-0.1181182861328125;-0.007171630859375;-1.01220703125;0.005558017175644636;-0.006121009588241577;0.007604922633618116
-0.1181182861328125;-0.007171630859375;-1.01220703125;0.005558017175644636;-0.006121009588241577;0.007604922633618116
-0.1181182861328125;-0.007171630859375;-1.01220703125;0.005558017175644636;-0.006121009588241577;0.007604922633618116
-0.1181182861328125;-0.007171630859375;-1.01220703125;0.005558017175644636;-0.006121009588241577;0.007604922633618116
-0.118377685546875;-0.0029296875;-1.010986328125;0.010461162775754929;-0.00046046054922044277;0.004210191313177347
-0.118377685546875;-0.0029296875;-1.010986328125;0.010461162775754929;-0.00046046054922044277;0.004210191313177347
-0.118377685546875;-0.0029296875;-1.010986328125;0.010461162775754929;-0.00046046054922044277;0.004210191313177347
-0.118377685546875;-0.0029296875;-1.010986328125;0.010461162775754929;-0.00046046054922044277;0.004210191313177347
-0.118377685546875;-0.0029296875;-1.010986328125;0.010461162775754929;-0.00046046054922044277;0.004210191313177347
-0.117828369140625;0.0001678466796875;-1.0092315673828125;0.013998639769852161;-0.002092179376631975;0.001520398654974997
-0.117828369140625;0.0001678466796875;-1.0092315673828125;0.013998639769852161;-0.002092179376631975;0.001520398654974997
-0.117828369140625;0.0001678466796875;-1.0092315673828125;0.013998639769852161;-0.002092179376631975;0.001520398654974997
-0.117828369140625;0.0001678466796875;-1.0092315673828125;0.013998639769852161;-0.002092179376631975;0.001520398654974997
-0.117828369140625;0.0001678466796875;-1.0092315673828125;0.013998639769852161;-0.002092179376631975;0.001520398654974997
-0.1149749755859375;-0.0006561279296875;-1.008880615234375;0.010922156274318695;-0.014504906721413136;-0.0009523464250378311
-0.1149749755859375;-0.0006561279296875;-1.008880615234375;0.010922156274318695;-0.014504906721413136;-0.0009523464250378311
-0.1149749755859375;-0.0006561279296875;-1.008880615234375;0.010922156274318695;-0.014504906721413136;-0.0009523464250378311
-0.1149749755859375;-0.0006561279296875;-1.008880615234375;0.010922156274318695;-0.014504906721413136;-0.0009523464250378311
-0.1149749755859375;-0.0006561279296875;-1.008880615234375;0.010922156274318695;-0.014504906721413136;-0.0009523464250378311
-0.1118011474609375;-0.0027923583984375;-1.009613037109375;0.005905293393880129;-0.01888687163591385;-0.0012695288751274347
-0.1118011474609375;-0.0027923583984375;-1.009613037109375;0.005905293393880129;-0.01888687163591385;-0.0012695288751274347
-0.1118011474609375;-0.0027923583984375;-1.009613037109375;0.005905293393880129;-0.01888687163591385;-0.0012695288751274347
-0.1118011474609375;-0.0027923583984375;-1.009613037109375;0.005905293393880129;-0.01888687163591385;-0.0012695288751274347
-0.1118011474609375;-0.0027923583984375;-1.009613037109375;0.005905293393880129;-0.01888687163591385;-0.0012695288751274347
-0.11187744140625;-0.0047454833984375;-1.0079498291015625;0.0035238948184996843;-0.0193710345774889;0.0038250982761383057
-0.11187744140625;-0.0047454833984375;-1.0079498291015625;0.0035238948184996843;-0.0193710345774889;0.0038250982761383057
-0.11187744140625;-0.0047454833984375;-1.0079498291015625;0.0035238948184996843;-0.0193710345774889;0.0038250982761383057
-0.11187744140625;-0.0047454833984375;-1.0079498291015625;0.0035238948184996843;-0.0193710345774889;0.0038250982761383057
-0.11187744140625;-0.0047454833984375;-1.0079498291015625;0.0035238948184996843;-0.0193710345774889;0.0038250982761383057
-0.11273193359375;-0.00421142578125;-1.00537109375;0.00717748561874032;-0.011290471069514751;-0.001805623178370297
-0.11273193359375;-0.00421142578125;-1.00537109375;0.00717748561874032;-0.011290471069514751;-0.001805623178370297
-0.11273193359375;-0.00421142578125;-1.00537109375;0.00717748561874032;-0.011290471069514751;-0.001805623178370297
-0.11273193359375;-0.00421142578125;-1.00537109375;0.00717748561874032;-0.011290471069514751;-0.001805623178370297
-0.11273193359375;-0.00421142578125;-1.00537109375;0.00717748561874032;-0.011290471069514751;-0.001805623178370297
-0.112457275390625;-0.003753662109375;-1.008941650390625;0.01690601371228695;-0.009319731965661049;-0.0005637911963276565
-0.112457275390625;-0.003753662109375;-1.008941650390625;0.01690601371228695;-0.009319731965661049;-0.0005637911963276565
-0.112457275390625;-0.003753662109375;-1.008941650390625;0.01690601371228695;-0.009319731965661049;-0.0005637911963276565
-0.112457275390625;-0.003753662109375;-1.008941650390625;0.01690601371228695;-0.009319731965661049;-0.0005637911963276565
-0.112457275390625;-0.003753662109375;-1.008941650390625;0.019182216376066208;-0.011505921371281147;0.0006221143994480371
-0.11163330078125;-0.003387451171875;-1.0114898681640625;0.019182216376066208;-0.011505921371281147;0.0006221143994480371
-0.11163330078125;-0.003387451171875;-1.0114898681640625;0.019182216376066208;-0.011505921371281147;0.0006221143994480371
-0.11163330078125;-0.003387451171875;-1.0114898681640625;0.019182216376066208;-0.011505921371281147;0.0006221143994480371
-0.11163330078125;-0.003387451171875;-1.0114898681640625;0.019182216376066208;-0.011505921371281147;0.0006221143994480371
-0.111572265625;-0.00421142578125;-1.01019287109375;0.02053057588636875;-0.016895625740289688;0.002691656816750765
-0.111572265625;-0.00421142578125;-1.01019287109375;0.02053057588636875;-0.016895625740289688;0.002691656816750765
-0.111572265625;-0.00421142578125;-1.01019287109375;0.02053057588636875;-0.016895625740289688;0.002691656816750765
-0.111572265625;-0.00421142578125;-1.01019287109375;0.02053057588636875;-0.016895625740289688;0.002691656816750765
-0.111572265625;-0.00421142578125;-1.01019287109375;0.02053057588636875;-0.016895625740289688;0.002691656816750765
-0.111572265625;-0.00421142578125;-1.01019287109375;0.017499098554253578;-0.013642042875289917;0.008864331990480423
-0.1138153076171875;-0.0045166015625;-1.0075531005859375;0.017499098554253578;-0.013642042875289917;0.008864331990480423
-0.1138153076171875;-0.0045166015625;-1.0075531005859375;0.017499098554253578;-0.013642042875289917;0.008864331990480423
-0.1138153076171875;-0.0045166015625;-1.0075531005859375;0.017499098554253578;-0.013642042875289917;0.008864331990480423
-0.1138153076171875;-0.0045166015625;-1.0075531005859375;0.017499098554253578;-0.013642042875289917;0.008864331990480423
-0.1176910400390625;-0.0050811767578125;-1.0058746337890625;0.014936339110136032;-0.008164985105395317;0.007969509810209274
-0.1176910400390625;-0.0050811767578125;-1.0058746337890625;0.014936339110136032;-0.008164985105395317;0.007969509810209274
-0.1176910400390625;-0.0050811767578125;-1.0058746337890625;0.014936339110136032;-0.008164985105395317;0.007969509810209274
-0.1176910400390625;-0.0050811767578125;-1.0058746337890625;0.014936339110136032;-0.008164985105395317;0.007969509810209274
-0.1176910400390625;-0.0050811767578125;-1.0058746337890625;0.014936339110136032;-0.008164985105395317;0.007969509810209274
-0.1187591552734375;-0.004180908203125;-1.006591796875;0.012289688922464848;-0.008964200504124165;0.005907690152525902
-0.1187591552734375;-0.004180908203125;-1.006591796875;0.012289688922464848;-0.008964200504124165;0.005907690152525902
-0.1187591552734375;-0.004180908203125;-1.006591796875;0.012289688922464848;-0.008964200504124165;0.005907690152525902
-0.1187591552734375;-0.004180908203125;-1.006591796875;0.012289688922464848;-0.008964200504124165;0.005907690152525902
-0.1187591552734375;-0.004180908203125;-1.006591796875;0.012289688922464848;-0.008964200504124165;0.005907690152525902
-0.1187591552734375;-0.004180908203125;-1.006591796875;0.011933624744415283;-0.006580670829862356;0.004004595335572958
-0.1179962158203125;-0.00469970703125;-1.009490966796875;0.011933624744415283;-0.006580670829862356;0.004004595335572958
-0.1179962158203125;-0.00469970703125;-1.009490966796875;0.011933624744415283;-0.006580670829862356;0.004004595335572958
-0.1179962158203125;-0.00469970703125;-1.009490966796875;0.011933624744415283;-0.006580670829862356;0.004004595335572958
-0.1179962158203125;-0.00469970703125;-1.009490966796875;0.011933624744415283;-0.006580670829862356;0.004004595335572958
-0.1177825927734375;-0.0048675537109375;-1.011199951171875;0.008376972749829292;-0.007287740241736174;0.004977181553840637
-0.1177825927734375;-0.0048675537109375;-1.011199951171875;0.008376972749829292;-0.007287740241736174;0.004977181553840637
-0.1177825927734375;-0.0048675537109375;-1.011199951171875;0.008376972749829292;-0.007287740241736174;0.004977181553840637
-0.1177825927734375;-0.0048675537109375;-1.011199951171875;0.008376972749829292;-0.007287740241736174;0.004977181553840637
-0.1177825927734375;-0.0048675537109375;-1.011199951171875;0.008376972749829292;-0.007287740241736174;0.004977181553840637
-0.119110107421875;-0.0058746337890625;-1.0080108642578125;0.006147907115519047;-0.00589757040143013;0.0027228158432990313
-0.119110107421875;-0.0058746337890625;-1.0080108642578125;0.006147907115519047;-0.00589757040143013;0.0027228158432990313
-0.119110107421875;-0.0058746337890625;-1.0080108642578125;0.006147907115519047;-0.00589757040143013;0.0027228158432990313
-0.119110107421875;-0.0058746337890625;-1.0080108642578125;0.006147907115519047;-0.00589757040143013;0.0027228158432990313
-0.119110107421875;-0.0058746337890625;-1.0080108642578125;0.006147907115519047;-0.00589757040143013;0.0027228158432990313
-0.1178436279296875;-0.0063323974609375;-1.0053253173828125;0.006554838269948959;-0.006785734556615353;0.002350505907088518
-0.1178436279296875;-0.0063323974609375;-1.0053253173828125;0.006554838269948959;-0.006785734556615353;0.002350505907088518
-0.1178436279296875;-0.0063323974609375;-1.0053253173828125;0.006554838269948959;-0.006785734556615353;0.002350505907088518
-0.1178436279296875;-0.0063323974609375;-1.0053253173828125;0.006554838269948959;-0.006785734556615353;0.002350505907088518
-0.1178436279296875;-0.0063323974609375;-1.0053253173828125;0.006554838269948959;-0.006785734556615353;0.002350505907088518
-0.119842529296875;-0.0062255859375;-1.009796142578125;0.006713296286761761;-0.002971288748085499;0.0026732811238616705
-0.119842529296875;-0.0062255859375;-1.009796142578125;0.006713296286761761;-0.002971288748085499;0.0026732811238616705
-0.119842529296875;-0.0062255859375;-1.009796142578125;0.006713296286761761;-0.002971288748085499;0.0026732811238616705
-0.119842529296875;-0.0062255859375;-1.009796142578125;0.006713296286761761;-0.002971288748085499;0.0026732811238616705
-0.119842529296875;-0.0062255859375;-1.009796142578125;0.006713296286761761;-0.002971288748085499;0.0026732811238616705
-0.119842529296875;-0.0062255859375;-1.009796142578125;0.008460862562060356;-0.006469883490353823;0.0019124159589409828
-0.1185302734375;-0.0060577392578125;-1.011993408203125;0.008460862562060356;-0.006469883490353823;0.0019124159589409828
-0.1185302734375;-0.0060577392578125;-1.011993408203125;0.008460862562060356;-0.006469883490353823;0.0019124159589409828
-0.1185302734375;-0.0060577392578125;-1.011993408203125;0.008460862562060356;-0.006469883490353823;0.0019124159589409828
-0.1185302734375;-0.0060577392578125;-1.011993408203125;0.008460862562060356;-0.006469883490353823;0.0019124159589409828
-0.1183013916015625;-0.0062103271484375;-1.0106353759765625;0.0035081820096820593;-0.004346278961747885;0.0023222763556987047
-0.1183013916015625;-0.0062103271484375;-1.0106353759765625;0.0035081820096820593;-0.004346278961747885;0.0023222763556987047
-0.1183013916015625;-0.0062103271484375;-1.0106353759765625;0.0035081820096820593;-0.004346278961747885;0.0023222763556987047
-0.1183013916015625;-0.0062103271484375;-1.0106353759765625;0.0035081820096820593;-0.004346278961747885;0.0023222763556987047
-0.1183013916015625;-0.0062103271484375;-1.0106353759765625;0.0035081820096820593;-0.004346278961747885;0.0023222763556987047
-0.1182403564453125;-0.00689697265625;-1.006378173828125;-0.0011883024126291275;-0.007236873731017113;-0.0002657834847923368
-0.1182403564453125;-0.00689697265625;-1.006378173828125;-0.0011883024126291275;-0.007236873731017113;-0.0002657834847923368
-0.1182403564453125;-0.00689697265625;-1.006378173828125;-0.0011883024126291275;-0.007236873731017113;-0.0002657834847923368
-0.1182403564453125;-0.00689697265625;-1.006378173828125;-0.0011883024126291275;-0.007236873731017113;-0.0002657834847923368
-0.1182403564453125;-0.00689697265625;-1.006378173828125;-0.0011883024126291275;-0.007236873731017113;-0.0002657834847923368
-0.11798095703125;-0.0078582763671875;-1.0070343017578125;-0.0018812569323927164;-0.005767341703176498;9.640643111197278e-05
-0.11798095703125;-0.0078582763671875;-1.0070343017578125;-0.0018812569323927164;-0.005767341703176498;9.640643111197278e-05
-0.11798095703125;-0.0078582763671875;-1.0070343017578125;-0.0018812569323927164;-0.005767341703176498;9.640643111197278e-05
-0.11798095703125;-0.0078582763671875;-1.0070343017578125;-0.0018812569323927164;-0.005767341703176498;9.640643111197278e-05
-0.11798095703125;-0.0078582763671875;-1.0070343017578125;-0.0018812569323927164;-0.005767341703176498;9.640643111197278e-05
-0.1168060302734375;-0.0068511962890625;-1.00927734375;0.0009147958480753005;-0.006658435333520174;-0.0019052254501730204
-0.1168060302734375;-0.0068511962890625;-1.00927734375;0.0009147958480753005;-0.006658435333520174;-0.0019052254501730204
-0.1168060302734375;-0.0068511962890625;-1.00927734375;0.0009147958480753005;-0.006658435333520174;-0.0019052254501730204
-0.1168060302734375;-0.0068511962890625;-1.00927734375;0.0009147958480753005;-0.006658435333520174;-0.0019052254501730204
-0.1168060302734375;-0.0068511962890625;-1.00927734375;0.0009147958480753005;-0.006658435333520174;-0.0019052254501730204
-0.1171875;-0.0060577392578125;-1.01153564453125;0.0036067189648747444;-0.005555354058742523;0.0006506102508865297
-0.1171875;-0.0060577392578125;-1.01153564453125;0.0036067189648747444;-0.005555354058742523;0.0006506102508865297
-0.1171875;-0.0060577392578125;-1.01153564453125;0.0036067189648747444;-0.005555354058742523;0.0006506102508865297
-0.1171875;-0.0060577392578125;-1.01153564453125;0.0036067189648747444;-0.005555354058742523;0.0006506102508865297
-0.1171875;-0.0060577392578125;-1.01153564453125;0.0036067189648747444;-0.005555354058742523;0.0006506102508865297
-0.1169891357421875;-0.005157470703125;-1.0113372802734375;0.0032629049383103848;-0.010249974206089973;-0.00015819176041986793
-0.1169891357421875;-0.005157470703125;-1.0113372802734375;0.0032629049383103848;-0.010249974206089973;-0.00015819176041986793
-0.1169891357421875;-0.005157470703125;-1.0113372802734375;0.0032629049383103848;-0.010249974206089973;-0.00015819176041986793
-0.1169891357421875;-0.005157470703125;-1.0113372802734375;0.0032629049383103848;-0.010249974206089973;-0.00015819176041986793
-0.1169891357421875;-0.005157470703125;-1.0113372802734375;0.0032629049383103848;-0.010249974206089973;-0.00015819176041986793
-0.1166534423828125;-0.005615234375;-1.01055908203125;0.000937166390940547;-0.006985471583902836;-0.0014948323369026184
-0.1166534423828125;-0.005615234375;-1.01055908203125;0.000937166390940547;-0.006985471583902836;-0.0014948323369026184
-0.1166534423828125;-0.005615234375;-1.01055908203125;0.000937166390940547;-0.006985471583902836;-0.0014948323369026184
-0.1166534423828125;-0.005615234375;-1.01055908203125;0.000937166390940547;-0.006985471583902836;-0.0014948323369026184
-0.1166534423828125;-0.005615234375;-1.01055908203125;0.000937166390940547;-0.006985471583902836;-0.0014948323369026184
-0.1172027587890625;-0.0056304931640625;-1.0088653564453125;-0.0008756473544053733;-0.007053914945572615;0.001332912128418684
-0.1172027587890625;-0.0056304931640625;-1.0088653564453125;-0.0008756473544053733;-0.007053914945572615;0.001332912128418684
-0.1172027587890625;-0.0056304931640625;-1.0088653564453125;-0.0008756473544053733;-0.007053914945572615;0.001332912128418684
-0.1172027587890625;-0.0056304931640625;-1.0088653564453125;-0.0008756473544053733;-0.007053914945572615;0.001332912128418684
-0.1172027587890625;-0.0056304931640625;-1.0088653564453125;-0.0008756473544053733;-0.007053914945572615;0.001332912128418684
-0.1173248291015625;-0.0058135986328125;-1.0093231201171875;-0.003462375607341528;-0.007470433134585619;0.003677825443446636
-0.1173248291015625;-0.0058135986328125;-1.0093231201171875;-0.003462375607341528;-0.007470433134585619;0.003677825443446636
-0.1173248291015625;-0.0058135986328125;-1.0093231201171875;-0.003462375607341528;-0.007470433134585619;0.003677825443446636
-0.1173248291015625;-0.0058135986328125;-1.0093231201171875;-0.003462375607341528;-0.007470433134585619;0.003677825443446636
-0.1173248291015625;-0.0058135986328125;-1.0093231201171875;-0.003462375607341528;-0.007470433134585619;0.003677825443446636
-0.1174774169921875;-0.0051116943359375;-1.00836181640625;-0.0018399780383333564;-0.006368417292833328;0.0019600866362452507
-0.1174774169921875;-0.0051116943359375;-1.00836181640625;-0.0018399780383333564;-0.006368417292833328;0.0019600866362452507
-0.1174774169921875;-0.0051116943359375;-1.00836181640625;-0.0018399780383333564;-0.006368417292833328;0.0019600866362452507
-0.1174774169921875;-0.0051116943359375;-1.00836181640625;-0.0018399780383333564;-0.006368417292833328;0.0019600866362452507
-0.1174774169921875;-0.0051116943359375;-1.00836181640625;-0.0018399780383333564;-0.006368417292833328;0.0019600866362452507
-0.117706298828125;-0.003997802734375;-1.0119171142578125;0.0022482406347990036;-0.007262174040079117;0.0019124159589409828
-0.117706298828125;-0.003997802734375;-1.0119171142578125;0.0022482406347990036;-0.007262174040079117;0.0019124159589409828
-0.117706298828125;-0.003997802734375;-1.0119171142578125;0.0022482406347990036;-0.007262174040079117;0.0019124159589409828
-0.117706298828125;-0.003997802734375;-1.0119171142578125;0.0022482406347990036;-0.007262174040079117;0.0019124159589409828
-0.117706298828125;-0.003997802734375;-1.0119171142578125;0.0022482406347990036;-0.007262174040079117;0.0019124159589409828
-0.1168670654296875;-0.00439453125;-1.0127410888671875;0.0019403791520744562;-0.004031759686768055;0.0024711471050977707
-0.1168670654296875;-0.00439453125;-1.0127410888671875;0.0019403791520744562;-0.004031759686768055;0.0024711471050977707
-0.1168670654296875;-0.00439453125;-1.0127410888671875;0.0019403791520744562;-0.004031759686768055;0.0024711471050977707
-0.1168670654296875;-0.00439453125;-1.0127410888671875;0.0019403791520744562;-0.004031759686768055;0.0024711471050977707
-0.1168670654296875;-0.00439453125;-1.0127410888671875;0.0019403791520744562;-0.004031759686768055;0.0024711471050977707
-0.117401123046875;-0.0061798095703125;-1.008880615234375;-0.003750795964151621;-0.003698598127812147;-0.0005715143634006381
-0.117401123046875;-0.0061798095703125;-1.008880615234375;-0.003750795964151621;-0.003698598127812147;-0.0005715143634006381
-0.117401123046875;-0.0061798095703125;-1.008880615234375;-0.003750795964151621;-0.003698598127812147;-0.0005715143634006381
-0.117401123046875;-0.0061798095703125;-1.008880615234375;-0.003750795964151621;-0.003698598127812147;-0.0005715143634006381
-0.117401123046875;-0.0061798095703125;-1.008880615234375;-0.003750795964151621;-0.003698598127812147;-0.0005715143634006381
-0.1173858642578125;-0.0059814453125;-1.0082550048828125;-0.0032780850306153297;-0.006053897552192211;-0.0004308994684834033
-0.1173858642578125;-0.0059814453125;-1.0082550048828125;-0.0032780850306153297;-0.006053897552192211;-0.0004308994684834033
-0.1173858642578125;-0.0059814453125;-1.0082550048828125;-0.0032780850306153297;-0.006053897552192211;-0.0004308994684834033
-0.1173858642578125;-0.0059814453125;-1.0082550048828125;-0.0032780850306153297;-0.006053897552192211;-0.0004308994684834033
-0.1173858642578125;-0.0059814453125;-1.0082550048828125;-0.0032780850306153297;-0.006053897552192211;-0.0004308994684834033
-0.1171875;-0.006927490234375;-1.009246826171875;-0.0003211772127542645;-0.003887682454660535;-0.0015211976133286953
-0.1171875;-0.006927490234375;-1.009246826171875;-0.0003211772127542645;-0.003887682454660535;-0.0015211976133286953
-0.1171875;-0.006927490234375;-1.009246826171875;-0.0003211772127542645;-0.003887682454660535;-0.0015211976133286953
-0.1171875;-0.006927490234375;-1.009246826171875;-0.0003211772127542645;-0.003887682454660535;-0.0015211976133286953
-0.1171875;-0.006927490234375;-1.009246826171875;-0.0003211772127542645;-0.003887682454660535;-0.0015211976133286953
-0.1163330078125;-0.0060882568359375;-1.0072479248046875;-0.006159891374409199;-0.004547613672912121;0.0013022858183830976
-0.1163330078125;-0.0060882568359375;-1.0072479248046875;-0.006159891374409199;-0.004547613672912121;0.0013022858183830976
-0.1163330078125;-0.0060882568359375;-1.0072479248046875;-0.006159891374409199;-0.004547613672912121;0.0013022858183830976
-0.1163330078125;-0.0060882568359375;-1.0072479248046875;-0.006159891374409199;-0.004547613672912121;0.0013022858183830976
-0.1163330078125;-0.0060882568359375;-1.0072479248046875;-0.006159891374409199;-0.004547613672912121;0.0013022858183830976
-0.116302490234375;-0.006072998046875;-1.00787353515625;-0.010625479742884636;-0.001324123702943325;0.0006689860601909459
-0.116302490234375;-0.006072998046875;-1.00787353515625;-0.010625479742884636;-0.001324123702943325;0.0006689860601909459
-0.116302490234375;-0.006072998046875;-1.00787353515625;-0.010625479742884636;-0.001324123702943325;0.0006689860601909459
-0.116302490234375;-0.006072998046875;-1.00787353515625;-0.010625479742884636;-0.001324123702943325;0.0006689860601909459
-0.116302490234375;-0.006072998046875;-1.00787353515625;-0.010625479742884636;-0.001324123702943325;0.0006689860601909459
-0.11688232421875;-0.0063323974609375;-1.0094146728515625;-0.010302438400685787;-0.002656769473105669;0.0027811392210423946
-0.11688232421875;-0.0063323974609375;-1.0094146728515625;-0.010302438400685787;-0.002656769473105669;0.0027811392210423946
-0.11688232421875;-0.0063323974609375;-1.0094146728515625;-0.010302438400685787;-0.002656769473105669;0.0027811392210423946
-0.11688232421875;-0.0063323974609375;-1.0094146728515625;-0.010302438400685787;-0.002656769473105669;0.0027811392210423946
-0.11688232421875;-0.0063323974609375;-1.0094146728515625;-0.010302438400685787;-0.002656769473105669;0.0027811392210423946
-0.1171722412109375;-0.006683349609375;-1.0099945068359375;-0.010695787146687508;-0.007529288996011019;0.0005017395596951246
-0.1171722412109375;-0.006683349609375;-1.0099945068359375;-0.010695787146687508;-0.007529288996011019;0.0005017395596951246
-0.1171722412109375;-0.006683349609375;-1.0099945068359375;-0.010695787146687508;-0.007529288996011019;0.0005017395596951246
-0.1171722412109375;-0.006683349609375;-1.0099945068359375;-0.010695787146687508;-0.007529288996011019;0.0005017395596951246
-0.1171722412109375;-0.006683349609375;-1.0099945068359375;-0.010695787146687508;-0.007529288996011019;0.0005017395596951246
-0.1177215576171875;-0.0064544677734375;-1.0081329345703125;-0.010745588690042496;-0.007870972156524658;0.0033505228348076344
-0.1177215576171875;-0.0064544677734375;-1.0081329345703125;-0.010745588690042496;-0.007870972156524658;0.0033505228348076344
-0.1177215576171875;-0.0064544677734375;-1.0081329345703125;-0.010745588690042496;-0.007870972156524658;0.0033505228348076344
-0.1177215576171875;-0.0064544677734375;-1.0081329345703125;-0.010745588690042496;-0.007870972156524658;0.0033505228348076344
-0.1177215576171875;-0.0064544677734375;-1.0081329345703125;-0.010745588690042496;-0.007870972156524658;0.0033505228348076344
-0.11846923828125;-0.0061492919921875;-1.006622314453125;-0.011711517348885536;-0.00018109494703821838;-0.0007046724203974009
-0.11846923828125;-0.0061492919921875;-1.006622314453125;-0.011711517348885536;-0.00018109494703821838;-0.0007046724203974009
-0.11846923828125;-0.0061492919921875;-1.006622314453125;-0.011711517348885536;-0.00018109494703821838;-0.0007046724203974009
-0.11846923828125;-0.0061492919921875;-1.006622314453125;-0.011711517348885536;-0.00018109494703821838;-0.0007046724203974009
-0.11846923828125;-0.0061492919921875;-1.006622314453125;-0.011711517348885536;-0.00018109494703821838;-0.0007046724203974009
-0.117889404296875;-0.0044708251953125;-1.0081329345703125;-0.011411379091441631;0.0020295949652791023;0.0018556906143203378
-0.117889404296875;-0.0044708251953125;-1.0081329345703125;-0.011411379091441631;0.0020295949652791023;0.0018556906143203378
-0.117889404296875;-0.0044708251953125;-1.0081329345703125;-0.011411379091441631;0.0020295949652791023;0.0018556906143203378
-0.117889404296875;-0.0044708251953125;-1.0081329345703125;-0.011411379091441631;0.0020295949652791023;0.0018556906143203378
-0.117889404296875;-0.0044708251953125;-1.0081329345703125;-0.011411379091441631;0.0020295949652791023;0.0018556906143203378
-0.1165313720703125;-0.0044708251953125;-1.0100860595703125;-0.010391920804977417;0.009881925769150257;0.0023180153220891953
-0.1165313720703125;-0.0044708251953125;-1.0100860595703125;-0.010391920804977417;0.009881925769150257;0.0023180153220891953
-0.1165313720703125;-0.0044708251953125;-1.0100860595703125;-0.010391920804977417;0.009881925769150257;0.0023180153220891953
-0.1165313720703125;-0.0044708251953125;-1.0100860595703125;-0.010391920804977417;0.009881925769150257;0.0023180153220891953
-0.1165313720703125;-0.0044708251953125;-1.0100860595703125;-0.010391920804977417;0.009881925769150257;0.0023180153220891953
-0.116668701171875;-0.0039825439453125;-1.0073394775390625;0.00038003307417966425;0.030301179736852646;-0.002079928759485483
-0.116668701171875;-0.0039825439453125;-1.0073394775390625;0.00038003307417966425;0.030301179736852646;-0.002079928759485483
-0.116668701171875;-0.0039825439453125;-1.0073394775390625;0.00038003307417966425;0.030301179736852646;-0.002079928759485483
-0.116668701171875;-0.0039825439453125;-1.0073394775390625;0.00038003307417966425;0.030301179736852646;-0.002079928759485483
-0.116668701171875;-0.0039825439453125;-1.0073394775390625;0.00038003307417966425;0.030301179736852646;-0.002079928759485483
-0.116912841796875;-0.0026092529296875;-0.994049072265625;0.014248977415263653;0.030661240220069885;-0.005164668429642916
-0.116912841796875;-0.0026092529296875;-0.994049072265625;0.014248977415263653;0.030661240220069885;-0.005164668429642916
-0.116912841796875;-0.0026092529296875;-0.994049072265625;0.014248977415263653;0.030661240220069885;-0.005164668429642916
-0.116912841796875;-0.0026092529296875;-0.994049072265625;0.014248977415263653;0.030661240220069885;-0.005164668429642916
-0.116912841796875;-0.0026092529296875;-0.994049072265625;0.014248977415263653;0.030661240220069885;-0.005164668429642916
-0.114837646484375;-0.0010833740234375;-1.0048065185546875;0.010618023574352264;0.017669541761279106;0.0012921657180413604
-0.114837646484375;-0.0010833740234375;-1.0048065185546875;0.010618023574352264;0.017669541761279106;0.0012921657180413604
-0.114837646484375;-0.0010833740234375;-1.0048065185546875;0.010618023574352264;0.017669541761279106;0.0012921657180413604
-0.114837646484375;-0.0010833740234375;-1.0048065185546875;0.010618023574352264;0.017669541761279106;0.0012921657180413604
-0.114837646484375;-0.0010833740234375;-1.0048065185546875;0.010618023574352264;0.017669541761279106;0.0012921657180413604
-0.116790771484375;-0.0012359619140625;-1.0161590576171875;-0.007056311704218388;-0.007664843928068876;0.0062488410621881485
-0.116790771484375;-0.0012359619140625;-1.0161590576171875;-0.007056311704218388;-0.007664843928068876;0.0062488410621881485
-0.116790771484375;-0.0012359619140625;-1.0161590576171875;-0.007056311704218388;-0.007664843928068876;0.0062488410621881485
-0.116790771484375;-0.0012359619140625;-1.0161590576171875;-0.007056311704218388;-0.007664843928068876;0.0062488410621881485
-0.116790771484375;-0.0012359619140625;-1.0161590576171875;-0.007056311704218388;-0.007664843928068876;0.0062488410621881485
-0.11859130859375;-0.0023651123046875;-1.0092010498046875;-0.005900765769183636;-0.03520992025732994;0.011304319836199284
-0.11859130859375;-0.0023651123046875;-1.0092010498046875;-0.005900765769183636;-0.03520992025732994;0.011304319836199284
-0.11859130859375;-0.0023651123046875;-1.0092010498046875;-0.005900765769183636;-0.03520992025732994;0.011304319836199284
-0.11859130859375;-0.0023651123046875;-1.0092010498046875;-0.005900765769183636;-0.03520992025732994;0.011304319836199284
-0.11859130859375;-0.0023651123046875;-1.0092010498046875;-0.005900765769183636;-0.03520992025732994;0.011304319836199284
-0.118560791015625;-0.0019989013671875;-1.0126190185546875;0.006593454163521528;-0.020674651488661766;0.006624080706387758
-0.118560791015625;-0.0019989013671875;-1.0126190185546875;0.006593454163521528;-0.020674651488661766;0.006624080706387758
-0.118560791015625;-0.0019989013671875;-1.0126190185546875;0.006593454163521528;-0.020674651488661766;0.006624080706387758
-0.118560791015625;-0.0019989013671875;-1.0126190185546875;0.006593454163521528;-0.020674651488661766;0.006624080706387758
-0.118560791015625;-0.0019989013671875;-1.0126190185546875;0.029818881303071976;-0.0046506780199706554;0.003722300287336111
-0.1232147216796875;-0.0019683837890625;-1.0106201171875;0.029818881303071976;-0.0046506780199706554;0.003722300287336111
-0.1232147216796875;-0.0019683837890625;-1.0106201171875;0.029818881303071976;-0.0046506780199706554;0.003722300287336111
-0.1232147216796875;-0.0019683837890625;-1.0106201171875;0.029818881303071976;-0.0046506780199706554;0.003722300287336111
-0.1232147216796875;-0.0019683837890625;-1.0106201171875;0.029818881303071976;-0.0046506780199706554;0.003722300287336111
-0.1232147216796875;-0.0019683837890625;-1.0106201171875;0.04474829509854317;0.009739446453750134;-0.0010151970200240612
-0.123046875;-0.0037841796875;-1.0158843994140625;0.04474829509854317;0.009739446453750134;-0.0010151970200240612
-0.123046875;-0.0037841796875;-1.0158843994140625;0.04474829509854317;0.009739446453750134;-0.0010151970200240612
-0.123046875;-0.0037841796875;-1.0158843994140625;0.04474829509854317;0.009739446453750134;-0.0010151970200240612
-0.123046875;-0.0037841796875;-1.0158843994140625;0.04474829509854317;0.009739446453750134;-0.0010151970200240612
-0.123046875;-0.0037841796875;-1.0158843994140625;0.04474829509854317;0.009739446453750134;-0.0010151970200240612
-0.11932373046875;-0.0073699951171875;-1.00689697265625;0.02629498764872551;0.012366654351353645;-0.003022687742486596
-0.11932373046875;-0.0073699951171875;-1.00689697265625;0.02629498764872551;0.012366654351353645;-0.003022687742486596
-0.11932373046875;-0.0073699951171875;-1.00689697265625;0.02629498764872551;0.012366654351353645;-0.003022687742486596
-0.11932373046875;-0.0073699951171875;-1.00689697265625;0.02629498764872551;0.012366654351353645;-0.003022687742486596
-0.114471435546875;-0.01043701171875;-1.0018310546875;0.007638478651642799;0.0013334447285160422;-0.002445314545184374
-0.114471435546875;-0.01043701171875;-1.0018310546875;0.007638478651642799;0.0013334447285160422;-0.002445314545184374
-0.114471435546875;-0.01043701171875;-1.0018310546875;0.007638478651642799;0.0013334447285160422;-0.002445314545184374
-0.114471435546875;-0.01043701171875;-1.0018310546875;0.007638478651642799;0.0013334447285160422;-0.002445314545184374
-0.114471435546875;-0.01043701171875;-1.0018310546875;0.007638478651642799;0.0013334447285160422;-0.002445314545184374
-0.114471435546875;-0.01043701171875;-1.0018310546875;-0.006584932096302509;-0.005139634478837252;-0.00012650014832615852
-0.112030029296875;-0.011749267578125;-1.0070648193359375;-0.006584932096302509;-0.005139634478837252;-0.00012650014832615852
-0.112030029296875;-0.011749267578125;-1.0070648193359375;-0.006584932096302509;-0.005139634478837252;-0.00012650014832615852
-0.112030029296875;-0.011749267578125;-1.0070648193359375;-0.006584932096302509;-0.005139634478837252;-0.00012650014832615852
-0.112030029296875;-0.011749267578125;-1.0070648193359375;-0.006584932096302509;-0.005139634478837252;-0.00012650014832615852
-0.1136474609375;-0.011749267578125;-1.00909423828125;-0.00259418529458344;-0.002008556155487895;0.002144909929484129
-0.1136474609375;-0.011749267578125;-1.00909423828125;-0.00259418529458344;-0.002008556155487895;0.002144909929484129
-0.1136474609375;-0.011749267578125;-1.00909423828125;-0.00259418529458344;-0.002008556155487895;0.002144909929484129
-0.1136474609375;-0.011749267578125;-1.00909423828125;-0.00259418529458344;-0.002008556155487895;0.002144909929484129
-0.1136474609375;-0.011749267578125;-1.00909423828125;-0.00259418529458344;-0.002008556155487895;0.002144909929484129
-0.11578369140625;-0.0116729736328125;-1.0064544677734375;0.0025337315164506435;0.006599845830351114;0.005653890781104565
-0.11578369140625;-0.0116729736328125;-1.0064544677734375;0.0025337315164506435;0.006599845830351114;0.005653890781104565
-0.11578369140625;-0.0116729736328125;-1.0064544677734375;0.0025337315164506435;0.006599845830351114;0.005653890781104565
-0.11578369140625;-0.0116729736328125;-1.0064544677734375;0.0025337315164506435;0.006599845830351114;0.005653890781104565
-0.11578369140625;-0.0116729736328125;-1.0064544677734375;0.0025337315164506435;0.006599845830351114;0.005653890781104565
-0.1185302734375;-0.0109100341796875;-1.00677490234375;0.0011203918838873506;0.010127468965947628;0.006226470693945885
-0.1185302734375;-0.0109100341796875;-1.00677490234375;0.0011203918838873506;0.010127468965947628;0.006226470693945885
-0.1185302734375;-0.0109100341796875;-1.00677490234375;0.0011203918838873506;0.010127468965947628;0.006226470693945885
-0.1185302734375;-0.0109100341796875;-1.00677490234375;0.0011203918838873506;0.010127468965947628;0.006226470693945885
-0.1185302734375;-0.0109100341796875;-1.00677490234375;0.0011203918838873506;0.010127468965947628;0.006226470693945885
-0.11956787109375;-0.0101470947265625;-1.010284423828125;-0.003955593332648277;0.009896572679281235;0.00999058224260807
-0.11956787109375;-0.0101470947265625;-1.010284423828125;-0.003955593332648277;0.009896572679281235;0.00999058224260807
-0.11956787109375;-0.0101470947265625;-1.010284423828125;-0.003955593332648277;0.009896572679281235;0.00999058224260807
-0.11956787109375;-0.0101470947265625;-1.010284423828125;-0.003955593332648277;0.009896572679281235;0.00999058224260807
-0.11956787109375;-0.0101470947265625;-1.010284423828125;-0.003955593332648277;0.009896572679281235;0.00999058224260807
-0.119415283203125;-0.0093231201171875;-1.0105438232421875;-0.00430047232657671;0.010223875753581524;0.00592473428696394
-0.119415283203125;-0.0093231201171875;-1.0105438232421875;-0.00430047232657671;0.010223875753581524;0.00592473428696394
-0.119415283203125;-0.0093231201171875;-1.0105438232421875;-0.00430047232657671;0.010223875753581524;0.00592473428696394
-0.119415283203125;-0.0093231201171875;-1.0105438232421875;-0.00430047232657671;0.010223875753581524;0.00592473428696394
-0.119415283203125;-0.0093231201171875;-1.0105438232421875;-0.00430047232657671;0.010223875753581524;0.00592473428696394
-0.1183319091796875;-0.0052642822265625;-1.0114898681640625;-0.0002849582233466208;0.010750648565590382;0.005419799126684666
-0.1183319091796875;-0.0052642822265625;-1.0114898681640625;-0.0002849582233466208;0.010750648565590382;0.005419799126684666
-0.1183319091796875;-0.0052642822265625;-1.0114898681640625;-0.0002849582233466208;0.010750648565590382;0.005419799126684666
-0.1183319091796875;-0.0052642822265625;-1.0114898681640625;-0.0002849582233466208;0.010750648565590382;0.005419799126684666
-0.1183319091796875;-0.0052642822265625;-1.0114898681640625;-0.0002849582233466208;0.010750648565590382;0.005419799126684666
-0.1148529052734375;-0.0024566650390625;-1.013458251953125;0.008931975811719894;0.007532751187682152;0.0007597998483106494
-0.1148529052734375;-0.0024566650390625;-1.013458251953125;0.008931975811719894;0.007532751187682152;0.0007597998483106494
-0.1148529052734375;-0.0024566650390625;-1.013458251953125;0.008931975811719894;0.007532751187682152;0.0007597998483106494
-0.1148529052734375;-0.0024566650390625;-1.013458251953125;0.008931975811719894;0.007532751187682152;0.0007597998483106494
-0.1148529052734375;-0.0024566650390625;-1.013458251953125;0.008931975811719894;0.007532751187682152;0.0007597998483106494
-0.1125030517578125;-0.0006561279296875;-1.01513671875;0.01209554448723793;0.005847502965480089;0.002548911375924945
-0.1125030517578125;-0.0006561279296875;-1.01513671875;0.01209554448723793;0.005847502965480089;0.002548911375924945
-0.1125030517578125;-0.0006561279296875;-1.01513671875;0.01209554448723793;0.005847502965480089;0.002548911375924945
-0.1125030517578125;-0.0006561279296875;-1.01513671875;0.01209554448723793;0.005847502965480089;0.002548911375924945
-0.1125030517578125;-0.0006561279296875;-1.01513671875;0.01209554448723793;0.005847502965480089;0.002548911375924945
-0.1139984130859375;-0.0011138916015625;-1.0118408203125;0.009995908476412296;0.004851480480283499;6.870955257909372e-05
-0.1139984130859375;-0.0011138916015625;-1.0118408203125;0.009995908476412296;0.004851480480283499;6.870955257909372e-05
-0.1139984130859375;-0.0011138916015625;-1.0118408203125;0.009995908476412296;0.004851480480283499;6.870955257909372e-05
-0.1139984130859375;-0.0011138916015625;-1.0118408203125;0.009995908476412296;0.004851480480283499;6.870955257909372e-05
-0.1139984130859375;-0.0011138916015625;-1.0118408203125;0.009995908476412296;0.004851480480283499;6.870955257909372e-05
-0.1163787841796875;-0.0022125244140625;-1.0090789794921875;0.009794574230909348;0.0072928001172840595;0.0018687400734052062
-0.1163787841796875;-0.0022125244140625;-1.0090789794921875;0.009794574230909348;0.0072928001172840595;0.0018687400734052062
-0.1163787841796875;-0.0022125244140625;-1.0090789794921875;0.009794574230909348;0.0072928001172840595;0.0018687400734052062
-0.1163787841796875;-0.0022125244140625;-1.0090789794921875;0.009794574230909348;0.0072928001172840595;0.0018687400734052062
-0.1163787841796875;-0.0022125244140625;-1.0090789794921875;0.009794574230909348;0.0072928001172840595;0.0018687400734052062
-0.117218017578125;-0.0030364990234375;-1.008819580078125;0.007412109989672899;0.00478516798466444;-0.00019094864546786994
-0.117218017578125;-0.0030364990234375;-1.008819580078125;0.007412109989672899;0.00478516798466444;-0.00019094864546786994
-0.117218017578125;-0.0030364990234375;-1.008819580078125;0.007412109989672899;0.00478516798466444;-0.00019094864546786994
-0.117218017578125;-0.0030364990234375;-1.008819580078125;0.007412109989672899;0.00478516798466444;-0.00019094864546786994
-0.117218017578125;-0.0030364990234375;-1.008819580078125;0.007412109989672899;0.00478516798466444;-0.00019094864546786994
-0.1167755126953125;-0.003875732421875;-1.0091094970703125;0.005935919936746359;0.0029619678389281034;0.0006538060260936618
-0.1167755126953125;-0.003875732421875;-1.0091094970703125;0.005935919936746359;0.0029619678389281034;0.0006538060260936618
-0.1167755126953125;-0.003875732421875;-1.0091094970703125;0.005935919936746359;0.0029619678389281034;0.0006538060260936618
-0.1167755126953125;-0.003875732421875;-1.0091094970703125;0.005935919936746359;0.0029619678389281034;0.0006538060260936618
-0.1167755126953125;-0.003875732421875;-1.0091094970703125;0.005935919936746359;0.0029619678389281034;0.0006538060260936618
-0.11553955078125;-0.0055694580078125;-1.009735107421875;0.0054299188777804375;0.0005925533478148282;-0.0008314388687722385
-0.11553955078125;-0.0055694580078125;-1.009735107421875;0.0054299188777804375;0.0005925533478148282;-0.0008314388687722385
-0.11553955078125;-0.0055694580078125;-1.009735107421875;0.0054299188777804375;0.0005925533478148282;-0.0008314388687722385
-0.11553955078125;-0.0055694580078125;-1.009735107421875;0.0054299188777804375;0.0005925533478148282;-0.0008314388687722385
-0.11553955078125;-0.0055694580078125;-1.009735107421875;0.0054299188777804375;0.0005925533478148282;-0.0008314388687722385
-0.1154937744140625;-0.006317138671875;-1.00927734375;0.0070187607780098915;0.0031222901307046413;-0.001252750982530415
-0.1154937744140625;-0.006317138671875;-1.00927734375;0.0070187607780098915;0.0031222901307046413;-0.001252750982530415
-0.1154937744140625;-0.006317138671875;-1.00927734375;0.0070187607780098915;0.0031222901307046413;-0.001252750982530415
-0.1154937744140625;-0.006317138671875;-1.00927734375;0.0070187607780098915;0.0031222901307046413;-0.001252750982530415
-0.1154937744140625;-0.006317138671875;-1.00927734375;0.0070187607780098915;0.0031222901307046413;-0.001252750982530415
-0.1152801513671875;-0.0076141357421875;-1.010589599609375;0.006452839355915785;0.0014572817599400878;0.003073287894949317
-0.1152801513671875;-0.0076141357421875;-1.010589599609375;0.006452839355915785;0.0014572817599400878;0.003073287894949317
-0.1152801513671875;-0.0076141357421875;-1.010589599609375;0.006452839355915785;0.0014572817599400878;0.003073287894949317
-0.1152801513671875;-0.0076141357421875;-1.010589599609375;0.006452839355915785;0.0014572817599400878;0.003073287894949317
-0.1152801513671875;-0.0076141357421875;-1.010589599609375;0.006452839355915785;0.0014572817599400878;0.003073287894949317
-0.11566162109375;-0.00872802734375;-1.0094451904296875;0.00974743627011776;0.005769738461822271;0.0043891556560993195
-0.11566162109375;-0.00872802734375;-1.0094451904296875;0.00974743627011776;0.005769738461822271;0.0043891556560993195
-0.11566162109375;-0.00872802734375;-1.0094451904296875;0.00974743627011776;0.005769738461822271;0.0043891556560993195
-0.11566162109375;-0.00872802734375;-1.0094451904296875;0.00974743627011776;0.005769738461822271;0.0043891556560993195
-0.11566162109375;-0.00872802734375;-1.0094451904296875;0.00974743627011776;0.005769738461822271;0.0043891556560993195
-0.115966796875;-0.009918212890625;-1.0097503662109375;0.008830242790281773;0.00612234091386199;0.004579305648803711
-0.115966796875;-0.009918212890625;-1.0097503662109375;0.008830242790281773;0.00612234091386199;0.004579305648803711
-0.115966796875;-0.009918212890625;-1.0097503662109375;0.008830242790281773;0.00612234091386199;0.004579305648803711
-0.115966796875;-0.009918212890625;-1.0097503662109375;0.008830242790281773;0.00612234091386199;0.004579305648803711
-0.115966796875;-0.009918212890625;-1.0097503662109375;0.008830242790281773;0.00612234091386199;0.004579305648803711
-0.1166229248046875;-0.0104522705078125;-1.0092926025390625;0.007665110286325216;0.0052323127165436745;0.002113218419253826
-0.1166229248046875;-0.0104522705078125;-1.0092926025390625;0.007665110286325216;0.0052323127165436745;0.002113218419253826
-0.1166229248046875;-0.0104522705078125;-1.0092926025390625;0.007665110286325216;0.0052323127165436745;0.002113218419253826
-0.1166229248046875;-0.0104522705078125;-1.0092926025390625;0.007665110286325216;0.0052323127165436745;0.002113218419253826
-0.1166229248046875;-0.0104522705078125;-1.0092926025390625;0.007665110286325216;0.0052323127165436745;0.002113218419253826
-0.1153106689453125;-0.011077880859375;-1.0101470947265625;0.00503976596519351;0.0030565098859369755;0.0006111954571679235
-0.1153106689453125;-0.011077880859375;-1.0101470947265625;0.00503976596519351;0.0030565098859369755;0.0006111954571679235
-0.1153106689453125;-0.011077880859375;-1.0101470947265625;0.00503976596519351;0.0030565098859369755;0.0006111954571679235
-0.1153106689453125;-0.011077880859375;-1.0101470947265625;0.00503976596519351;0.0030565098859369755;0.0006111954571679235
-0.1153106689453125;-0.011077880859375;-1.0101470947265625;0.00503976596519351;0.0030565098859369755;0.0006111954571679235
-0.1143798828125;-0.0114898681640625;-1.0085906982421875;0.002936401404440403;0.0033571808598935604;0.0015297196805477142
-0.1143798828125;-0.0114898681640625;-1.0085906982421875;0.002936401404440403;0.0033571808598935604;0.0015297196805477142
-0.1143798828125;-0.0114898681640625;-1.0085906982421875;0.002936401404440403;0.0033571808598935604;0.0015297196805477142
-0.1143798828125;-0.0114898681640625;-1.0085906982421875;0.002936401404440403;0.0033571808598935604;0.0015297196805477142
-0.1143798828125;-0.0114898681640625;-1.0085906982421875;0.002936401404440403;0.0033571808598935604;0.0015297196805477142
-0.1141204833984375;-0.0121002197265625;-1.0107421875;-0.004830175079405308;-0.004096474498510361;-8.708536915946752e-05
-0.1141204833984375;-0.0121002197265625;-1.0107421875;-0.004830175079405308;-0.004096474498510361;-8.708536915946752e-05
-0.1141204833984375;-0.0121002197265625;-1.0107421875;-0.004830175079405308;-0.004096474498510361;-8.708536915946752e-05
-0.1141204833984375;-0.0121002197265625;-1.0107421875;-0.004830175079405308;-0.004096474498510361;-8.708536915946752e-05
-0.1141204833984375;-0.0121002197265625;-1.0107421875;-0.004830175079405308;-0.004096474498510361;-8.708536915946752e-05
-0.11383056640625;-0.0129547119140625;-1.008758544921875;-0.021194234490394592;-0.009496565908193588;0.002662894781678915
-0.11383056640625;-0.0129547119140625;-1.008758544921875;-0.021194234490394592;-0.009496565908193588;0.002662894781678915
-0.11383056640625;-0.0129547119140625;-1.008758544921875;-0.021194234490394592;-0.009496565908193588;0.002662894781678915
-0.11383056640625;-0.0129547119140625;-1.008758544921875;-0.021194234490394592;-0.009496565908193588;0.002662894781678915
-0.11383056640625;-0.0129547119140625;-1.008758544921875;-0.021194234490394592;-0.009496565908193588;0.002662894781678915
-0.1137847900390625;-0.0137481689453125;-1.00323486328125;-0.04007338359951973;-0.015748603269457817;0.0041039311327040195
-0.1137847900390625;-0.0137481689453125;-1.00323486328125;-0.04007338359951973;-0.015748603269457817;0.0041039311327040195
-0.1137847900390625;-0.0137481689453125;-1.00323486328125;-0.04007338359951973;-0.015748603269457817;0.0041039311327040195
-0.1137847900390625;-0.0137481689453125;-1.00323486328125;-0.04007338359951973;-0.015748603269457817;0.0041039311327040195
-0.1137847900390625;-0.0137481689453125;-1.00323486328125;-0.04007338359951973;-0.015748603269457817;0.0041039311327040195
-0.114593505859375;-0.009796142578125;-1.0080718994140625;-0.028051607310771942;-0.0057340520434081554;0.006729541812092066
-0.114593505859375;-0.009796142578125;-1.0080718994140625;-0.028051607310771942;-0.0057340520434081554;0.006729541812092066
-0.114593505859375;-0.009796142578125;-1.0080718994140625;-0.028051607310771942;-0.0057340520434081554;0.006729541812092066
-0.114593505859375;-0.009796142578125;-1.0080718994140625;-0.028051607310771942;-0.0057340520434081554;0.006729541812092066
-0.114593505859375;-0.009796142578125;-1.0080718994140625;-0.028051607310771942;-0.0057340520434081554;0.006729541812092066
-0.1168365478515625;-0.0016632080078125;-1.0146636962890625;-0.0021702100057154894;-0.007273359224200249;0.006705306936055422
-0.1168365478515625;-0.0016632080078125;-1.0146636962890625;-0.0021702100057154894;-0.007273359224200249;0.006705306936055422
-0.1168365478515625;-0.0016632080078125;-1.0146636962890625;-0.0021702100057154894;-0.007273359224200249;0.006705306936055422
-0.1168365478515625;-0.0016632080078125;-1.0146636962890625;-0.0021702100057154894;-0.007273359224200249;0.006705306936055422
-0.1168365478515625;-0.0016632080078125;-1.0146636962890625;-0.0021702100057154894;-0.007273359224200249;0.006705306936055422
-0.1172332763671875;0.0007781982421875;-1.019256591796875;-0.00395825644955039;-0.0046850331127643585;0.00430047232657671
-0.1172332763671875;0.0007781982421875;-1.019256591796875;-0.00395825644955039;-0.0046850331127643585;0.00430047232657671
-0.1172332763671875;0.0007781982421875;-1.019256591796875;-0.00395825644955039;-0.0046850331127643585;0.00430047232657671
-0.1172332763671875;0.0007781982421875;-1.019256591796875;-0.00395825644955039;-0.0046850331127643585;0.00430047232657671
-0.1172332763671875;0.0007781982421875;-1.019256591796875;-0.00395825644955039;-0.0046850331127643585;0.00430047232657671
-0.118621826171875;-0.0035247802734375;-1.005157470703125;-0.02202034741640091;-0.000892691605258733;0.004863198380917311
-0.118621826171875;-0.0035247802734375;-1.005157470703125;-0.02202034741640091;-0.000892691605258733;0.004863198380917311
-0.118621826171875;-0.0035247802734375;-1.005157470703125;-0.02202034741640091;-0.000892691605258733;0.004863198380917311
-0.118621826171875;-0.0035247802734375;-1.005157470703125;-0.02202034741640091;-0.000892691605258733;0.004863198380917311
-0.118621826171875;-0.0035247802734375;-1.005157470703125;-0.02202034741640091;-0.000892691605258733;0.004863198380917311
