Acell X;Acell Y;Acell Z;Gyro X;Gyro Y;Gyro Z

-0.118560791015625;0.020751953125;-1.0112762451171875;-0.019056515768170357;-0.02641216665506363;0.002826412906870246
-0.118560791015625;0.020751953125;-1.0112762451171875;-0.019056515768170357;-0.02641216665506363;0.002826412906870246
-0.115478515625;0.015899658203125;-1.008087158203125;-0.019056515768170357;-0.02641216665506363;0.002826412906870246
-0.115478515625;0.015899658203125;-1.008087158203125;-0.019056515768170357;-0.02641216665506363;0.002826412906870246
-0.115478515625;0.015899658203125;-1.008087158203125;-0.009619071148335934;-0.01920511946082115;0.0027510453946888447
-0.115478515625;0.015899658203125;-1.008087158203125;-0.009619071148335934;-0.01920511946082115;0.0027510453946888447
-0.111480712890625;0.0114593505859375;-1.0082244873046875;-0.009619071148335934;-0.01920511946082115;0.0027510453946888447
-0.111480712890625;0.0114593505859375;-1.0082244873046875;-0.009619071148335934;-0.01920511946082115;0.0027510453946888447
-0.111480712890625;0.0114593505859375;-1.0082244873046875;-0.009619071148335934;-0.01920511946082115;0.0027510453946888447
-0.111480712890625;0.0114593505859375;-1.0082244873046875;-0.009619071148335934;-0.01920511946082115;0.0027510453946888447
-0.111480712890625;0.0114593505859375;-1.0082244873046875;-0.0013265205780044198;-0.022359367460012436;0.003300189273431897
-0.111480712890625;0.0114593505859375;-1.0082244873046875;-0.0013265205780044198;-0.022359367460012436;0.003300189273431897
-0.110443115234375;0.0096893310546875;-1.00848388671875;-0.0013265205780044198;-0.022359367460012436;0.003300189273431897
-0.110443115234375;0.0096893310546875;-1.00848388671875;-0.0013265205780044198;-0.022359367460012436;0.003300189273431897
-0.110443115234375;0.0096893310546875;-1.00848388671875;0.002109756227582693;-0.01864585652947426;0.002671150490641594
-0.110443115234375;0.0096893310546875;-1.00848388671875;0.002109756227582693;-0.01864585652947426;0.002671150490641594
-0.1095733642578125;0.0081787109375;-1.007659912109375;0.002109756227582693;-0.01864585652947426;0.002671150490641594
-0.1095733642578125;0.0081787109375;-1.007659912109375;0.002109756227582693;-0.01864585652947426;0.002671150490641594
-0.1095733642578125;0.0081787109375;-1.007659912109375;0.002109756227582693;-0.01864585652947426;0.002671150490641594
-0.1095733642578125;0.0081787109375;-1.007659912109375;0.000494016392622143;-0.014451377093791962;0.0019108180422335863
-0.1095733642578125;0.0081787109375;-1.007659912109375;0.000494016392622143;-0.014451377093791962;0.0019108180422335863
-0.1092987060546875;0.008544921875;-1.00640869140625;0.000494016392622143;-0.014451377093791962;0.0019108180422335863
-0.1092987060546875;0.008544921875;-1.00640869140625;0.000494016392622143;-0.014451377093791962;0.0019108180422335863
-0.1092987060546875;0.008544921875;-1.00640869140625;0.000494016392622143;-0.014451377093791962;0.0019108180422335863
-0.1092987060546875;0.008544921875;-1.00640869140625;0.0015454323729500175;-0.010813765227794647;0.0025923210196197033
-0.1092987060546875;0.008544921875;-1.00640869140625;0.0015454323729500175;-0.010813765227794647;0.0025923210196197033
-0.110504150390625;0.008453369140625;-1.0086212158203125;0.0015454323729500175;-0.010813765227794647;0.0025923210196197033
-0.110504150390625;0.008453369140625;-1.0086212158203125;0.0015454323729500175;-0.010813765227794647;0.0025923210196197033
-0.110504150390625;0.008453369140625;-1.0086212158203125;0.0015454323729500175;-0.010813765227794647;0.0025923210196197033
-0.110504150390625;0.008453369140625;-1.0086212158203125;0.0015454323729500175;-0.010813765227794647;0.0025923210196197033
-0.110504150390625;0.008453369140625;-1.0086212158203125;0.002011219272390008;-0.008233695290982723;0.003817907767370343
-0.110504150390625;0.008453369140625;-1.0086212158203125;0.002011219272390008;-0.008233695290982723;0.003817907767370343
-0.1117401123046875;0.0083770751953125;-1.0081939697265625;0.002011219272390008;-0.008233695290982723;0.003817907767370343
-0.1117401123046875;0.0083770751953125;-1.0081939697265625;0.002011219272390008;-0.008233695290982723;0.003817907767370343
-0.1117401123046875;0.0083770751953125;-1.0081939697265625;-0.0011286477092653513;-0.005465871654450893;0.006842725910246372
-0.1117401123046875;0.0083770751953125;-1.0081939697265625;-0.0011286477092653513;-0.005465871654450893;0.006842725910246372
-0.1117401123046875;0.0083770751953125;-1.0081939697265625;-0.0011286477092653513;-0.005465871654450893;0.006842725910246372
-0.1135101318359375;0.0082550048828125;-1.0028533935546875;-0.0011286477092653513;-0.005465871654450893;0.006842725910246372
-0.1135101318359375;0.0082550048828125;-1.0028533935546875;-0.0011286477092653513;-0.005465871654450893;0.006842725910246372
-0.1135101318359375;0.0082550048828125;-1.0028533935546875;-0.0024024376180022955;0.0023334617726504803;0.0029814087320119143
-0.1135101318359375;0.0082550048828125;-1.0028533935546875;-0.0024024376180022955;0.0023334617726504803;0.0029814087320119143
-0.1135101318359375;0.0082550048828125;-1.0028533935546875;-0.0024024376180022955;0.0023334617726504803;0.0029814087320119143
-0.1150360107421875;0.007354736328125;-1.00494384765625;-0.0024024376180022955;0.0023334617726504803;0.0029814087320119143
-0.1150360107421875;0.007354736328125;-1.00494384765625;-0.0024024376180022955;0.0023334617726504803;0.0029814087320119143
-0.1150360107421875;0.007354736328125;-1.00494384765625;-0.0024024376180022955;0.0023334617726504803;0.0029814087320119143
-0.1150360107421875;0.007354736328125;-1.00494384765625;-0.007879494689404964;-0.0034320156555622816;0.003942010924220085
-0.116729736328125;0.006072998046875;-1.0095672607421875;-0.007879494689404964;-0.0034320156555622816;0.003942010924220085
-0.116729736328125;0.006072998046875;-1.0095672607421875;-0.007879494689404964;-0.0034320156555622816;0.003942010924220085
-0.116729736328125;0.006072998046875;-1.0095672607421875;-0.007879494689404964;-0.0034320156555622816;0.003942010924220085
-0.116729736328125;0.006072998046875;-1.0095672607421875;-0.008488825522363186;0.0015968313673511147;0.0026999127585440874
-0.116729736328125;0.006072998046875;-1.0095672607421875;-0.008488825522363186;0.0015968313673511147;0.0026999127585440874
-0.11688232421875;0.0059967041015625;-1.008209228515625;-0.008488825522363186;0.0015968313673511147;0.0026999127585440874
-0.11688232421875;0.0059967041015625;-1.008209228515625;-0.008488825522363186;0.0015968313673511147;0.0026999127585440874
-0.11688232421875;0.0059967041015625;-1.008209228515625;-0.008488825522363186;0.0015968313673511147;0.0026999127585440874
-0.11688232421875;0.0059967041015625;-1.008209228515625;-0.008407332934439182;0.0033776871860027313;0.002168878447264433
-0.11688232421875;0.0059967041015625;-1.008209228515625;-0.008407332934439182;0.0033776871860027313;0.002168878447264433
-0.1151885986328125;0.005828857421875;-1.0098876953125;-0.008407332934439182;0.0033776871860027313;0.002168878447264433
-0.1151885986328125;0.005828857421875;-1.0098876953125;-0.008407332934439182;0.0033776871860027313;0.002168878447264433
-0.1151885986328125;0.005828857421875;-1.0098876953125;-0.008407332934439182;0.0033776871860027313;0.002168878447264433
-0.1151885986328125;0.005828857421875;-1.0098876953125;-0.0048855687491595745;0.0018306568963453174;0.00236195744946599
-0.1151885986328125;0.005828857421875;-1.0098876953125;-0.0048855687491595745;0.0018306568963453174;0.00236195744946599
-0.11517333984375;0.006072998046875;-1.012237548828125;-0.0048855687491595745;0.0018306568963453174;0.00236195744946599
-0.11517333984375;0.006072998046875;-1.012237548828125;-0.0048855687491595745;0.0018306568963453174;0.00236195744946599
-0.11517333984375;0.006072998046875;-1.012237548828125;-0.0048855687491595745;0.0018306568963453174;0.00236195744946599
-0.11517333984375;0.006072998046875;-1.012237548828125;-0.0028732845094054937;-0.0041007352992892265;0.003615241264924407
-0.11517333984375;0.006072998046875;-1.012237548828125;-0.0028732845094054937;-0.0041007352992892265;0.003615241264924407
-0.1165008544921875;0.00714111328125;-1.0138702392578125;-0.0028732845094054937;-0.0041007352992892265;0.003615241264924407
-0.1165008544921875;0.00714111328125;-1.0138702392578125;-0.0028732845094054937;-0.0041007352992892265;0.003615241264924407
-0.1165008544921875;0.00714111328125;-1.0138702392578125;-0.0028732845094054937;-0.0041007352992892265;0.003615241264924407
-0.1165008544921875;0.00714111328125;-1.0138702392578125;-0.005879194475710392;-0.004400873556733131;0.0014375743921846151
-0.1165008544921875;0.00714111328125;-1.0138702392578125;-0.005879194475710392;-0.004400873556733131;0.0014375743921846151
-0.1162872314453125;0.0057373046875;-1.0127410888671875;-0.005879194475710392;-0.004400873556733131;0.0014375743921846151
-0.1162872314453125;0.0057373046875;-1.0127410888671875;-0.005879194475710392;-0.004400873556733131;0.0014375743921846151
-0.1162872314453125;0.0057373046875;-1.0127410888671875;-0.005879194475710392;-0.004400873556733131;0.0014375743921846151
-0.1162872314453125;0.0057373046875;-1.0127410888671875;-0.00737376045435667;-0.001900964416563511;-0.0025209481827914715
-0.1162872314453125;0.0057373046875;-1.0127410888671875;-0.00737376045435667;-0.001900964416563511;-0.0025209481827914715
-0.1169586181640625;0.00531005859375;-1.0103912353515625;-0.00737376045435667;-0.001900964416563511;-0.0025209481827914715
-0.1169586181640625;0.00531005859375;-1.0103912353515625;-0.00737376045435667;-0.001900964416563511;-0.0025209481827914715
-0.1169586181640625;0.00531005859375;-1.0103912353515625;-0.00737376045435667;-0.001900964416563511;-0.0025209481827914715
-0.1169586181640625;0.00531005859375;-1.0103912353515625;-0.008401473984122276;-0.0006831008358858526;0.001525991247035563
-0.1169586181640625;0.00531005859375;-1.0103912353515625;-0.008401473984122276;-0.0006831008358858526;0.001525991247035563
-0.116851806640625;0.00579833984375;-1.01080322265625;-0.008401473984122276;-0.0006831008358858526;0.001525991247035563
-0.116851806640625;0.00579833984375;-1.01080322265625;-0.008401473984122276;-0.0006831008358858526;0.001525991247035563
-0.116851806640625;0.00579833984375;-1.01080322265625;-0.008401473984122276;-0.0006831008358858526;0.001525991247035563
-0.116851806640625;0.00579833984375;-1.01080322265625;-0.00974423997104168;-0.0036908749025315046;0.001924932817928493
-0.116851806640625;0.00579833984375;-1.01080322265625;-0.00974423997104168;-0.0036908749025315046;0.001924932817928493
-0.1159210205078125;0.0072021484375;-1.012298583984375;-0.00974423997104168;-0.0036908749025315046;0.001924932817928493
-0.1159210205078125;0.0072021484375;-1.012298583984375;-0.00974423997104168;-0.0036908749025315046;0.001924932817928493
-0.1159210205078125;0.0072021484375;-1.012298583984375;-0.00974423997104168;-0.0036908749025315046;0.001924932817928493
-0.1159210205078125;0.0072021484375;-1.012298583984375;-0.010910172015428543;-0.005112470127642155;-0.0006452839006669819
-0.1159210205078125;0.0072021484375;-1.012298583984375;-0.010910172015428543;-0.005112470127642155;-0.0006452839006669819
-0.1157989501953125;0.007415771484375;-1.011932373046875;-0.010910172015428543;-0.005112470127642155;-0.0006452839006669819
-0.1157989501953125;0.007415771484375;-1.011932373046875;-0.010910172015428543;-0.005112470127642155;-0.0006452839006669819
-0.1157989501953125;0.007415771484375;-1.011932373046875;-0.010910172015428543;-0.005112470127642155;-0.0006452839006669819
-0.1157989501953125;0.007415771484375;-1.011932373046875;-0.010191384702920914;-0.006226737052202225;0.0012628709664568305
-0.1157989501953125;0.007415771484375;-1.011932373046875;-0.010191384702920914;-0.006226737052202225;0.0012628709664568305
-0.1157989501953125;0.0069732666015625;-1.008697509765625;-0.010191384702920914;-0.006226737052202225;0.0012628709664568305
-0.1157989501953125;0.0069732666015625;-1.008697509765625;-0.010191384702920914;-0.006226737052202225;0.0012628709664568305
-0.1157989501953125;0.0069732666015625;-1.008697509765625;-0.010191384702920914;-0.006226737052202225;0.0012628709664568305
-0.1157989501953125;0.0069732666015625;-1.008697509765625;-0.007229150738567114;-0.006106095854192972;-0.0031968585681170225
-0.1157989501953125;0.0069732666015625;-1.008697509765625;-0.007229150738567114;-0.006106095854192972;-0.0031968585681170225
-0.1154937744140625;0.0067901611328125;-1.0079345703125;-0.007229150738567114;-0.006106095854192972;-0.0031968585681170225
-0.1154937744140625;0.0067901611328125;-1.0079345703125;-0.007229150738567114;-0.006106095854192972;-0.0031968585681170225
-0.1154937744140625;0.0067901611328125;-1.0079345703125;-0.007229150738567114;-0.006106095854192972;-0.0031968585681170225
-0.1154937744140625;0.0067901611328125;-1.0079345703125;-0.004035754129290581;-0.007676295470446348;-4.820321555598639e-05
-0.1154937744140625;0.0067901611328125;-1.0079345703125;-0.004035754129290581;-0.007676295470446348;-4.820321555598639e-05
-0.1153564453125;0.0081939697265625;-1.011016845703125;-0.004035754129290581;-0.007676295470446348;-4.820321555598639e-05
-0.1153564453125;0.0081939697265625;-1.011016845703125;-0.004035754129290581;-0.007676295470446348;-4.820321555598639e-05
-0.1153564453125;0.0081939697265625;-1.011016845703125;-0.004035754129290581;-0.007676295470446348;-4.820321555598639e-05
-0.1153564453125;0.0081939697265625;-1.011016845703125;-0.0023031015880405903;-0.013452425599098206;0.0031132353469729424
-0.1153564453125;0.0081939697265625;-1.011016845703125;-0.0023031015880405903;-0.013452425599098206;0.0031132353469729424
-0.1164398193359375;0.00946044921875;-1.0137176513671875;-0.0023031015880405903;-0.013452425599098206;0.0031132353469729424
-0.1164398193359375;0.00946044921875;-1.0137176513671875;-0.0023031015880405903;-0.013452425599098206;0.0031132353469729424
-0.1164398193359375;0.00946044921875;-1.0137176513671875;-0.0023031015880405903;-0.013452425599098206;0.0031132353469729424
-0.1164398193359375;0.00946044921875;-1.0137176513671875;-0.00634844321757555;-0.012379970401525497;0.002359827049076557
-0.1164398193359375;0.00946044921875;-1.0137176513671875;-0.00634844321757555;-0.012379970401525497;0.002359827049076557
-0.1168060302734375;0.009490966796875;-1.0109405517578125;-0.00634844321757555;-0.012379970401525497;0.002359827049076557
-0.1168060302734375;0.009490966796875;-1.0109405517578125;-0.00634844321757555;-0.012379970401525497;0.002359827049076557
-0.1168060302734375;0.009490966796875;-1.0109405517578125;-0.00634844321757555;-0.012379970401525497;0.002359827049076557
-0.1168060302734375;0.009490966796875;-1.0109405517578125;-0.01188355777412653;-0.006024869158864021;0.005408081226050854
-0.1168060302734375;0.009490966796875;-1.0109405517578125;-0.01188355777412653;-0.006024869158864021;0.005408081226050854
-0.1163482666015625;0.0103912353515625;-1.0059967041015625;-0.01188355777412653;-0.006024869158864021;0.005408081226050854
-0.1163482666015625;0.0103912353515625;-1.0059967041015625;-0.01188355777412653;-0.006024869158864021;0.005408081226050854
-0.1163482666015625;0.0103912353515625;-1.0059967041015625;-0.01188355777412653;-0.006024869158864021;0.005408081226050854
-0.1163482666015625;0.0103912353515625;-1.0059967041015625;-0.016380304470658302;-0.0033537186682224274;0.006518353242427111
-0.1163482666015625;0.0103912353515625;-1.0059967041015625;-0.016380304470658302;-0.0033537186682224274;0.006518353242427111
-0.1161041259765625;0.0102081298828125;-1.0057830810546875;-0.016380304470658302;-0.0033537186682224274;0.006518353242427111
-0.1161041259765625;0.0102081298828125;-1.0057830810546875;-0.016380304470658302;-0.0033537186682224274;0.006518353242427111
-0.1161041259765625;0.0102081298828125;-1.0057830810546875;-0.016380304470658302;-0.0033537186682224274;0.006518353242427111
-0.1161041259765625;0.0102081298828125;-1.0057830810546875;-0.0182889923453331;0.00015153386630117893;0.001913214917294681
-0.1161041259765625;0.0102081298828125;-1.0057830810546875;-0.0182889923453331;0.00015153386630117893;0.001913214917294681
-0.1147003173828125;0.0107269287109375;-1.0037078857421875;-0.0182889923453331;0.00015153386630117893;0.001913214917294681
-0.1147003173828125;0.0107269287109375;-1.0037078857421875;-0.0182889923453331;0.00015153386630117893;0.001913214917294681
-0.1147003173828125;0.0107269287109375;-1.0037078857421875;-0.0182889923453331;0.00015153386630117893;0.001913214917294681
-0.1147003173828125;0.0107269287109375;-1.0037078857421875;-0.015351791866123676;-0.0011137339752167463;0.004232295788824558
-0.1147003173828125;0.0107269287109375;-1.0037078857421875;-0.015351791866123676;-0.0011137339752167463;0.004232295788824558
-0.1143798828125;0.0106658935546875;-1.0056610107421875;-0.015351791866123676;-0.0011137339752167463;0.004232295788824558
-0.1143798828125;0.0106658935546875;-1.0056610107421875;-0.015351791866123676;-0.0011137339752167463;0.004232295788824558
-0.1143798828125;0.0106658935546875;-1.0056610107421875;-0.015351791866123676;-0.0011137339752167463;0.004232295788824558
-0.1143798828125;0.0106658935546875;-1.0056610107421875;-0.012693957425653934;-0.012234029360115528;0.002232261700555682
-0.1143798828125;0.0106658935546875;-1.0056610107421875;-0.012693957425653934;-0.012234029360115528;0.002232261700555682
-0.1136322021484375;0.00927734375;-1.011016845703125;-0.012693957425653934;-0.012234029360115528;0.002232261700555682
-0.1136322021484375;0.00927734375;-1.011016845703125;-0.012693957425653934;-0.012234029360115528;0.002232261700555682
-0.1136322021484375;0.00927734375;-1.011016845703125;-0.012693957425653934;-0.012234029360115528;0.002232261700555682
-0.1136322021484375;0.00927734375;-1.011016845703125;-0.017054084688425064;-0.021446170285344124;0.0033068470656871796
-0.1136322021484375;0.00927734375;-1.011016845703125;-0.017054084688425064;-0.021446170285344124;0.0033068470656871796
-0.113800048828125;0.0086212158203125;-1.0139617919921875;-0.017054084688425064;-0.021446170285344124;0.0033068470656871796
-0.113800048828125;0.0086212158203125;-1.0139617919921875;-0.017054084688425064;-0.021446170285344124;0.0033068470656871796
-0.113800048828125;0.0086212158203125;-1.0139617919921875;-0.017054084688425064;-0.021446170285344124;0.0033068470656871796
-0.113800048828125;0.0086212158203125;-1.0139617919921875;-0.02851952612400055;-0.023058714345097542;0.0024021712597459555
-0.113800048828125;0.0086212158203125;-1.0139617919921875;-0.02851952612400055;-0.023058714345097542;0.0024021712597459555
-0.1148834228515625;0.007049560546875;-1.00946044921875;-0.02851952612400055;-0.023058714345097542;0.0024021712597459555
-0.1148834228515625;0.007049560546875;-1.00946044921875;-0.02851952612400055;-0.023058714345097542;0.0024021712597459555
-0.1148834228515625;0.007049560546875;-1.00946044921875;-0.02851952612400055;-0.023058714345097542;0.0024021712597459555
-0.1148834228515625;0.007049560546875;-1.00946044921875;-0.03147057443857193;-0.018806444481015205;0.0024080302100628614
-0.1148834228515625;0.007049560546875;-1.00946044921875;-0.03147057443857193;-0.018806444481015205;0.0024080302100628614
-0.115875244140625;0.0045623779296875;-1.0060882568359375;-0.03147057443857193;-0.018806444481015205;0.0024080302100628614
-0.115875244140625;0.0045623779296875;-1.0060882568359375;-0.03147057443857193;-0.018806444481015205;0.0024080302100628614
-0.115875244140625;0.0045623779296875;-1.0060882568359375;-0.03147057443857193;-0.018806444481015205;0.0024080302100628614
-0.115875244140625;0.0045623779296875;-1.0060882568359375;-0.030425816774368286;-0.012106730602681637;0.00012783173588104546
-0.115875244140625;0.0045623779296875;-1.0060882568359375;-0.030425816774368286;-0.012106730602681637;0.00012783173588104546
-0.1164703369140625;0.0062255859375;-1.0051727294921875;-0.030425816774368286;-0.012106730602681637;0.00012783173588104546
-0.1164703369140625;0.0062255859375;-1.0051727294921875;-0.030425816774368286;-0.012106730602681637;0.00012783173588104546
-0.1164703369140625;0.0062255859375;-1.0051727294921875;-0.030425816774368286;-0.012106730602681637;0.00012783173588104546
-0.1164703369140625;0.0062255859375;-1.0051727294921875;-0.016825318336486816;-0.0013464941876009107;-0.0005041363765485585
-0.1164703369140625;0.0062255859375;-1.0051727294921875;-0.016825318336486816;-0.0013464941876009107;-0.0005041363765485585
-0.1142425537109375;0.0092926025390625;-1.012237548828125;-0.016825318336486816;-0.0013464941876009107;-0.0005041363765485585
-0.1142425537109375;0.0092926025390625;-1.012237548828125;-0.016825318336486816;-0.0013464941876009107;-0.0005041363765485585
-0.1142425537109375;0.0092926025390625;-1.012237548828125;-0.016825318336486816;-0.0013464941876009107;-0.0005041363765485585
-0.1142425537109375;0.0092926025390625;-1.012237548828125;0.009334113448858261;0.018859973177313805;-0.005656021647155285
-0.1142425537109375;0.0092926025390625;-1.012237548828125;0.009334113448858261;0.018859973177313805;-0.005656021647155285
-0.116119384765625;0.0128936767578125;-1.0121612548828125;0.009334113448858261;0.018859973177313805;-0.005656021647155285
-0.116119384765625;0.0128936767578125;-1.0121612548828125;0.009334113448858261;0.018859973177313805;-0.005656021647155285
-0.116119384765625;0.0128936767578125;-1.0121612548828125;0.009334113448858261;0.018859973177313805;-0.005656021647155285
-0.116119384765625;0.0128936767578125;-1.0121612548828125;0.020611003041267395;0.005378520116209984;-0.0005054679932072759
-0.116119384765625;0.0128936767578125;-1.0121612548828125;0.020611003041267395;0.005378520116209984;-0.0005054679932072759
-0.11602783203125;0.0151214599609375;-1.001861572265625;0.020611003041267395;0.005378520116209984;-0.0005054679932072759
-0.11602783203125;0.0151214599609375;-1.001861572265625;0.020611003041267395;0.005378520116209984;-0.0005054679932072759
-0.11602783203125;0.0151214599609375;-1.001861572265625;0.020611003041267395;0.005378520116209984;-0.0005054679932072759
-0.11602783203125;0.0151214599609375;-1.001861572265625;0.011020426638424397;-0.000904409505892545;0.0034373418893665075
-0.11602783203125;0.0151214599609375;-1.001861572265625;0.011020426638424397;-0.000904409505892545;0.0034373418893665075
-0.1166534423828125;0.0159454345703125;-1.0145263671875;0.011020426638424397;-0.000904409505892545;0.0034373418893665075
-0.1166534423828125;0.0159454345703125;-1.0145263671875;0.011020426638424397;-0.000904409505892545;0.0034373418893665075
-0.1166534423828125;0.0159454345703125;-1.0145263671875;0.011020426638424397;-0.000904409505892545;0.0034373418893665075
-0.1166534423828125;0.0159454345703125;-1.0145263671875;-0.01323777437210083;-0.03293797746300697;0.006660299375653267
-0.1166534423828125;0.0159454345703125;-1.0145263671875;-0.01323777437210083;-0.03293797746300697;0.006660299375653267
-0.11920166015625;0.0129241943359375;-1.0141754150390625;-0.01323777437210083;-0.03293797746300697;0.006660299375653267
-0.11920166015625;0.0129241943359375;-1.0141754150390625;-0.01323777437210083;-0.03293797746300697;0.006660299375653267
-0.11920166015625;0.0129241943359375;-1.0141754150390625;-0.01323777437210083;-0.03293797746300697;0.006660299375653267
-0.11920166015625;0.0129241943359375;-1.0141754150390625;-0.014405837282538414;-0.0427250936627388;0.006994526367634535
-0.11920166015625;0.0129241943359375;-1.0141754150390625;-0.014405837282538414;-0.0427250936627388;0.006994526367634535
-0.119140625;0.0099639892578125;-1.008026123046875;-0.014405837282538414;-0.0427250936627388;0.006994526367634535
-0.119140625;0.0099639892578125;-1.008026123046875;-0.014405837282538414;-0.0427250936627388;0.006994526367634535
-0.119140625;0.0099639892578125;-1.008026123046875;-0.014405837282538414;-0.0427250936627388;0.006994526367634535
-0.119140625;0.0099639892578125;-1.008026123046875;0.0017041567480191588;-0.018314026296138763;0.006864830385893583
-0.119140625;0.0099639892578125;-1.008026123046875;0.0017041567480191588;-0.018314026296138763;0.006864830385893583
-0.121337890625;0.01177978515625;-1.0050048828125;0.0017041567480191588;-0.018314026296138763;0.006864830385893583
-0.121337890625;0.01177978515625;-1.0050048828125;0.0017041567480191588;-0.018314026296138763;0.006864830385893583
-0.121337890625;0.01177978515625;-1.0050048828125;0.0017041567480191588;-0.018314026296138763;0.006864830385893583
-0.121337890625;0.01177978515625;-1.0050048828125;0.026384469121694565;0.0031941954512149096;0.0028061727061867714
-0.121337890625;0.01177978515625;-1.0050048828125;0.026384469121694565;0.0031941954512149096;0.0028061727061867714
-0.12274169921875;0.0123291015625;-1.005340576171875;0.026384469121694565;0.0031941954512149096;0.0028061727061867714
-0.12274169921875;0.0123291015625;-1.005340576171875;0.026384469121694565;0.0031941954512149096;0.0028061727061867714
-0.12274169921875;0.0123291015625;-1.005340576171875;0.026384469121694565;0.0031941954512149096;0.0028061727061867714
-0.12274169921875;0.0123291015625;-1.005340576171875;0.04069017246365547;0.01570599153637886;5.4328484111465514e-05
-0.12274169921875;0.0123291015625;-1.005340576171875;0.04069017246365547;0.01570599153637886;5.4328484111465514e-05
-0.12060546875;0.011016845703125;-1.0154266357421875;0.04069017246365547;0.01570599153637886;5.4328484111465514e-05
-0.12060546875;0.011016845703125;-1.0154266357421875;0.04069017246365547;0.01570599153637886;5.4328484111465514e-05
-0.12060546875;0.011016845703125;-1.0154266357421875;0.04069017246365547;0.01570599153637886;5.4328484111465514e-05
-0.12060546875;0.011016845703125;-1.0154266357421875;0.02802897058427334;0.00615110294893384;-0.006259493995457888
-0.12060546875;0.011016845703125;-1.0154266357421875;0.02802897058427334;0.00615110294893384;-0.006259493995457888
-0.11614990234375;0.0068511962890625;-1.0139007568359375;0.02802897058427334;0.00615110294893384;-0.006259493995457888
-0.11614990234375;0.0068511962890625;-1.0139007568359375;0.02802897058427334;0.00615110294893384;-0.006259493995457888
-0.11614990234375;0.0068511962890625;-1.0139007568359375;0.02802897058427334;0.00615110294893384;-0.006259493995457888
-0.11614990234375;0.0068511962890625;-1.0139007568359375;-0.002463157754391432;-0.0011733887949958444;-0.006881608162075281
-0.11614990234375;0.0068511962890625;-1.0139007568359375;-0.002463157754391432;-0.0011733887949958444;-0.006881608162075281
-0.1112518310546875;0.00091552734375;-1.0113525390625;-0.002463157754391432;-0.0011733887949958444;-0.006881608162075281
-0.1112518310546875;0.00091552734375;-1.0113525390625;-0.002463157754391432;-0.0011733887949958444;-0.006881608162075281
-0.1112518310546875;0.00091552734375;-1.0113525390625;-0.014386928640305996;-0.008024370297789574;-0.0029617014806717634
-0.1112518310546875;0.00091552734375;-1.0113525390625;-0.014386928640305996;-0.008024370297789574;-0.0029617014806717634
-0.1112518310546875;0.00091552734375;-1.0113525390625;-0.014386928640305996;-0.008024370297789574;-0.0029617014806717634
-0.110809326171875;-0.0012664794921875;-1.0097808837890625;-0.014386928640305996;-0.008024370297789574;-0.0029617014806717634
-0.110809326171875;-0.0012664794921875;-1.0097808837890625;-0.014386928640305996;-0.008024370297789574;-0.0029617014806717634
-0.110809326171875;-0.0012664794921875;-1.0097808837890625;-0.013716078363358974;-0.004217648413032293;0.0025446503423154354
-0.110809326171875;-0.0012664794921875;-1.0097808837890625;-0.013716078363358974;-0.004217648413032293;0.0025446503423154354
-0.110809326171875;-0.0012664794921875;-1.0097808837890625;-0.013716078363358974;-0.004217648413032293;0.0025446503423154354
-0.11138916015625;4.57763671875e-05;-1.0089874267578125;-0.013716078363358974;-0.004217648413032293;0.0025446503423154354
-0.11138916015625;4.57763671875e-05;-1.0089874267578125;-0.013716078363358974;-0.004217648413032293;0.0025446503423154354
-0.11138916015625;4.57763671875e-05;-1.0089874267578125;-0.006150304339826107;0.0038919434882700443;0.0036495958920568228
-0.11138916015625;4.57763671875e-05;-1.0089874267578125;-0.006150304339826107;0.0038919434882700443;0.0036495958920568228
-0.11138916015625;4.57763671875e-05;-1.0089874267578125;-0.006150304339826107;0.0038919434882700443;0.0036495958920568228
-0.1149444580078125;0.00384521484375;-1.0073394775390625;-0.006150304339826107;0.0038919434882700443;0.0036495958920568228
-0.1149444580078125;0.00384521484375;-1.0073394775390625;-0.006150304339826107;0.0038919434882700443;0.0036495958920568228
-0.1149444580078125;0.00384521484375;-1.0073394775390625;0.0003193130251020193;0.010083526372909546;0.0057100835256278515
-0.1149444580078125;0.00384521484375;-1.0073394775390625;0.0003193130251020193;0.010083526372909546;0.0057100835256278515
-0.1149444580078125;0.00384521484375;-1.0073394775390625;0.0003193130251020193;0.010083526372909546;0.0057100835256278515
-0.117156982421875;0.0081024169921875;-1.005889892578125;0.0003193130251020193;0.010083526372909546;0.0057100835256278515
-0.117156982421875;0.0081024169921875;-1.005889892578125;0.0003193130251020193;0.010083526372909546;0.0057100835256278515
-0.117156982421875;0.0081024169921875;-1.005889892578125;0.003242664970457554;0.006867493502795696;0.007898936048150063
-0.117156982421875;0.0081024169921875;-1.005889892578125;0.003242664970457554;0.006867493502795696;0.007898936048150063
-0.117156982421875;0.0081024169921875;-1.005889892578125;0.003242664970457554;0.006867493502795696;0.007898936048150063
-0.1184539794921875;0.010589599609375;-1.013427734375;0.003242664970457554;0.006867493502795696;0.007898936048150063
-0.1184539794921875;0.010589599609375;-1.013427734375;0.003242664970457554;0.006867493502795696;0.007898936048150063
-0.1184539794921875;0.010589599609375;-1.013427734375;0.008460596203804016;0.00959563534706831;0.006409695837646723
-0.1184539794921875;0.010589599609375;-1.013427734375;0.008460596203804016;0.00959563534706831;0.006409695837646723
-0.1196136474609375;0.0115814208984375;-1.0153350830078125;0.008460596203804016;0.00959563534706831;0.006409695837646723
-0.1196136474609375;0.0115814208984375;-1.0153350830078125;0.008460596203804016;0.00959563534706831;0.006409695837646723
-0.1196136474609375;0.0115814208984375;-1.0153350830078125;0.008460596203804016;0.00959563534706831;0.006409695837646723
-0.1196136474609375;0.0115814208984375;-1.0153350830078125;0.0067511131055653095;0.006971889175474644;-0.00010359696898376569
-0.1196136474609375;0.0115814208984375;-1.0153350830078125;0.0067511131055653095;0.006971889175474644;-0.00010359696898376569
-0.1190643310546875;0.011749267578125;-1.0135498046875;0.0067511131055653095;0.006971889175474644;-0.00010359696898376569
-0.1190643310546875;0.011749267578125;-1.0135498046875;0.0067511131055653095;0.006971889175474644;-0.00010359696898376569
-0.1190643310546875;0.011749267578125;-1.0135498046875;0.0067511131055653095;0.006971889175474644;-0.00010359696898376569
-0.1190643310546875;0.011749267578125;-1.0135498046875;0.014317153953015804;0.008892827667295933;-0.0032405343372374773
-0.1190643310546875;0.011749267578125;-1.0135498046875;0.014317153953015804;0.008892827667295933;-0.0032405343372374773
-0.1172332763671875;0.01141357421875;-1.0107421875;0.014317153953015804;0.008892827667295933;-0.0032405343372374773
-0.1172332763671875;0.01141357421875;-1.0107421875;0.014317153953015804;0.008892827667295933;-0.0032405343372374773
-0.1172332763671875;0.01141357421875;-1.0107421875;0.014317153953015804;0.008892827667295933;-0.0032405343372374773
-0.1172332763671875;0.01141357421875;-1.0107421875;0.026700053364038467;0.008842493407428265;-0.0011267834343016148
-0.1172332763671875;0.01141357421875;-1.0107421875;0.026700053364038467;0.008842493407428265;-0.0011267834343016148
-0.1159515380859375;0.0117034912109375;-1.015106201171875;0.026700053364038467;0.008842493407428265;-0.0011267834343016148
-0.1159515380859375;0.0117034912109375;-1.015106201171875;0.026700053364038467;0.008842493407428265;-0.0011267834343016148
-0.1159515380859375;0.0117034912109375;-1.015106201171875;0.026700053364038467;0.008842493407428265;-0.0011267834343016148
-0.1159515380859375;0.0117034912109375;-1.015106201171875;0.029378129169344902;0.005921272095292807;0.00039228363311849535
-0.1159515380859375;0.0117034912109375;-1.015106201171875;0.029378129169344902;0.005921272095292807;0.00039228363311849535
-0.1153411865234375;0.012939453125;-1.01690673828125;0.029378129169344902;0.005921272095292807;0.00039228363311849535
-0.1153411865234375;0.012939453125;-1.01690673828125;0.029378129169344902;0.005921272095292807;0.00039228363311849535
-0.1153411865234375;0.012939453125;-1.01690673828125;0.029378129169344902;0.005921272095292807;0.00039228363311849535
-0.1153411865234375;0.012939453125;-1.01690673828125;0.023669643327593803;0.0038629150949418545;0.002745985286310315
-0.1153411865234375;0.012939453125;-1.01690673828125;0.023669643327593803;0.0038629150949418545;0.002745985286310315
-0.1166229248046875;0.013092041015625;-1.01275634765625;0.023669643327593803;0.0038629150949418545;0.002745985286310315
-0.1166229248046875;0.013092041015625;-1.01275634765625;0.023669643327593803;0.0038629150949418545;0.002745985286310315
-0.1166229248046875;0.013092041015625;-1.01275634765625;0.023669643327593803;0.0038629150949418545;0.002745985286310315
-0.1166229248046875;0.013092041015625;-1.01275634765625;0.01321087684482336;0.004766792058944702;0.00035606464371085167
-0.1166229248046875;0.013092041015625;-1.01275634765625;0.01321087684482336;0.004766792058944702;0.00035606464371085167
-0.11676025390625;0.0105438232421875;-1.0048065185546875;0.01321087684482336;0.004766792058944702;0.00035606464371085167
-0.11676025390625;0.0105438232421875;-1.0048065185546875;0.01321087684482336;0.004766792058944702;0.00035606464371085167
-0.11676025390625;0.0105438232421875;-1.0048065185546875;0.01321087684482336;0.004766792058944702;0.00035606464371085167
-0.11676025390625;0.0105438232421875;-1.0048065185546875;0.01019591186195612;0.004466387443244457;-0.003296993440017104
-0.11676025390625;0.0105438232421875;-1.0048065185546875;0.01019591186195612;0.004466387443244457;-0.003296993440017104
-0.1156768798828125;0.0076446533203125;-1.00665283203125;0.01019591186195612;0.004466387443244457;-0.003296993440017104
-0.1156768798828125;0.0076446533203125;-1.00665283203125;0.01019591186195612;0.004466387443244457;-0.003296993440017104
-0.1156768798828125;0.0076446533203125;-1.00665283203125;0.01019591186195612;0.004466387443244457;-0.003296993440017104
-0.1156768798828125;0.0076446533203125;-1.00665283203125;0.008141017518937588;-0.001246892032213509;-0.002681004349142313
-0.1156768798828125;0.0076446533203125;-1.00665283203125;0.008141017518937588;-0.001246892032213509;-0.002681004349142313
-0.1149749755859375;0.0061798095703125;-1.0108184814453125;0.008141017518937588;-0.001246892032213509;-0.002681004349142313
-0.1149749755859375;0.0061798095703125;-1.0108184814453125;0.008141017518937588;-0.001246892032213509;-0.002681004349142313
-0.1149749755859375;0.0061798095703125;-1.0108184814453125;0.008141017518937588;-0.001246892032213509;-0.002681004349142313
-0.1149749755859375;0.0061798095703125;-1.0108184814453125;0.00526666734367609;-0.006452839355915785;-0.0010109359864145517
-0.1149749755859375;0.0061798095703125;-1.0108184814453125;0.00526666734367609;-0.006452839355915785;-0.0010109359864145517
-0.1123809814453125;0.00433349609375;-1.0078887939453125;0.00526666734367609;-0.006452839355915785;-0.0010109359864145517
-0.1123809814453125;0.00433349609375;-1.0078887939453125;0.00526666734367609;-0.006452839355915785;-0.0010109359864145517
-0.1123809814453125;0.00433349609375;-1.0078887939453125;0.00526666734367609;-0.006452839355915785;-0.0010109359864145517
-0.1123809814453125;0.00433349609375;-1.0078887939453125;0.00860467366874218;-0.009957293048501015;0.0013622068800032139
-0.1123809814453125;0.00433349609375;-1.0078887939453125;0.00860467366874218;-0.009957293048501015;0.0013622068800032139
-0.111663818359375;0.0050506591796875;-1.007110595703125;0.00860467366874218;-0.009957293048501015;0.0013622068800032139
-0.111663818359375;0.0050506591796875;-1.007110595703125;0.00860467366874218;-0.009957293048501015;0.0013622068800032139
-0.111663818359375;0.0050506591796875;-1.007110595703125;0.00860467366874218;-0.009957293048501015;0.0013622068800032139
-0.111663818359375;0.0050506591796875;-1.007110595703125;0.014779211953282356;-0.002990197157487273;0.003013899317011237
-0.111663818359375;0.0050506591796875;-1.007110595703125;0.014779211953282356;-0.002990197157487273;0.003013899317011237
-0.1130523681640625;0.0062408447265625;-1.0095672607421875;0.014779211953282356;-0.002990197157487273;0.003013899317011237
-0.1130523681640625;0.0062408447265625;-1.0095672607421875;0.014779211953282356;-0.002990197157487273;0.003013899317011237
-0.1130523681640625;0.0062408447265625;-1.0095672607421875;0.014779211953282356;-0.002990197157487273;0.003013899317011237
-0.1130523681640625;0.0062408447265625;-1.0095672607421875;0.017655426636338234;-0.004506068304181099;0.00523604080080986
-0.1130523681640625;0.0062408447265625;-1.0095672607421875;0.017655426636338234;-0.004506068304181099;0.00523604080080986
-0.1150970458984375;0.0062103271484375;-1.0115203857421875;0.017655426636338234;-0.004506068304181099;0.00523604080080986
-0.1150970458984375;0.0062103271484375;-1.0115203857421875;0.017655426636338234;-0.004506068304181099;0.00523604080080986
-0.1150970458984375;0.0062103271484375;-1.0115203857421875;0.017655426636338234;-0.004506068304181099;0.00523604080080986
-0.1150970458984375;0.0062103271484375;-1.0115203857421875;0.016450611874461174;-0.005489041097462177;0.008318915963172913
-0.1150970458984375;0.0062103271484375;-1.0115203857421875;0.016450611874461174;-0.005489041097462177;0.008318915963172913
-0.1159515380859375;0.0046844482421875;-1.0130462646484375;0.016450611874461174;-0.005489041097462177;0.008318915963172913
-0.1159515380859375;0.0046844482421875;-1.0130462646484375;0.016450611874461174;-0.005489041097462177;0.008318915963172913
-0.1159515380859375;0.0046844482421875;-1.0130462646484375;0.016450611874461174;-0.005489041097462177;0.008318915963172913
-0.1159515380859375;0.0046844482421875;-1.0130462646484375;0.01287372037768364;-0.005622998345643282;0.0034876756835728884
-0.1159515380859375;0.0046844482421875;-1.0130462646484375;0.01287372037768364;-0.005622998345643282;0.0034876756835728884
-0.11590576171875;0.0045928955078125;-1.01068115234375;0.01287372037768364;-0.005622998345643282;0.0034876756835728884
-0.11590576171875;0.0045928955078125;-1.01068115234375;0.01287372037768364;-0.005622998345643282;0.0034876756835728884
-0.11590576171875;0.0045928955078125;-1.01068115234375;0.01287372037768364;-0.005622998345643282;0.0034876756835728884
-0.11590576171875;0.0045928955078125;-1.01068115234375;0.00021971078240312636;-0.013593040406703949;0.0038690404035151005
-0.11590576171875;0.0045928955078125;-1.01068115234375;0.00021971078240312636;-0.013593040406703949;0.0038690404035151005
-0.11688232421875;0.003662109375;-1.0084991455078125;0.00021971078240312636;-0.013593040406703949;0.0038690404035151005
-0.11688232421875;0.003662109375;-1.0084991455078125;0.00021971078240312636;-0.013593040406703949;0.0038690404035151005
-0.11688232421875;0.003662109375;-1.0084991455078125;0.00021971078240312636;-0.013593040406703949;0.0038690404035151005
-0.11688232421875;0.003662109375;-1.0084991455078125;-0.021764950826764107;-0.023151125758886337;0.003662112867459655
-0.11688232421875;0.003662109375;-1.0084991455078125;-0.021764950826764107;-0.023151125758886337;0.003662112867459655
-0.1168212890625;0.0024566650390625;-1.00213623046875;-0.021764950826764107;-0.023151125758886337;0.003662112867459655
-0.1168212890625;0.0024566650390625;-1.00213623046875;-0.021764950826764107;-0.023151125758886337;0.003662112867459655
-0.1168212890625;0.0024566650390625;-1.00213623046875;-0.021764950826764107;-0.023151125758886337;0.003662112867459655
-0.1168212890625;0.0024566650390625;-1.00213623046875;-0.02917466312646866;-0.030851656571030617;0.007170827593654394
-0.1168212890625;0.0024566650390625;-1.00213623046875;-0.02917466312646866;-0.030851656571030617;0.007170827593654394
-0.112823486328125;0.00146484375;-0.9971771240234375;-0.02917466312646866;-0.030851656571030617;0.007170827593654394
-0.112823486328125;0.00146484375;-0.9971771240234375;-0.02917466312646866;-0.030851656571030617;0.007170827593654394
-0.112823486328125;0.00146484375;-0.9971771240234375;-0.02917466312646866;-0.030851656571030617;0.007170827593654394
-0.112823486328125;0.00146484375;-0.9971771240234375;-0.01173095777630806;-0.030361900106072426;0.009156214073300362
-0.112823486328125;0.00146484375;-0.9971771240234375;-0.01173095777630806;-0.030361900106072426;0.009156214073300362
-0.11358642578125;0.0061798095703125;-1.0074310302734375;-0.01173095777630806;-0.030361900106072426;0.009156214073300362
-0.11358642578125;0.0061798095703125;-1.0074310302734375;-0.01173095777630806;-0.030361900106072426;0.009156214073300362
-0.11358642578125;0.0061798095703125;-1.0074310302734375;-0.01173095777630806;-0.030361900106072426;0.009156214073300362
-0.11358642578125;0.0061798095703125;-1.0074310302734375;0.004621915984898806;-0.033367808908224106;0.01053599826991558
-0.11358642578125;0.0061798095703125;-1.0074310302734375;0.004621915984898806;-0.033367808908224106;0.01053599826991558
-0.1167449951171875;0.0123291015625;-1.0167083740234375;0.004621915984898806;-0.033367808908224106;0.01053599826991558
-0.1167449951171875;0.0123291015625;-1.0167083740234375;0.004621915984898806;-0.033367808908224106;0.01053599826991558
-0.1167449951171875;0.0123291015625;-1.0167083740234375;0.004621915984898806;-0.033367808908224106;0.01053599826991558
-0.1167449951171875;0.0123291015625;-1.0167083740234375;-0.010942395776510239;-0.032516930252313614;0.010084059089422226
-0.1167449951171875;0.0123291015625;-1.0167083740234375;-0.010942395776510239;-0.032516930252313614;0.010084059089422226
-0.1178131103515625;0.0126800537109375;-1.014404296875;-0.010942395776510239;-0.032516930252313614;0.010084059089422226
-0.1178131103515625;0.0126800537109375;-1.014404296875;-0.010942395776510239;-0.032516930252313614;0.010084059089422226
-0.1178131103515625;0.0126800537109375;-1.014404296875;-0.010942395776510239;-0.032516930252313614;0.010084059089422226
-0.1178131103515625;0.0126800537109375;-1.014404296875;-0.037267476320266724;-0.018877018243074417;0.01263856329023838
-0.1178131103515625;0.0126800537109375;-1.014404296875;-0.037267476320266724;-0.018877018243074417;0.01263856329023838
-0.1194305419921875;0.0081939697265625;-0.9978179931640625;-0.037267476320266724;-0.018877018243074417;0.01263856329023838
-0.1194305419921875;0.0081939697265625;-0.9978179931640625;-0.037267476320266724;-0.018877018243074417;0.01263856329023838
-0.1194305419921875;0.0081939697265625;-0.9978179931640625;-0.037267476320266724;-0.018877018243074417;0.01263856329023838
-0.1194305419921875;0.0081939697265625;-0.9978179931640625;-0.03351801261305809;-0.02780499868094921;0.010059292428195477
-0.1194305419921875;0.0081939697265625;-0.9978179931640625;-0.03351801261305809;-0.02780499868094921;0.010059292428195477
-0.1195831298828125;0.007049560546875;-0.99761962890625;-0.03351801261305809;-0.02780499868094921;0.010059292428195477
-0.1195831298828125;0.007049560546875;-0.99761962890625;-0.03351801261305809;-0.02780499868094921;0.010059292428195477
-0.1195831298828125;0.007049560546875;-0.99761962890625;-0.03351801261305809;-0.02780499868094921;0.010059292428195477
-0.1195831298828125;0.007049560546875;-0.99761962890625;-0.01569560542702675;-0.04625244811177254;0.011085674166679382
-0.1195831298828125;0.007049560546875;-0.99761962890625;-0.01569560542702675;-0.04625244811177254;0.011085674166679382
-0.1190338134765625;0.0109710693359375;-1.012725830078125;-0.01569560542702675;-0.04625244811177254;0.011085674166679382
-0.1190338134765625;0.0109710693359375;-1.012725830078125;-0.01569560542702675;-0.04625244811177254;0.011085674166679382
-0.1190338134765625;0.0109710693359375;-1.012725830078125;-0.01569560542702675;-0.04625244811177254;0.011085674166679382
-0.1190338134765625;0.0109710693359375;-1.012725830078125;0.010611631907522678;-0.04051200672984123;0.011167699471116066
-0.1190338134765625;0.0109710693359375;-1.012725830078125;0.010611631907522678;-0.04051200672984123;0.011167699471116066
-0.12030029296875;0.0140228271484375;-1.0243072509765625;0.010611631907522678;-0.04051200672984123;0.011167699471116066
-0.12030029296875;0.0140228271484375;-1.0243072509765625;0.010611631907522678;-0.04051200672984123;0.011167699471116066
-0.12030029296875;0.0140228271484375;-1.0243072509765625;0.010611631907522678;-0.04051200672984123;0.011167699471116066
-0.12030029296875;0.0140228271484375;-1.0243072509765625;0.018927086144685745;-0.04258101433515549;0.010676346719264984
-0.12030029296875;0.0140228271484375;-1.0243072509765625;0.018927086144685745;-0.04258101433515549;0.010676346719264984
-0.122528076171875;0.0146026611328125;-1.0314788818359375;0.018927086144685745;-0.04258101433515549;0.010676346719264984
-0.122528076171875;0.0146026611328125;-1.0314788818359375;0.018927086144685745;-0.04258101433515549;0.010676346719264984
-0.122528076171875;0.0146026611328125;-1.0314788818359375;0.018927086144685745;-0.04258101433515549;0.010676346719264984
-0.122528076171875;0.0146026611328125;-1.0314788818359375;0.015873771160840988;-0.036619797348976135;0.012082229368388653
-0.122528076171875;0.0146026611328125;-1.0314788818359375;0.015873771160840988;-0.036619797348976135;0.012082229368388653
-0.1248016357421875;0.010833740234375;-1.0255126953125;0.015873771160840988;-0.036619797348976135;0.012082229368388653
-0.1248016357421875;0.010833740234375;-1.0255126953125;0.015873771160840988;-0.036619797348976135;0.012082229368388653
-0.1248016357421875;0.010833740234375;-1.0255126953125;0.015873771160840988;-0.036619797348976135;0.012082229368388653
-0.1248016357421875;0.010833740234375;-1.0255126953125;0.013936055824160576;-0.021997977048158646;0.010280600748956203
-0.1248016357421875;0.010833740234375;-1.0255126953125;0.013936055824160576;-0.021997977048158646;0.010280600748956203
-0.12567138671875;0.0052947998046875;-1.0197296142578125;0.013936055824160576;-0.021997977048158646;0.010280600748956203
-0.12567138671875;0.0052947998046875;-1.0197296142578125;0.013936055824160576;-0.021997977048158646;0.010280600748956203
-0.12567138671875;0.0052947998046875;-1.0197296142578125;0.013936055824160576;-0.021997977048158646;0.010280600748956203
-0.12567138671875;0.0052947998046875;-1.0197296142578125;0.01363458577543497;-0.01079618837684393;0.010404437780380249
-0.12567138671875;0.0052947998046875;-1.0197296142578125;0.01363458577543497;-0.01079618837684393;0.010404437780380249
-0.1252593994140625;0.0018463134765625;-1.0156707763671875;0.01363458577543497;-0.01079618837684393;0.010404437780380249
-0.1252593994140625;0.0018463134765625;-1.0156707763671875;0.01363458577543497;-0.01079618837684393;0.010404437780380249
-0.1252593994140625;0.0018463134765625;-1.0156707763671875;0.01363458577543497;-0.01079618837684393;0.010404437780380249
-0.1252593994140625;0.0018463134765625;-1.0156707763671875;0.018545188009738922;0.002936934120953083;0.007119694724678993
-0.1252593994140625;0.0018463134765625;-1.0156707763671875;0.018545188009738922;0.002936934120953083;0.007119694724678993
-0.1240997314453125;0.0032806396484375;-1.012237548828125;0.018545188009738922;0.002936934120953083;0.007119694724678993
-0.1240997314453125;0.0032806396484375;-1.012237548828125;0.018545188009738922;0.002936934120953083;0.007119694724678993
-0.1240997314453125;0.0032806396484375;-1.012237548828125;0.018545188009738922;0.002936934120953083;0.007119694724678993
-0.1240997314453125;0.0032806396484375;-1.012237548828125;0.01896516978740692;0.00683207344263792;0.001751827308908105
-0.1240997314453125;0.0032806396484375;-1.012237548828125;0.01896516978740692;0.00683207344263792;0.001751827308908105
-0.12158203125;0.004150390625;-1.0137176513671875;0.01896516978740692;0.00683207344263792;0.001751827308908105
-0.12158203125;0.004150390625;-1.0137176513671875;0.01896516978740692;0.00683207344263792;0.001751827308908105
-0.12158203125;0.004150390625;-1.0137176513671875;0.01896516978740692;0.00683207344263792;0.001751827308908105
-0.12158203125;0.004150390625;-1.0137176513671875;0.008655806072056293;-0.0024229439441114664;-0.0060022324323654175
-0.12158203125;0.004150390625;-1.0137176513671875;0.008655806072056293;-0.0024229439441114664;-0.0060022324323654175
-0.1200714111328125;0.0052947998046875;-1.013031005859375;0.008655806072056293;-0.0024229439441114664;-0.0060022324323654175
-0.1200714111328125;0.0052947998046875;-1.013031005859375;0.008655806072056293;-0.0024229439441114664;-0.0060022324323654175
-0.1200714111328125;0.0052947998046875;-1.013031005859375;0.008655806072056293;-0.0024229439441114664;-0.0060022324323654175
-0.1200714111328125;0.0052947998046875;-1.013031005859375;0.0038184402510523796;-0.007950334809720516;-0.005763080436736345
-0.1200714111328125;0.0052947998046875;-1.013031005859375;0.0038184402510523796;-0.007950334809720516;-0.005763080436736345
-0.118072509765625;0.0045928955078125;-1.0085601806640625;0.0038184402510523796;-0.007950334809720516;-0.005763080436736345
-0.118072509765625;0.0045928955078125;-1.0085601806640625;0.0038184402510523796;-0.007950334809720516;-0.005763080436736345
-0.118072509765625;0.0045928955078125;-1.0085601806640625;0.0038184402510523796;-0.007950334809720516;-0.005763080436736345
-0.118072509765625;0.0045928955078125;-1.0085601806640625;0.006993460934609175;-0.000925182132050395;-0.005820871330797672
-0.118072509765625;0.0045928955078125;-1.0085601806640625;0.006993460934609175;-0.000925182132050395;-0.005820871330797672
-0.1155548095703125;0.004547119140625;-1.003997802734375;0.006993460934609175;-0.000925182132050395;-0.005820871330797672
-0.1155548095703125;0.004547119140625;-1.003997802734375;0.006993460934609175;-0.000925182132050395;-0.005820871330797672
-0.1155548095703125;0.004547119140625;-1.003997802734375;0.006993460934609175;-0.000925182132050395;-0.005820871330797672
-0.1155548095703125;0.004547119140625;-1.003997802734375;0.0027601001784205437;-0.0031995216850191355;-0.006572947837412357
-0.1155548095703125;0.004547119140625;-1.003997802734375;0.0027601001784205437;-0.0031995216850191355;-0.006572947837412357
-0.11297607421875;0.00372314453125;-1.0077667236328125;0.0027601001784205437;-0.0031995216850191355;-0.006572947837412357
-0.11297607421875;0.00372314453125;-1.0077667236328125;0.0027601001784205437;-0.0031995216850191355;-0.006572947837412357
-0.11297607421875;0.00372314453125;-1.0077667236328125;0.0027601001784205437;-0.0031995216850191355;-0.006572947837412357
-0.11297607421875;0.00372314453125;-1.0077667236328125;-0.0006418218254111707;-0.007551925722509623;-0.0030988543294370174
-0.11297607421875;0.00372314453125;-1.0077667236328125;-0.0006418218254111707;-0.007551925722509623;-0.0030988543294370174
-0.1104583740234375;0.0030059814453125;-1.0053253173828125;-0.0006418218254111707;-0.007551925722509623;-0.0030988543294370174
-0.1104583740234375;0.0030059814453125;-1.0053253173828125;-0.0006418218254111707;-0.007551925722509623;-0.0030988543294370174
-0.1104583740234375;0.0030059814453125;-1.0053253173828125;-0.0006418218254111707;-0.007551925722509623;-0.0030988543294370174
-0.1104583740234375;0.0030059814453125;-1.0053253173828125;-0.009940248914062977;-0.006641124840825796;0.0006532734259963036
-0.1104583740234375;0.0030059814453125;-1.0053253173828125;-0.009940248914062977;-0.006641124840825796;0.0006532734259963036
-0.1090545654296875;0.0026397705078125;-1.0025177001953125;-0.009940248914062977;-0.006641124840825796;0.0006532734259963036
-0.1090545654296875;0.0026397705078125;-1.0025177001953125;-0.009940248914062977;-0.006641124840825796;0.0006532734259963036
-0.1090545654296875;0.0026397705078125;-1.0025177001953125;-0.009940248914062977;-0.006641124840825796;0.0006532734259963036
-0.1090545654296875;0.0026397705078125;-1.0025177001953125;-0.0008900284301489592;-0.004971322603523731;0.006506102625280619
-0.1090545654296875;0.0026397705078125;-1.0025177001953125;-0.0008900284301489592;-0.004971322603523731;0.006506102625280619
-0.1093902587890625;0.004180908203125;-1.003631591796875;-0.0008900284301489592;-0.004971322603523731;0.006506102625280619
-0.1093902587890625;0.004180908203125;-1.003631591796875;-0.0008900284301489592;-0.004971322603523731;0.006506102625280619
-0.1093902587890625;0.004180908203125;-1.003631591796875;0.014050837606191635;-0.007530620787292719;0.006677876226603985
-0.1093902587890625;0.004180908203125;-1.003631591796875;0.014050837606191635;-0.007530620787292719;0.006677876226603985
-0.113525390625;0.007781982421875;-1.0084991455078125;0.014050837606191635;-0.007530620787292719;0.006677876226603985
-0.113525390625;0.007781982421875;-1.0084991455078125;0.014050837606191635;-0.007530620787292719;0.006677876226603985
-0.113525390625;0.007781982421875;-1.0084991455078125;0.014050837606191635;-0.007530620787292719;0.006677876226603985
-0.113525390625;0.007781982421875;-1.0084991455078125;0.02502971887588501;-0.010334130376577377;0.01104386243969202
-0.113525390625;0.007781982421875;-1.0084991455078125;0.02502971887588501;-0.010334130376577377;0.01104386243969202
-0.117218017578125;0.0097808837890625;-1.011871337890625;0.02502971887588501;-0.010334130376577377;0.01104386243969202
-0.117218017578125;0.0097808837890625;-1.011871337890625;0.02502971887588501;-0.010334130376577377;0.01104386243969202
-0.117218017578125;0.0097808837890625;-1.011871337890625;0.02502971887588501;-0.010334130376577377;0.01104386243969202
-0.117218017578125;0.0097808837890625;-1.011871337890625;0.029774406924843788;-0.010541590861976147;0.011948006227612495
-0.117218017578125;0.0097808837890625;-1.011871337890625;0.029774406924843788;-0.010541590861976147;0.011948006227612495
-0.120025634765625;0.012176513671875;-1.0085601806640625;0.029774406924843788;-0.010541590861976147;0.011948006227612495
-0.120025634765625;0.012176513671875;-1.0085601806640625;0.029774406924843788;-0.010541590861976147;0.011948006227612495
-0.120025634765625;0.012176513671875;-1.0085601806640625;0.029774406924843788;-0.010541590861976147;0.011948006227612495
-0.120025634765625;0.012176513671875;-1.0085601806640625;0.01853320375084877;-0.010147709399461746;0.011738148517906666
-0.120025634765625;0.012176513671875;-1.0085601806640625;0.01853320375084877;-0.010147709399461746;0.011738148517906666
-0.120025634765625;0.012176513671875;-1.0085601806640625;0.01853320375084877;-0.010147709399461746;0.011738148517906666
-0.1225433349609375;0.012542724609375;-1.0066375732421875;0.01853320375084877;-0.010147709399461746;0.011738148517906666
-0.1225433349609375;0.012542724609375;-1.0066375732421875;0.01853320375084877;-0.010147709399461746;0.011738148517906666
-0.1225433349609375;0.012542724609375;-1.0066375732421875;0.01853320375084877;-0.010147709399461746;0.011738148517906666
-0.1225433349609375;0.012542724609375;-1.0066375732421875;0.006225937977433205;-0.004794488660991192;0.008155930787324905
-0.1225433349609375;0.012542724609375;-1.0066375732421875;0.006225937977433205;-0.004794488660991192;0.008155930787324905
-0.12261962890625;0.0101165771484375;-1.007354736328125;0.006225937977433205;-0.004794488660991192;0.008155930787324905
-0.12261962890625;0.0101165771484375;-1.007354736328125;0.006225937977433205;-0.004794488660991192;0.008155930787324905
-0.12261962890625;0.0101165771484375;-1.007354736328125;-0.0026581010315567255;-0.011351990513503551;-0.0002878876985050738
-0.12261962890625;0.0101165771484375;-1.007354736328125;-0.0026581010315567255;-0.011351990513503551;-0.0002878876985050738
-0.1207427978515625;0.00775146484375;-1.0027618408203125;-0.0026581010315567255;-0.011351990513503551;-0.0002878876985050738
-0.1207427978515625;0.00775146484375;-1.0027618408203125;-0.0026581010315567255;-0.011351990513503551;-0.0002878876985050738
-0.1207427978515625;0.00775146484375;-1.0027618408203125;-0.0026581010315567255;-0.011351990513503551;-0.0002878876985050738
-0.1207427978515625;0.00775146484375;-1.0027618408203125;-0.00421232171356678;-0.0022128205746412277;-0.00016591492749284953
-0.1207427978515625;0.00775146484375;-1.0027618408203125;-0.00421232171356678;-0.0022128205746412277;-0.00016591492749284953
-0.119232177734375;0.00726318359375;-1.00274658203125;-0.00421232171356678;-0.0022128205746412277;-0.00016591492749284953
-0.119232177734375;0.00726318359375;-1.00274658203125;-0.00421232171356678;-0.0022128205746412277;-0.00016591492749284953
-0.119232177734375;0.00726318359375;-1.00274658203125;-0.00421232171356678;-0.0022128205746412277;-0.00016591492749284953
-0.119232177734375;0.00726318359375;-1.00274658203125;0.0013076120521873236;-0.0007829693495295942;-0.001446362817659974
-0.119232177734375;0.00726318359375;-1.00274658203125;0.0013076120521873236;-0.0007829693495295942;-0.001446362817659974
-0.1197509765625;0.0074920654296875;-1.008758544921875;0.0013076120521873236;-0.0007829693495295942;-0.001446362817659974
-0.1197509765625;0.0074920654296875;-1.008758544921875;0.0013076120521873236;-0.0007829693495295942;-0.001446362817659974
-0.1197509765625;0.0074920654296875;-1.008758544921875;0.0013076120521873236;-0.0007829693495295942;-0.001446362817659974
-0.1197509765625;0.0074920654296875;-1.008758544921875;0.004923119675368071;-0.00555135915055871;-0.0015622102655470371
-0.1197509765625;0.0074920654296875;-1.008758544921875;0.004923119675368071;-0.00555135915055871;-0.0015622102655470371
-0.120147705078125;0.0095977783203125;-1.0078887939453125;0.004923119675368071;-0.00555135915055871;-0.0015622102655470371
-0.120147705078125;0.0095977783203125;-1.0078887939453125;0.004923119675368071;-0.00555135915055871;-0.0015622102655470371
-0.120147705078125;0.0095977783203125;-1.0078887939453125;0.004923119675368071;-0.00555135915055871;-0.0015622102655470371
-0.120147705078125;0.0095977783203125;-1.0078887939453125;0.008547415025532246;-0.0016852483386173844;0.0036421390250325203
-0.120147705078125;0.0095977783203125;-1.0078887939453125;0.008547415025532246;-0.0016852483386173844;0.0036421390250325203
-0.12225341796875;0.0093536376953125;-1.007598876953125;0.008547415025532246;-0.0016852483386173844;0.0036421390250325203
-0.12225341796875;0.0093536376953125;-1.007598876953125;0.008547415025532246;-0.0016852483386173844;0.0036421390250325203
-0.12225341796875;0.0093536376953125;-1.007598876953125;0.016982179135084152;-0.003768372815102339;0.0026016421616077423
-0.12225341796875;0.0093536376953125;-1.007598876953125;0.016982179135084152;-0.003768372815102339;0.0026016421616077423
-0.1235198974609375;0.00811767578125;-1.011749267578125;0.016982179135084152;-0.003768372815102339;0.0026016421616077423
-0.1235198974609375;0.00811767578125;-1.011749267578125;0.016982179135084152;-0.003768372815102339;0.0026016421616077423
-0.1235198974609375;0.00811767578125;-1.011749267578125;0.016982179135084152;-0.003768372815102339;0.0026016421616077423
-0.1235198974609375;0.00811767578125;-1.011749267578125;0.01836143061518669;-0.0013363742036744952;0.003634948516264558
-0.1235198974609375;0.00811767578125;-1.011749267578125;0.01836143061518669;-0.0013363742036744952;0.003634948516264558
-0.123687744140625;0.005126953125;-1.0157012939453125;0.01836143061518669;-0.0013363742036744952;0.003634948516264558
-0.123687744140625;0.005126953125;-1.0157012939453125;0.01836143061518669;-0.0013363742036744952;0.003634948516264558
-0.123687744140625;0.005126953125;-1.0157012939453125;0.01836143061518669;-0.0013363742036744952;0.003634948516264558
-0.123687744140625;0.005126953125;-1.0157012939453125;0.015864716842770576;-0.0006591323763132095;0.003228017594665289
-0.123687744140625;0.005126953125;-1.0157012939453125;0.015864716842770576;-0.0006591323763132095;0.003228017594665289
-0.1235504150390625;0.0041046142578125;-1.0131988525390625;0.015864716842770576;-0.0006591323763132095;0.003228017594665289
-0.1235504150390625;0.0041046142578125;-1.0131988525390625;0.015864716842770576;-0.0006591323763132095;0.003228017594665289
-0.1235504150390625;0.0041046142578125;-1.0131988525390625;0.015864716842770576;-0.0006591323763132095;0.003228017594665289
-0.1235504150390625;0.0041046142578125;-1.0131988525390625;0.009100288152694702;-0.0005997438565827906;0.0029169602785259485
-0.1235504150390625;0.0041046142578125;-1.0131988525390625;0.009100288152694702;-0.0005997438565827906;0.0029169602785259485
-0.121429443359375;0.00146484375;-1.0088348388671875;0.009100288152694702;-0.0005997438565827906;0.0029169602785259485
-0.121429443359375;0.00146484375;-1.0088348388671875;0.009100288152694702;-0.0005997438565827906;0.0029169602785259485
-0.121429443359375;0.00146484375;-1.0088348388671875;0.009100288152694702;-0.0005997438565827906;0.0029169602785259485
-0.121429443359375;0.00146484375;-1.0088348388671875;0.008011321537196636;-0.008076036348938942;0.004490089602768421
-0.121429443359375;0.00146484375;-1.0088348388671875;0.008011321537196636;-0.008076036348938942;0.004490089602768421
-0.1208648681640625;0.0011444091796875;-1.0116424560546875;0.008011321537196636;-0.008076036348938942;0.004490089602768421
-0.1208648681640625;0.0011444091796875;-1.0116424560546875;0.008011321537196636;-0.008076036348938942;0.004490089602768421
-0.1208648681640625;0.0011444091796875;-1.0116424560546875;0.008011321537196636;-0.008076036348938942;0.004490089602768421
-0.1208648681640625;0.0011444091796875;-1.0116424560546875;0.009049154818058014;-0.010806042701005936;0.0009243832319043577
-0.1208648681640625;0.0011444091796875;-1.0116424560546875;0.009049154818058014;-0.010806042701005936;0.0009243832319043577
-0.1206817626953125;0.002105712890625;-1.009857177734375;0.009049154818058014;-0.010806042701005936;0.0009243832319043577
-0.1206817626953125;0.002105712890625;-1.009857177734375;0.009049154818058014;-0.010806042701005936;0.0009243832319043577
-0.1206817626953125;0.002105712890625;-1.009857177734375;0.009049154818058014;-0.010806042701005936;0.0009243832319043577
-0.1206817626953125;0.002105712890625;-1.009857177734375;0.007709851488471031;-0.007276821415871382;-0.0010194580536335707
-0.1206817626953125;0.002105712890625;-1.009857177734375;0.007709851488471031;-0.007276821415871382;-0.0010194580536335707
-0.1193695068359375;0.0025177001953125;-1.006622314453125;0.007709851488471031;-0.007276821415871382;-0.0010194580536335707
-0.1193695068359375;0.0025177001953125;-1.006622314453125;0.007709851488471031;-0.007276821415871382;-0.0010194580536335707
-0.1193695068359375;0.0025177001953125;-1.006622314453125;0.007709851488471031;-0.007276821415871382;-0.0010194580536335707
-0.1193695068359375;0.0025177001953125;-1.006622314453125;0.006997722201049328;-0.0020213392563164234;-0.0004546015989035368
-0.1193695068359375;0.0025177001953125;-1.006622314453125;0.006997722201049328;-0.0020213392563164234;-0.0004546015989035368
-0.11932373046875;0.0025177001953125;-1.0062103271484375;0.006997722201049328;-0.0020213392563164234;-0.0004546015989035368
-0.11932373046875;0.0025177001953125;-1.0062103271484375;0.006997722201049328;-0.0020213392563164234;-0.0004546015989035368
-0.11932373046875;0.0025177001953125;-1.0062103271484375;0.006997722201049328;-0.0020213392563164234;-0.0004546015989035368
-0.11932373046875;0.0025177001953125;-1.0062103271484375;-0.0008713863207958639;-0.006216883193701506;-0.002275671111419797
-0.11932373046875;0.0025177001953125;-1.0062103271484375;-0.0008713863207958639;-0.006216883193701506;-0.002275671111419797
-0.1180572509765625;0.0022125244140625;-1.0044403076171875;-0.0008713863207958639;-0.006216883193701506;-0.002275671111419797
-0.1180572509765625;0.0022125244140625;-1.0044403076171875;-0.0008713863207958639;-0.006216883193701506;-0.002275671111419797
-0.1180572509765625;0.0022125244140625;-1.0044403076171875;-0.0008713863207958639;-0.006216883193701506;-0.002275671111419797
-0.1180572509765625;0.0022125244140625;-1.0044403076171875;-0.0017984326696023345;-0.003296993440017104;0.0010700580896809697
-0.1180572509765625;0.0022125244140625;-1.0044403076171875;-0.0017984326696023345;-0.003296993440017104;0.0010700580896809697
-0.1168670654296875;0.00286865234375;-1.003997802734375;-0.0017984326696023345;-0.003296993440017104;0.0010700580896809697
-0.1168670654296875;0.00286865234375;-1.003997802734375;-0.0017984326696023345;-0.003296993440017104;0.0010700580896809697
-0.1168670654296875;0.00286865234375;-1.003997802734375;-0.0017984326696023345;-0.003296993440017104;0.0010700580896809697
-0.1168670654296875;0.00286865234375;-1.003997802734375;-0.0013544837711378932;-0.006969492416828871;0.0031854070257395506
-0.1168670654296875;0.00286865234375;-1.003997802734375;-0.0013544837711378932;-0.006969492416828871;0.0031854070257395506
-0.116485595703125;0.0036773681640625;-1.0105133056640625;-0.0013544837711378932;-0.006969492416828871;0.0031854070257395506
-0.116485595703125;0.0036773681640625;-1.0105133056640625;-0.0013544837711378932;-0.006969492416828871;0.0031854070257395506
-0.116485595703125;0.0036773681640625;-1.0105133056640625;-0.0013544837711378932;-0.006969492416828871;0.0031854070257395506
-0.116485595703125;0.0036773681640625;-1.0105133056640625;-0.005376921966671944;-0.01206971239298582;0.0029949909076094627
-0.116485595703125;0.0036773681640625;-1.0105133056640625;-0.005376921966671944;-0.01206971239298582;0.0029949909076094627
-0.117279052734375;0.0050201416015625;-1.0113067626953125;-0.005376921966671944;-0.01206971239298582;0.0029949909076094627
-0.117279052734375;0.0050201416015625;-1.0113067626953125;-0.005376921966671944;-0.01206971239298582;0.0029949909076094627
-0.117279052734375;0.0050201416015625;-1.0113067626953125;-0.005376921966671944;-0.01206971239298582;0.0029949909076094627
-0.117279052734375;0.0050201416015625;-1.0113067626953125;-0.004752411041408777;-0.0073479278944432735;0.0022972426377236843
-0.117279052734375;0.0050201416015625;-1.0113067626953125;-0.004752411041408777;-0.0073479278944432735;0.0022972426377236843
-0.1182098388671875;0.0053253173828125;-1.0100555419921875;-0.004752411041408777;-0.0073479278944432735;0.0022972426377236843
-0.1182098388671875;0.0053253173828125;-1.0100555419921875;-0.004752411041408777;-0.0073479278944432735;0.0022972426377236843
-0.1182098388671875;0.0053253173828125;-1.0100555419921875;-0.004752411041408777;-0.0073479278944432735;0.0022972426377236843
-0.1182098388671875;0.0053253173828125;-1.0100555419921875;-0.002755306428298354;-0.0020652813836932182;0.007754059974104166
-0.1182098388671875;0.0053253173828125;-1.0100555419921875;-0.002755306428298354;-0.0020652813836932182;0.007754059974104166
-0.1191253662109375;0.0059356689453125;-1.0121612548828125;-0.002755306428298354;-0.0020652813836932182;0.007754059974104166
-0.1191253662109375;0.0059356689453125;-1.0121612548828125;-0.002755306428298354;-0.0020652813836932182;0.007754059974104166
-0.1191253662109375;0.0059356689453125;-1.0121612548828125;-0.002755306428298354;-0.0020652813836932182;0.007754059974104166
-0.1191253662109375;0.0059356689453125;-1.0121612548828125;-0.007843275554478168;0.000687361869495362;0.009404687210917473
-0.1191253662109375;0.0059356689453125;-1.0121612548828125;-0.007843275554478168;0.000687361869495362;0.009404687210917473
-0.1185760498046875;0.0080108642578125;-1.0122222900390625;-0.007843275554478168;0.000687361869495362;0.009404687210917473
-0.1185760498046875;0.0080108642578125;-1.0122222900390625;-0.007843275554478168;0.000687361869495362;0.009404687210917473
-0.1185760498046875;0.0080108642578125;-1.0122222900390625;-0.007843275554478168;0.000687361869495362;0.009404687210917473
-0.1185760498046875;0.0080108642578125;-1.0122222900390625;-0.00749014038592577;0.008749016560614109;0.005880792159587145
-0.1185760498046875;0.0080108642578125;-1.0122222900390625;-0.00749014038592577;0.008749016560614109;0.005880792159587145
-0.1185455322265625;0.0080108642578125;-1.00885009765625;-0.00749014038592577;0.008749016560614109;0.005880792159587145
-0.1185455322265625;0.0080108642578125;-1.00885009765625;-0.00749014038592577;0.008749016560614109;0.005880792159587145
-0.1185455322265625;0.0080108642578125;-1.00885009765625;-0.00749014038592577;0.008749016560614109;0.005880792159587145
-0.1185455322265625;0.0080108642578125;-1.00885009765625;0.0019214707426726818;0.037348970770835876;-0.0007576693315058947
-0.1185455322265625;0.0080108642578125;-1.00885009765625;0.0019214707426726818;0.037348970770835876;-0.0007576693315058947
-0.120513916015625;0.00909423828125;-1.0040283203125;0.0019214707426726818;0.037348970770835876;-0.0007576693315058947
-0.120513916015625;0.00909423828125;-1.0040283203125;0.0019214707426726818;0.037348970770835876;-0.0007576693315058947
-0.120513916015625;0.00909423828125;-1.0040283203125;0.0019214707426726818;0.037348970770835876;-0.0007576693315058947
-0.120513916015625;0.00909423828125;-1.0040283203125;0.004231496714055538;0.020967066287994385;-0.0022176143247634172
-0.120513916015625;0.00909423828125;-1.0040283203125;0.004231496714055538;0.020967066287994385;-0.0022176143247634172
-0.12042236328125;0.0085906982421875;-0.9931793212890625;0.004231496714055538;0.020967066287994385;-0.0022176143247634172
-0.12042236328125;0.0085906982421875;-0.9931793212890625;0.004231496714055538;0.020967066287994385;-0.0022176143247634172
-0.12042236328125;0.0085906982421875;-0.9931793212890625;0.004231496714055538;0.020967066287994385;-0.0022176143247634172
-0.12042236328125;0.0085906982421875;-0.9931793212890625;-0.004603007808327675;0.0009155947482213378;0.003129746997728944
-0.12042236328125;0.0085906982421875;-0.9931793212890625;-0.004603007808327675;0.0009155947482213378;0.003129746997728944
-0.1175537109375;0.00689697265625;-1.001251220703125;-0.004603007808327675;0.0009155947482213378;0.003129746997728944
-0.1175537109375;0.00689697265625;-1.001251220703125;-0.004603007808327675;0.0009155947482213378;0.003129746997728944
-0.1175537109375;0.00689697265625;-1.001251220703125;-0.004603007808327675;0.0009155947482213378;0.003129746997728944
-0.1175537109375;0.00689697265625;-1.001251220703125;-0.010834005661308765;-0.03136857599020004;0.007170294877141714
-0.1175537109375;0.00689697265625;-1.001251220703125;-0.010834005661308765;-0.03136857599020004;0.007170294877141714
-0.117218017578125;0.0076446533203125;-1.0077056884765625;-0.010834005661308765;-0.03136857599020004;0.007170294877141714
-0.117218017578125;0.0076446533203125;-1.0077056884765625;-0.010834005661308765;-0.03136857599020004;0.007170294877141714
-0.117218017578125;0.0076446533203125;-1.0077056884765625;-0.010834005661308765;-0.03136857599020004;0.007170294877141714
-0.117218017578125;0.0076446533203125;-1.0077056884765625;-0.0016255935188382864;-0.040342096239328384;0.012342685833573341
-0.117218017578125;0.0076446533203125;-1.0077056884765625;-0.0016255935188382864;-0.040342096239328384;0.012342685833573341
-0.1215972900390625;0.0102081298828125;-1.0054931640625;-0.0016255935188382864;-0.040342096239328384;0.012342685833573341
-0.1215972900390625;0.0102081298828125;-1.0054931640625;-0.0016255935188382864;-0.040342096239328384;0.012342685833573341
-0.1215972900390625;0.0102081298828125;-1.0054931640625;-0.0016255935188382864;-0.040342096239328384;0.012342685833573341
-0.1215972900390625;0.0102081298828125;-1.0054931640625;0.018267421051859856;-0.0158828254789114;0.009690710343420506
-0.1215972900390625;0.0102081298828125;-1.0054931640625;0.018267421051859856;-0.0158828254789114;0.009690710343420506
-0.126678466796875;0.0135345458984375;-1.005218505859375;0.018267421051859856;-0.0158828254789114;0.009690710343420506
-0.126678466796875;0.0135345458984375;-1.005218505859375;0.018267421051859856;-0.0158828254789114;0.009690710343420506
-0.126678466796875;0.0135345458984375;-1.005218505859375;0.018267421051859856;-0.0158828254789114;0.009690710343420506
-0.126678466796875;0.0135345458984375;-1.005218505859375;0.040887776762247086;0.007820638827979565;0.0032533176708966494
-0.126678466796875;0.0135345458984375;-1.005218505859375;0.040887776762247086;0.007820638827979565;0.0032533176708966494
-0.129730224609375;0.013580322265625;-1.0068206787109375;0.040887776762247086;0.007820638827979565;0.0032533176708966494
-0.129730224609375;0.013580322265625;-1.0068206787109375;0.040887776762247086;0.007820638827979565;0.0032533176708966494
-0.129730224609375;0.013580322265625;-1.0068206787109375;0.040887776762247086;0.007820638827979565;0.0032533176708966494
-0.129730224609375;0.013580322265625;-1.0068206787109375;0.04625378176569939;0.024439295753836632;-0.0012381036067381501
-0.129730224609375;0.013580322265625;-1.0068206787109375;0.04625378176569939;0.024439295753836632;-0.0012381036067381501
-0.1269073486328125;0.0101318359375;-1.0131988525390625;0.04625378176569939;0.024439295753836632;-0.0012381036067381501
-0.1269073486328125;0.0101318359375;-1.0131988525390625;0.04625378176569939;0.024439295753836632;-0.0012381036067381501
-0.1269073486328125;0.0101318359375;-1.0131988525390625;0.04625378176569939;0.024439295753836632;-0.0012381036067381501
-0.1269073486328125;0.0101318359375;-1.0131988525390625;0.018799254670739174;0.012108061462640762;-0.005107143893837929
-0.1269073486328125;0.0101318359375;-1.0131988525390625;0.018799254670739174;0.012108061462640762;-0.005107143893837929
-0.1207733154296875;0.0034332275390625;-1.0026397705078125;0.018799254670739174;0.012108061462640762;-0.005107143893837929
-0.1207733154296875;0.0034332275390625;-1.0026397705078125;0.018799254670739174;0.012108061462640762;-0.005107143893837929
-0.1207733154296875;0.0034332275390625;-1.0026397705078125;0.018799254670739174;0.012108061462640762;-0.005107143893837929
-0.1207733154296875;0.0034332275390625;-1.0026397705078125;6.870955257909372e-05;0.003394465195015073;-0.005023254547268152
-0.1207733154296875;0.0034332275390625;-1.0026397705078125;6.870955257909372e-05;0.003394465195015073;-0.005023254547268152
-0.1155548095703125;-0.00341796875;-1.0045318603515625;6.870955257909372e-05;0.003394465195015073;-0.005023254547268152
-0.1155548095703125;-0.00341796875;-1.0045318603515625;6.870955257909372e-05;0.003394465195015073;-0.005023254547268152
-0.1155548095703125;-0.00341796875;-1.0045318603515625;-0.007193997036665678;-0.002925216220319271;-0.00501020485535264
-0.1155548095703125;-0.00341796875;-1.0045318603515625;-0.007193997036665678;-0.002925216220319271;-0.00501020485535264
-0.1155548095703125;-0.00341796875;-1.0045318603515625;-0.007193997036665678;-0.002925216220319271;-0.00501020485535264
-0.1151885986328125;-0.0054931640625;-1.0114288330078125;-0.007193997036665678;-0.002925216220319271;-0.00501020485535264
-0.1151885986328125;-0.0054931640625;-1.0114288330078125;-0.007193997036665678;-0.002925216220319271;-0.00501020485535264
-0.1151885986328125;-0.0054931640625;-1.0114288330078125;-0.007193997036665678;-0.002925216220319271;-0.00501020485535264
-0.1151885986328125;-0.0054931640625;-1.0114288330078125;-0.0028658276423811913;-0.0008793757879175246;-0.0025510420091450214
-0.1151885986328125;-0.0054931640625;-1.0114288330078125;-0.0028658276423811913;-0.0008793757879175246;-0.0025510420091450214
-0.116302490234375;-0.0039520263671875;-1.009002685546875;-0.0028658276423811913;-0.0008793757879175246;-0.0025510420091450214
-0.116302490234375;-0.0039520263671875;-1.009002685546875;-0.0028658276423811913;-0.0008793757879175246;-0.0025510420091450214
-0.116302490234375;-0.0039520263671875;-1.009002685546875;-0.0028658276423811913;-0.0008793757879175246;-0.0025510420091450214
-0.116302490234375;-0.0039520263671875;-1.009002685546875;0.0011174624087288976;0.003707919269800186;-0.0003736414946615696
-0.116302490234375;-0.0039520263671875;-1.009002685546875;0.0011174624087288976;0.003707919269800186;-0.0003736414946615696
-0.1180572509765625;-0.002655029296875;-1.0040130615234375;0.0011174624087288976;0.003707919269800186;-0.0003736414946615696
-0.1180572509765625;-0.002655029296875;-1.0040130615234375;0.0011174624087288976;0.003707919269800186;-0.0003736414946615696
-0.1180572509765625;-0.002655029296875;-1.0040130615234375;0.0011174624087288976;0.003707919269800186;-0.0003736414946615696
-0.1180572509765625;-0.002655029296875;-1.0040130615234375;0.007893609814345837;0.005776396486908197;0.005571599118411541
-0.1180572509765625;-0.002655029296875;-1.0040130615234375;0.007893609814345837;0.005776396486908197;0.005571599118411541
-0.1195068359375;-0.00103759765625;-1.010955810546875;0.007893609814345837;0.005776396486908197;0.005571599118411541
-0.1195068359375;-0.00103759765625;-1.010955810546875;0.007893609814345837;0.005776396486908197;0.005571599118411541
-0.1195068359375;-0.00103759765625;-1.010955810546875;0.007893609814345837;0.005776396486908197;0.005571599118411541
-0.1195068359375;-0.00103759765625;-1.010955810546875;0.006882140878587961;0.008629174903035164;0.006709568202495575
-0.1195068359375;-0.00103759765625;-1.010955810546875;0.006882140878587961;0.008629174903035164;0.006709568202495575
-0.119873046875;0.0012054443359375;-1.015716552734375;0.006882140878587961;0.008629174903035164;0.006709568202495575
-0.119873046875;0.0012054443359375;-1.015716552734375;0.006882140878587961;0.008629174903035164;0.006709568202495575
-0.119873046875;0.0012054443359375;-1.015716552734375;0.006882140878587961;0.008629174903035164;0.006709568202495575
-0.119873046875;0.0012054443359375;-1.015716552734375;-0.0020298613235354424;0.011183944530785084;0.00043302998528815806
-0.119873046875;0.0012054443359375;-1.015716552734375;-0.0020298613235354424;0.011183944530785084;0.00043302998528815806
-0.1192779541015625;0.0020599365234375;-1.0092315673828125;-0.0020298613235354424;0.011183944530785084;0.00043302998528815806
-0.1192779541015625;0.0020599365234375;-1.0092315673828125;-0.0020298613235354424;0.011183944530785084;0.00043302998528815806
-0.1192779541015625;0.0020599365234375;-1.0092315673828125;0.001555552356876433;0.011446799151599407;0.0023406522814184427
-0.1192779541015625;0.0020599365234375;-1.0092315673828125;0.001555552356876433;0.011446799151599407;0.0023406522814184427
-0.1192779541015625;0.0020599365234375;-1.0092315673828125;0.001555552356876433;0.011446799151599407;0.0023406522814184427
-0.1166229248046875;0.0037841796875;-1.0059814453125;0.001555552356876433;0.011446799151599407;0.0023406522814184427
-0.1166229248046875;0.0037841796875;-1.0059814453125;0.001555552356876433;0.011446799151599407;0.0023406522814184427
-0.1166229248046875;0.0037841796875;-1.0059814453125;0.012783439829945564;0.006090649403631687;0.0032109732273966074
-0.1166229248046875;0.0037841796875;-1.0059814453125;0.012783439829945564;0.006090649403631687;0.0032109732273966074
-0.1166229248046875;0.0037841796875;-1.0059814453125;0.012783439829945564;0.006090649403631687;0.0032109732273966074
-0.115203857421875;0.0059661865234375;-1.0160675048828125;0.012783439829945564;0.006090649403631687;0.0032109732273966074
-0.115203857421875;0.0059661865234375;-1.0160675048828125;0.012783439829945564;0.006090649403631687;0.0032109732273966074
-0.115203857421875;0.0059661865234375;-1.0160675048828125;0.020358800888061523;-0.0009536779834888875;0.003707919269800186
-0.115203857421875;0.0059661865234375;-1.0160675048828125;0.020358800888061523;-0.0009536779834888875;0.003707919269800186
-0.1151580810546875;0.0083160400390625;-1.0220947265625;0.020358800888061523;-0.0009536779834888875;0.003707919269800186
-0.1151580810546875;0.0083160400390625;-1.0220947265625;0.020358800888061523;-0.0009536779834888875;0.003707919269800186
-0.1151580810546875;0.0083160400390625;-1.0220947265625;0.020358800888061523;-0.0009536779834888875;0.003707919269800186
-0.1151580810546875;0.0083160400390625;-1.0220947265625;0.021094899624586105;-0.00012303804396651685;0.0054360441863536835
-0.1151580810546875;0.0083160400390625;-1.0220947265625;0.021094899624586105;-0.00012303804396651685;0.0054360441863536835
-0.11810302734375;0.0093536376953125;-1.0122528076171875;0.021094899624586105;-0.00012303804396651685;0.0054360441863536835
-0.11810302734375;0.0093536376953125;-1.0122528076171875;0.021094899624586105;-0.00012303804396651685;0.0054360441863536835
-0.11810302734375;0.0093536376953125;-1.0122528076171875;0.021094899624586105;-0.00012303804396651685;0.0054360441863536835
-0.11810302734375;0.0093536376953125;-1.0122528076171875;0.015391206368803978;0.005834985990077257;0.003168895374983549
-0.11810302734375;0.0093536376953125;-1.0122528076171875;0.015391206368803978;0.005834985990077257;0.003168895374983549
-0.1205596923828125;0.0089874267578125;-1.008544921875;0.015391206368803978;0.005834985990077257;0.003168895374983549
-0.1205596923828125;0.0089874267578125;-1.008544921875;0.015391206368803978;0.005834985990077257;0.003168895374983549
-0.1205596923828125;0.0089874267578125;-1.008544921875;0.015391206368803978;0.005834985990077257;0.003168895374983549
-0.1205596923828125;0.0089874267578125;-1.008544921875;0.015027951449155807;0.005653092171996832;0.003276220755651593
-0.1205596923828125;0.0089874267578125;-1.008544921875;0.015027951449155807;0.005653092171996832;0.003276220755651593
-0.1214141845703125;0.008209228515625;-1.0104522705078125;0.015027951449155807;0.005653092171996832;0.003276220755651593
-0.1214141845703125;0.008209228515625;-1.0104522705078125;0.015027951449155807;0.005653092171996832;0.003276220755651593
-0.1214141845703125;0.008209228515625;-1.0104522705078125;0.015027951449155807;0.005653092171996832;0.003276220755651593
-0.1214141845703125;0.008209228515625;-1.0104522705078125;0.0076299565844237804;-0.0006831008358858526;0.002368082758039236
-0.1214141845703125;0.008209228515625;-1.0104522705078125;0.0076299565844237804;-0.0006831008358858526;0.002368082758039236
-0.1206817626953125;0.0060882568359375;-1.0108795166015625;0.0076299565844237804;-0.0006831008358858526;0.002368082758039236
-0.1206817626953125;0.0060882568359375;-1.0108795166015625;0.0076299565844237804;-0.0006831008358858526;0.002368082758039236
-0.1206817626953125;0.0060882568359375;-1.0108795166015625;0.0076299565844237804;-0.0006831008358858526;0.002368082758039236
-0.1206817626953125;0.0060882568359375;-1.0108795166015625;0.0008950884221121669;-0.0014261227333918214;0.00373135507106781
-0.1206817626953125;0.0060882568359375;-1.0108795166015625;0.0008950884221121669;-0.0014261227333918214;0.00373135507106781
-0.11944580078125;0.0034332275390625;-1.00433349609375;0.0008950884221121669;-0.0014261227333918214;0.00373135507106781
-0.11944580078125;0.0034332275390625;-1.00433349609375;0.0008950884221121669;-0.0014261227333918214;0.00373135507106781
-0.11944580078125;0.0034332275390625;-1.00433349609375;0.0008950884221121669;-0.0014261227333918214;0.00373135507106781
-0.11944580078125;0.0034332275390625;-1.00433349609375;0.002840261207893491;-0.003579821204766631;0.0012420982820913196
-0.11944580078125;0.0034332275390625;-1.00433349609375;0.002840261207893491;-0.003579821204766631;0.0012420982820913196
-0.1191253662109375;0.00164794921875;-1.0039520263671875;0.002840261207893491;-0.003579821204766631;0.0012420982820913196
-0.1191253662109375;0.00164794921875;-1.0039520263671875;0.002840261207893491;-0.003579821204766631;0.0012420982820913196
-0.1191253662109375;0.00164794921875;-1.0039520263671875;0.002840261207893491;-0.003579821204766631;0.0012420982820913196
-0.1191253662109375;0.00164794921875;-1.0039520263671875;0.010963701643049717;-0.0010040117194876075;0.0021654162555933
-0.1191253662109375;0.00164794921875;-1.0039520263671875;0.010963701643049717;-0.0010040117194876075;0.0021654162555933
-0.118865966796875;0.0032196044921875;-1.0123291015625;0.010963701643049717;-0.0010040117194876075;0.0021654162555933
-0.118865966796875;0.0032196044921875;-1.0123291015625;0.010963701643049717;-0.0010040117194876075;0.0021654162555933
-0.118865966796875;0.0032196044921875;-1.0123291015625;0.010963701643049717;-0.0010040117194876075;0.0021654162555933
-0.118865966796875;0.0032196044921875;-1.0123291015625;0.013925403356552124;-0.004316984210163355;0.002174204681068659
-0.118865966796875;0.0032196044921875;-1.0123291015625;0.013925403356552124;-0.004316984210163355;0.002174204681068659
-0.118499755859375;0.0038604736328125;-1.01483154296875;0.013925403356552124;-0.004316984210163355;0.002174204681068659
-0.118499755859375;0.0038604736328125;-1.01483154296875;0.013925403356552124;-0.004316984210163355;0.002174204681068659
-0.118499755859375;0.0038604736328125;-1.01483154296875;0.013925403356552124;-0.004316984210163355;0.002174204681068659
-0.118499755859375;0.0038604736328125;-1.01483154296875;0.010100305080413818;-0.0013622068800032139;0.0009622001089155674
-0.118499755859375;0.0038604736328125;-1.01483154296875;0.010100305080413818;-0.0013622068800032139;0.0009622001089155674
-0.1181488037109375;0.0031585693359375;-1.0106658935546875;0.010100305080413818;-0.0013622068800032139;0.0009622001089155674
-0.1181488037109375;0.0031585693359375;-1.0106658935546875;0.010100305080413818;-0.0013622068800032139;0.0009622001089155674
-0.1181488037109375;0.0031585693359375;-1.0106658935546875;0.010100305080413818;-0.0013622068800032139;0.0009622001089155674
-0.1181488037109375;0.0031585693359375;-1.0106658935546875;0.007258978206664324;0.00022210762836039066;0.00022184131375979632
-0.1181488037109375;0.0031585693359375;-1.0106658935546875;0.007258978206664324;0.00022210762836039066;0.00022184131375979632
-0.118438720703125;0.0012664794921875;-1.0075836181640625;0.007258978206664324;0.00022210762836039066;0.00022184131375979632
-0.118438720703125;0.0012664794921875;-1.0075836181640625;0.007258978206664324;0.00022210762836039066;0.00022184131375979632
-0.118438720703125;0.0012664794921875;-1.0075836181640625;0.007258978206664324;0.00022210762836039066;0.00022184131375979632
-0.118438720703125;0.0012664794921875;-1.0075836181640625;0.00654551712796092;-0.0019302591681480408;0.0029108349699527025
-0.118438720703125;0.0012664794921875;-1.0075836181640625;0.00654551712796092;-0.0019302591681480408;0.0029108349699527025
-0.1182403564453125;0.0006103515625;-1.0076446533203125;0.00654551712796092;-0.0019302591681480408;0.0029108349699527025
-0.1182403564453125;0.0006103515625;-1.0076446533203125;0.00654551712796092;-0.0019302591681480408;0.0029108349699527025
-0.1182403564453125;0.0006103515625;-1.0076446533203125;0.00654551712796092;-0.0019302591681480408;0.0029108349699527025
-0.1182403564453125;0.0006103515625;-1.0076446533203125;0.004886367823928595;-0.0010487528052181005;0.00390259618870914
-0.1182403564453125;0.0006103515625;-1.0076446533203125;0.004886367823928595;-0.0010487528052181005;0.00390259618870914
-0.1183319091796875;-0.00079345703125;-1.010040283203125;0.004886367823928595;-0.0010487528052181005;0.00390259618870914
-0.1183319091796875;-0.00079345703125;-1.010040283203125;0.004886367823928595;-0.0010487528052181005;0.00390259618870914
-0.1183319091796875;-0.00079345703125;-1.010040283203125;0.004886367823928595;-0.0010487528052181005;0.00390259618870914
-0.1183319091796875;-0.00079345703125;-1.010040283203125;-0.013605291023850441;-0.009608418680727482;0.0003051982494071126
-0.1183319091796875;-0.00079345703125;-1.010040283203125;-0.013605291023850441;-0.009608418680727482;0.0003051982494071126
-0.1175994873046875;-0.0023345947265625;-1.009521484375;-0.013605291023850441;-0.009608418680727482;0.0003051982494071126
-0.1175994873046875;-0.0023345947265625;-1.009521484375;-0.013605291023850441;-0.009608418680727482;0.0003051982494071126
-0.1175994873046875;-0.0023345947265625;-1.009521484375;-0.013605291023850441;-0.009608418680727482;0.0003051982494071126
-0.1175994873046875;-0.0023345947265625;-1.009521484375;-0.032708145678043365;-0.012459865771234035;0.0038213697262108326
-0.1175994873046875;-0.0023345947265625;-1.009521484375;-0.032708145678043365;-0.012459865771234035;0.0038213697262108326
-0.117218017578125;-0.0050048828125;-1.0005950927734375;-0.032708145678043365;-0.012459865771234035;0.0038213697262108326
-0.117218017578125;-0.0050048828125;-1.0005950927734375;-0.032708145678043365;-0.012459865771234035;0.0038213697262108326
-0.117218017578125;-0.0050048828125;-1.0005950927734375;-0.032708145678043365;-0.012459865771234035;0.0038213697262108326
-0.117218017578125;-0.0050048828125;-1.0005950927734375;-0.03641100600361824;-0.011027617380023003;0.005249889567494392
-0.117218017578125;-0.0050048828125;-1.0005950927734375;-0.03641100600361824;-0.011027617380023003;0.005249889567494392
-0.115875244140625;-0.00506591796875;-0.998504638671875;-0.03641100600361824;-0.011027617380023003;0.005249889567494392
-0.115875244140625;-0.00506591796875;-0.998504638671875;-0.03641100600361824;-0.011027617380023003;0.005249889567494392
-0.115875244140625;-0.00506591796875;-0.998504638671875;-0.03641100600361824;-0.011027617380023003;0.005249889567494392
-0.115875244140625;-0.00506591796875;-0.998504638671875;-0.009259012527763844;-0.008035821840167046;0.006356166675686836
-0.115875244140625;-0.00506591796875;-0.998504638671875;-0.009259012527763844;-0.008035821840167046;0.006356166675686836
-0.115814208984375;0.0024261474609375;-1.0129241943359375;-0.009259012527763844;-0.008035821840167046;0.006356166675686836
-0.115814208984375;0.0024261474609375;-1.0129241943359375;-0.009259012527763844;-0.008035821840167046;0.006356166675686836
-0.115814208984375;0.0024261474609375;-1.0129241943359375;-0.009259012527763844;-0.008035821840167046;0.006356166675686836
-0.115814208984375;0.0024261474609375;-1.0129241943359375;0.008510131388902664;-0.016765929758548737;0.00637960247695446
-0.115814208984375;0.0024261474609375;-1.0129241943359375;0.008510131388902664;-0.016765929758548737;0.00637960247695446
-0.11822509765625;0.0089569091796875;-1.0225677490234375;0.008510131388902664;-0.016765929758548737;0.00637960247695446
-0.11822509765625;0.0089569091796875;-1.0225677490234375;0.008510131388902664;-0.016765929758548737;0.00637960247695446
-0.11822509765625;0.0089569091796875;-1.0225677490234375;0.008510131388902664;-0.016765929758548737;0.00637960247695446
-0.11822509765625;0.0089569091796875;-1.0225677490234375;-0.007001183927059174;-0.008313057012856007;0.003114833263680339
-0.11822509765625;0.0089569091796875;-1.0225677490234375;-0.007001183927059174;-0.008313057012856007;0.003114833263680339
-0.120758056640625;0.0086669921875;-1.0156402587890625;-0.007001183927059174;-0.008313057012856007;0.003114833263680339
-0.120758056640625;0.0086669921875;-1.0156402587890625;-0.007001183927059174;-0.008313057012856007;0.003114833263680339
-0.120758056640625;0.0086669921875;-1.0156402587890625;-0.007001183927059174;-0.008313057012856007;0.003114833263680339
-0.120758056640625;0.0086669921875;-1.0156402587890625;-0.02310558594763279;-0.008326373063027859;0.0023190807551145554
-0.120758056640625;0.0086669921875;-1.0156402587890625;-0.02310558594763279;-0.008326373063027859;0.0023190807551145554
-0.1221923828125;0.0031280517578125;-0.9952239990234375;-0.02310558594763279;-0.008326373063027859;0.0023190807551145554
-0.1221923828125;0.0031280517578125;-0.9952239990234375;-0.02310558594763279;-0.008326373063027859;0.0023190807551145554
-0.1221923828125;0.0031280517578125;-0.9952239990234375;-0.02310558594763279;-0.008326373063027859;0.0023190807551145554
-0.1221923828125;0.0031280517578125;-0.9952239990234375;-0.004533232655376196;-0.023968715220689774;0.0007004113867878914
-0.1221923828125;0.0031280517578125;-0.9952239990234375;-0.004533232655376196;-0.023968715220689774;0.0007004113867878914
-0.1199798583984375;0.00262451171875;-1.0055084228515625;-0.004533232655376196;-0.023968715220689774;0.0007004113867878914
-0.1199798583984375;0.00262451171875;-1.0055084228515625;-0.004533232655376196;-0.023968715220689774;0.0007004113867878914
-0.1199798583984375;0.00262451171875;-1.0055084228515625;-0.004533232655376196;-0.023968715220689774;0.0007004113867878914
-0.1199798583984375;0.00262451171875;-1.0055084228515625;0.006876548286527395;-0.03189348429441452;0.004251203965395689
-0.1199798583984375;0.00262451171875;-1.0055084228515625;0.006876548286527395;-0.03189348429441452;0.004251203965395689
-0.11761474609375;0.0072479248046875;-1.022216796875;0.006876548286527395;-0.03189348429441452;0.004251203965395689
-0.11761474609375;0.0072479248046875;-1.022216796875;0.006876548286527395;-0.03189348429441452;0.004251203965395689
-0.11761474609375;0.0072479248046875;-1.022216796875;0.006876548286527395;-0.03189348429441452;0.004251203965395689
-0.11761474609375;0.0072479248046875;-1.022216796875;0.005910619627684355;-0.0360000804066658;0.007128483150154352
-0.11761474609375;0.0072479248046875;-1.022216796875;0.005910619627684355;-0.0360000804066658;0.007128483150154352
-0.1200103759765625;0.008697509765625;-1.017547607421875;0.005910619627684355;-0.0360000804066658;0.007128483150154352
-0.1200103759765625;0.008697509765625;-1.017547607421875;0.005910619627684355;-0.0360000804066658;0.007128483150154352
-0.1200103759765625;0.008697509765625;-1.017547607421875;0.005910619627684355;-0.0360000804066658;0.007128483150154352
-0.1200103759765625;0.008697509765625;-1.017547607421875;-0.003852528752759099;-0.03531910851597786;0.0059966398403048515
-0.1200103759765625;0.008697509765625;-1.017547607421875;-0.003852528752759099;-0.03531910851597786;0.0059966398403048515
-0.1238861083984375;0.00555419921875;-1.01202392578125;-0.003852528752759099;-0.03531910851597786;0.0059966398403048515
-0.1238861083984375;0.00555419921875;-1.01202392578125;-0.003852528752759099;-0.03531910851597786;0.0059966398403048515
-0.1238861083984375;0.00555419921875;-1.01202392578125;-0.003852528752759099;-0.03531910851597786;0.0059966398403048515
-0.1238861083984375;0.00555419921875;-1.01202392578125;0.0003779025573749095;-0.026371419429779053;0.005927930120378733
-0.1238861083984375;0.00555419921875;-1.01202392578125;0.0003779025573749095;-0.026371419429779053;0.005927930120378733
-0.12451171875;-6.103515625e-05;-1.0139923095703125;0.0003779025573749095;-0.026371419429779053;0.005927930120378733
-0.12451171875;-6.103515625e-05;-1.0139923095703125;0.0003779025573749095;-0.026371419429779053;0.005927930120378733
-0.12451171875;-6.103515625e-05;-1.0139923095703125;0.0003779025573749095;-0.026371419429779053;0.005927930120378733
-0.12451171875;-6.103515625e-05;-1.0139923095703125;-0.0028639633674174547;-0.012930446304380894;0.004483431577682495
-0.12451171875;-6.103515625e-05;-1.0139923095703125;-0.0028639633674174547;-0.012930446304380894;0.004483431577682495
-0.1231842041015625;-0.003631591796875;-1.013031005859375;-0.0028639633674174547;-0.012930446304380894;0.004483431577682495
-0.1231842041015625;-0.003631591796875;-1.013031005859375;-0.0028639633674174547;-0.012930446304380894;0.004483431577682495
-0.1231842041015625;-0.003631591796875;-1.013031005859375;-0.0028639633674174547;-0.012930446304380894;0.004483431577682495
-0.1231842041015625;-0.003631591796875;-1.013031005859375;-0.0041002025827765465;-0.010970626026391983;0.005486644338816404
-0.1231842041015625;-0.003631591796875;-1.013031005859375;-0.0041002025827765465;-0.010970626026391983;0.005486644338816404
-0.12139892578125;-0.0033416748046875;-1.0099029541015625;-0.0041002025827765465;-0.010970626026391983;0.005486644338816404
-0.12139892578125;-0.0033416748046875;-1.0099029541015625;-0.0041002025827765465;-0.010970626026391983;0.005486644338816404
-0.12139892578125;-0.0033416748046875;-1.0099029541015625;-0.0041002025827765465;-0.010970626026391983;0.005486644338816404
-0.12139892578125;-0.0033416748046875;-1.0099029541015625;-0.005303685087710619;-0.0076123797334730625;0.007217699196189642
-0.12139892578125;-0.0033416748046875;-1.0099029541015625;-0.005303685087710619;-0.0076123797334730625;0.007217699196189642
-0.120697021484375;-0.0013885498046875;-1.0104827880859375;-0.005303685087710619;-0.0076123797334730625;0.007217699196189642
-0.120697021484375;-0.0013885498046875;-1.0104827880859375;-0.005303685087710619;-0.0076123797334730625;0.007217699196189642
-0.120697021484375;-0.0013885498046875;-1.0104827880859375;-0.005303685087710619;-0.0076123797334730625;0.007217699196189642
-0.120697021484375;-0.0013885498046875;-1.0104827880859375;-0.0051995557732880116;-0.006380933802574873;0.005920739844441414
-0.120697021484375;-0.0013885498046875;-1.0104827880859375;-0.0051995557732880116;-0.006380933802574873;0.005920739844441414
-0.1185760498046875;0.00164794921875;-1.0126190185546875;-0.0051995557732880116;-0.006380933802574873;0.005920739844441414
-0.1185760498046875;0.00164794921875;-1.0126190185546875;-0.0051995557732880116;-0.006380933802574873;0.005920739844441414
-0.1185760498046875;0.00164794921875;-1.0126190185546875;-0.0051995557732880116;-0.006380933802574873;0.005920739844441414
-0.1185760498046875;0.00164794921875;-1.0126190185546875;-0.007479487918317318;-0.005937517620623112;0.004364654887467623
-0.1185760498046875;0.00164794921875;-1.0126190185546875;-0.007479487918317318;-0.005937517620623112;0.004364654887467623
-0.11956787109375;0.0028076171875;-1.0108642578125;-0.007479487918317318;-0.005937517620623112;0.004364654887467623
-0.11956787109375;0.0028076171875;-1.0108642578125;-0.007479487918317318;-0.005937517620623112;0.004364654887467623
-0.11956787109375;0.0028076171875;-1.0108642578125;-0.007479487918317318;-0.005937517620623112;0.004364654887467623
-0.11956787109375;0.0028076171875;-1.0108642578125;-0.00202320353128016;-0.004151335451751947;0.006459497381001711
-0.11956787109375;0.0028076171875;-1.0108642578125;-0.00202320353128016;-0.004151335451751947;0.006459497381001711
-0.1218109130859375;0.004364013671875;-1.0099334716796875;-0.00202320353128016;-0.004151335451751947;0.006459497381001711
-0.1218109130859375;0.004364013671875;-1.0099334716796875;-0.00202320353128016;-0.004151335451751947;0.006459497381001711
-0.1218109130859375;0.004364013671875;-1.0099334716796875;-0.00202320353128016;-0.004151335451751947;0.006459497381001711
-0.1218109130859375;0.004364013671875;-1.0099334716796875;0.0008681904873810709;0.003177151083946228;0.0033270870335400105
-0.1218109130859375;0.004364013671875;-1.0099334716796875;0.0008681904873810709;0.003177151083946228;0.0033270870335400105
-0.1224212646484375;0.004974365234375;-1.0061492919921875;0.0008681904873810709;0.003177151083946228;0.0033270870335400105
-0.1224212646484375;0.004974365234375;-1.0061492919921875;0.0008681904873810709;0.003177151083946228;0.0033270870335400105
-0.1224212646484375;0.004974365234375;-1.0061492919921875;0.0008681904873810709;0.003177151083946228;0.0033270870335400105
-0.1224212646484375;0.004974365234375;-1.0061492919921875;0.0016793893883004785;-0.0020248014479875565;0.0029377329628914595
-0.1224212646484375;0.004974365234375;-1.0061492919921875;0.0016793893883004785;-0.0020248014479875565;0.0029377329628914595
-0.1204833984375;0.005645751953125;-1.0050048828125;0.0016793893883004785;-0.0020248014479875565;0.0029377329628914595
-0.1204833984375;0.005645751953125;-1.0050048828125;0.0016793893883004785;-0.0020248014479875565;0.0029377329628914595
-0.1204833984375;0.005645751953125;-1.0050048828125;0.0016793893883004785;-0.0020248014479875565;0.0029377329628914595
-0.1204833984375;0.005645751953125;-1.0050048828125;-0.002460494404658675;-0.008922388777136803;0.0012476909905672073
-0.1204833984375;0.005645751953125;-1.0050048828125;-0.002460494404658675;-0.008922388777136803;0.0012476909905672073
-0.1177520751953125;0.0065765380859375;-1.0107269287109375;-0.002460494404658675;-0.008922388777136803;0.0012476909905672073
-0.1177520751953125;0.0065765380859375;-1.0107269287109375;-0.002460494404658675;-0.008922388777136803;0.0012476909905672073
-0.1177520751953125;0.0065765380859375;-1.0107269287109375;-0.002460494404658675;-0.008922388777136803;0.0012476909905672073
-0.1177520751953125;0.0065765380859375;-1.0107269287109375;-0.003704190719872713;-0.013452958315610886;-0.001755023142322898
-0.1177520751953125;0.0065765380859375;-1.0107269287109375;-0.003704190719872713;-0.013452958315610886;-0.001755023142322898
-0.11602783203125;0.0070037841796875;-1.0124969482421875;-0.003704190719872713;-0.013452958315610886;-0.001755023142322898
-0.11602783203125;0.0070037841796875;-1.0124969482421875;-0.003704190719872713;-0.013452958315610886;-0.001755023142322898
-0.11602783203125;0.0070037841796875;-1.0124969482421875;-0.0025063008069992065;-0.010635067708790302;-0.003090598387643695
-0.11602783203125;0.0070037841796875;-1.0124969482421875;-0.0025063008069992065;-0.010635067708790302;-0.003090598387643695
-0.11602783203125;0.0070037841796875;-1.0124969482421875;-0.0025063008069992065;-0.010635067708790302;-0.003090598387643695
-0.115997314453125;0.0056304931640625;-1.0098876953125;-0.0025063008069992065;-0.010635067708790302;-0.003090598387643695
-0.115997314453125;0.0056304931640625;-1.0098876953125;-0.0025063008069992065;-0.010635067708790302;-0.003090598387643695
-0.115997314453125;0.0056304931640625;-1.0098876953125;-0.0025063008069992065;-0.010635067708790302;-0.003090598387643695
-0.115997314453125;0.0056304931640625;-1.0098876953125;-0.000595216522924602;-0.007484814152121544;-0.0016887104138731956
-0.115997314453125;0.0056304931640625;-1.0098876953125;-0.000595216522924602;-0.007484814152121544;-0.0016887104138731956
-0.1182708740234375;0.0035247802734375;-1.00494384765625;-0.000595216522924602;-0.007484814152121544;-0.0016887104138731956
-0.1182708740234375;0.0035247802734375;-1.00494384765625;-0.000595216522924602;-0.007484814152121544;-0.0016887104138731956
-0.1182708740234375;0.0035247802734375;-1.00494384765625;0.007397462613880634;-0.015564844943583012;-0.00018109494703821838
-0.1182708740234375;0.0035247802734375;-1.00494384765625;0.007397462613880634;-0.015564844943583012;-0.00018109494703821838
-0.1182708740234375;0.0035247802734375;-1.00494384765625;0.007397462613880634;-0.015564844943583012;-0.00018109494703821838
-0.119110107421875;0.0024261474609375;-1.0064239501953125;0.007397462613880634;-0.015564844943583012;-0.00018109494703821838
-0.119110107421875;0.0024261474609375;-1.0064239501953125;0.007397462613880634;-0.015564844943583012;-0.00018109494703821838
-0.119110107421875;0.0024261474609375;-1.0064239501953125;0.008243282325565815;-0.013757890090346336;0.00472498033195734
-0.119110107421875;0.0024261474609375;-1.0064239501953125;0.008243282325565815;-0.013757890090346336;0.00472498033195734
-0.1197967529296875;0.0027618408203125;-1.0092620849609375;0.008243282325565815;-0.013757890090346336;0.00472498033195734
-0.1197967529296875;0.0027618408203125;-1.0092620849609375;0.008243282325565815;-0.013757890090346336;0.00472498033195734
-0.1197967529296875;0.0027618408203125;-1.0092620849609375;0.008243282325565815;-0.013757890090346336;0.00472498033195734
-0.1197967529296875;0.0027618408203125;-1.0092620849609375;0.008971123956143856;-0.005903961602598429;0.006527407560497522
-0.1197967529296875;0.0027618408203125;-1.0092620849609375;0.008971123956143856;-0.005903961602598429;0.006527407560497522
-0.1223602294921875;0.0044097900390625;-1.009735107421875;0.008971123956143856;-0.005903961602598429;0.006527407560497522
-0.1223602294921875;0.0044097900390625;-1.009735107421875;0.008971123956143856;-0.005903961602598429;0.006527407560497522
-0.1223602294921875;0.0044097900390625;-1.009735107421875;0.008971123956143856;-0.005903961602598429;0.006527407560497522
-0.1223602294921875;0.0044097900390625;-1.009735107421875;0.003823234001174569;-0.005650694947689772;0.005379585549235344
-0.1223602294921875;0.0044097900390625;-1.009735107421875;0.003823234001174569;-0.005650694947689772;0.005379585549235344
-0.1223602294921875;0.0044097900390625;-1.009735107421875;0.003823234001174569;-0.005650694947689772;0.005379585549235344
-0.122833251953125;0.002960205078125;-1.0071563720703125;0.003823234001174569;-0.005650694947689772;0.005379585549235344
-0.122833251953125;0.002960205078125;-1.0071563720703125;0.003823234001174569;-0.005650694947689772;0.005379585549235344
-0.122833251953125;0.002960205078125;-1.0071563720703125;0.0008005462004803121;-0.005474127363413572;0.002942526713013649
-0.122833251953125;0.002960205078125;-1.0071563720703125;0.0008005462004803121;-0.005474127363413572;0.002942526713013649
-0.121490478515625;0.001922607421875;-1.005584716796875;0.0008005462004803121;-0.005474127363413572;0.002942526713013649
-0.121490478515625;0.001922607421875;-1.005584716796875;0.0008005462004803121;-0.005474127363413572;0.002942526713013649
-0.121490478515625;0.001922607421875;-1.005584716796875;0.0008005462004803121;-0.005474127363413572;0.002942526713013649
-0.121490478515625;0.001922607421875;-1.005584716796875;-0.0018524948973208666;-0.004421113524585962;0.002877545543015003
-0.121490478515625;0.001922607421875;-1.005584716796875;-0.0018524948973208666;-0.004421113524585962;0.002877545543015003
-0.1202392578125;0.002105712890625;-1.007720947265625;-0.0018524948973208666;-0.004421113524585962;0.002877545543015003
-0.1202392578125;0.002105712890625;-1.007720947265625;-0.0018524948973208666;-0.004421113524585962;0.002877545543015003
-0.1202392578125;0.002105712890625;-1.007720947265625;-0.0018524948973208666;-0.004421113524585962;0.002877545543015003
-0.1202392578125;0.002105712890625;-1.007720947265625;-0.002683401107788086;-0.003981159534305334;0.007185474969446659
-0.1202392578125;0.002105712890625;-1.007720947265625;-0.002683401107788086;-0.003981159534305334;0.007185474969446659
-0.1202392578125;0.002197265625;-1.0087432861328125;-0.002683401107788086;-0.003981159534305334;0.007185474969446659
-0.1202392578125;0.002197265625;-1.0087432861328125;-0.002683401107788086;-0.003981159534305334;0.007185474969446659
-0.1202392578125;0.002197265625;-1.0087432861328125;-0.002683401107788086;-0.003981159534305334;0.007185474969446659
-0.1202392578125;0.002197265625;-1.0087432861328125;-0.005079447291791439;-0.0024546354543417692;0.0018423747969791293
-0.1202392578125;0.002197265625;-1.0087432861328125;-0.005079447291791439;-0.0024546354543417692;0.0018423747969791293
-0.1214141845703125;0.0029144287109375;-1.0084381103515625;-0.005079447291791439;-0.0024546354543417692;0.0018423747969791293
-0.1214141845703125;0.0029144287109375;-1.0084381103515625;-0.005079447291791439;-0.0024546354543417692;0.0018423747969791293
-0.1214141845703125;0.0029144287109375;-1.0084381103515625;-0.005079447291791439;-0.0024546354543417692;0.0018423747969791293
-0.1214141845703125;0.0029144287109375;-1.0084381103515625;-0.006463758181780577;-0.005356948357075453;0.000782436749432236
-0.1214141845703125;0.0029144287109375;-1.0084381103515625;-0.006463758181780577;-0.005356948357075453;0.000782436749432236
-0.1214141845703125;0.0029144287109375;-1.0084381103515625;-0.006463758181780577;-0.005356948357075453;0.000782436749432236
-0.1236572265625;0.0024871826171875;-1.0076904296875;-0.006463758181780577;-0.005356948357075453;0.000782436749432236
-0.1236572265625;0.0024871826171875;-1.0076904296875;-0.006463758181780577;-0.005356948357075453;0.000782436749432236
-0.1236572265625;0.0024871826171875;-1.0076904296875;-0.00635030772536993;-0.003742273896932602;0.002498843939974904
-0.1236572265625;0.0024871826171875;-1.0076904296875;-0.00635030772536993;-0.003742273896932602;0.002498843939974904
-0.1235809326171875;0.00140380859375;-1.007171630859375;-0.00635030772536993;-0.003742273896932602;0.002498843939974904
-0.1235809326171875;0.00140380859375;-1.007171630859375;-0.00635030772536993;-0.003742273896932602;0.002498843939974904
-0.1235809326171875;0.00140380859375;-1.007171630859375;-0.00635030772536993;-0.003742273896932602;0.002498843939974904
-0.1235809326171875;0.00140380859375;-1.007171630859375;-0.0037268276792019606;-0.0034876756835728884;0.0015632755821570754
-0.1235809326171875;0.00140380859375;-1.007171630859375;-0.0037268276792019606;-0.0034876756835728884;0.0015632755821570754
-0.122467041015625;0.0023956298828125;-1.008148193359375;-0.0037268276792019606;-0.0034876756835728884;0.0015632755821570754
-0.122467041015625;0.0023956298828125;-1.008148193359375;-0.0037268276792019606;-0.0034876756835728884;0.0015632755821570754
-0.122467041015625;0.0023956298828125;-1.008148193359375;-0.0037268276792019606;-0.0034876756835728884;0.0015632755821570754
-0.122467041015625;0.0023956298828125;-1.008148193359375;-0.004500475712120533;-0.0010365023044869304;0.00027856664382852614
-0.122467041015625;0.0023956298828125;-1.008148193359375;-0.004500475712120533;-0.0010365023044869304;0.00027856664382852614
-0.121917724609375;0.0032806396484375;-1.0099945068359375;-0.004500475712120533;-0.0010365023044869304;0.00027856664382852614
-0.121917724609375;0.0032806396484375;-1.0099945068359375;-0.004500475712120533;-0.0010365023044869304;0.00027856664382852614
-0.121917724609375;0.0032806396484375;-1.0099945068359375;-0.004500475712120533;-0.0010365023044869304;0.00027856664382852614
-0.121917724609375;0.0032806396484375;-1.0099945068359375;-0.005624596029520035;-0.0036724992096424103;0.002448510378599167
-0.121917724609375;0.0032806396484375;-1.0099945068359375;-0.005624596029520035;-0.0036724992096424103;0.002448510378599167
-0.1201019287109375;0.0047760009765625;-1.011260986328125;-0.005624596029520035;-0.0036724992096424103;0.002448510378599167
-0.1201019287109375;0.0047760009765625;-1.011260986328125;-0.005624596029520035;-0.0036724992096424103;0.002448510378599167
-0.1201019287109375;0.0047760009765625;-1.011260986328125;-0.005624596029520035;-0.0036724992096424103;0.002448510378599167
-0.1201019287109375;0.0047760009765625;-1.011260986328125;-0.0036722328513860703;-0.00029640982393175364;0.0004886900424025953
-0.1201019287109375;0.0047760009765625;-1.011260986328125;-0.0036722328513860703;-0.00029640982393175364;0.0004886900424025953
-0.1206817626953125;0.0051422119140625;-1.0104217529296875;-0.0036722328513860703;-0.00029640982393175364;0.0004886900424025953
-0.1206817626953125;0.0051422119140625;-1.0104217529296875;-0.0036722328513860703;-0.00029640982393175364;0.0004886900424025953
-0.1206817626953125;0.0051422119140625;-1.0104217529296875;-0.0036722328513860703;-0.00029640982393175364;0.0004886900424025953
-0.1206817626953125;0.0051422119140625;-1.0104217529296875;-0.0009179916232824326;0.0009036105475388467;0.00011584750609472394
-0.1206817626953125;0.0051422119140625;-1.0104217529296875;-0.0009179916232824326;0.0009036105475388467;0.00011584750609472394
-0.120941162109375;0.0063629150390625;-1.0093536376953125;-0.0009179916232824326;0.0009036105475388467;0.00011584750609472394
-0.120941162109375;0.0063629150390625;-1.0093536376953125;-0.0009179916232824326;0.0009036105475388467;0.00011584750609472394
-0.120941162109375;0.0063629150390625;-1.0093536376953125;-0.0009179916232824326;0.0009036105475388467;0.00011584750609472394
-0.120941162109375;0.0063629150390625;-1.0093536376953125;0.0006325007416307926;0.007588677573949099;-0.00034221619716845453
-0.120941162109375;0.0063629150390625;-1.0093536376953125;0.0006325007416307926;0.007588677573949099;-0.00034221619716845453
-0.1206817626953125;0.006439208984375;-1.0111846923828125;0.0006325007416307926;0.007588677573949099;-0.00034221619716845453
-0.1206817626953125;0.006439208984375;-1.0111846923828125;0.0006325007416307926;0.007588677573949099;-0.00034221619716845453
-0.1206817626953125;0.006439208984375;-1.0111846923828125;0.0006325007416307926;0.007588677573949099;-0.00034221619716845453
-0.1206817626953125;0.006439208984375;-1.0111846923828125;0.0020876519847661257;0.00762782571837306;0.0033449302427470684
-0.1206817626953125;0.006439208984375;-1.0111846923828125;0.0020876519847661257;0.00762782571837306;0.0033449302427470684
-0.1208648681640625;0.005096435546875;-1.0113677978515625;0.0020876519847661257;0.00762782571837306;0.0033449302427470684
-0.1208648681640625;0.005096435546875;-1.0113677978515625;0.0020876519847661257;0.00762782571837306;0.0033449302427470684
-0.1208648681640625;0.005096435546875;-1.0113677978515625;0.0020876519847661257;0.00762782571837306;0.0033449302427470684
-0.1208648681640625;0.005096435546875;-1.0113677978515625;0.002892725635319948;0.007978830486536026;0.003310841741040349
-0.1208648681640625;0.005096435546875;-1.0113677978515625;0.002892725635319948;0.007978830486536026;0.003310841741040349
-0.12115478515625;0.005126953125;-1.0110015869140625;0.002892725635319948;0.007978830486536026;0.003310841741040349
-0.12115478515625;0.005126953125;-1.0110015869140625;0.002892725635319948;0.007978830486536026;0.003310841741040349
-0.12115478515625;0.005126953125;-1.0110015869140625;0.002892725635319948;0.007978830486536026;0.003310841741040349
-0.12115478515625;0.005126953125;-1.0110015869140625;0.0023347933311015368;0.007503456436097622;0.0026261431630700827
-0.12115478515625;0.005126953125;-1.0110015869140625;0.0023347933311015368;0.007503456436097622;0.0026261431630700827
-0.1207275390625;0.0043487548828125;-1.010223388671875;0.0023347933311015368;0.007503456436097622;0.0026261431630700827
-0.1207275390625;0.0043487548828125;-1.010223388671875;0.0023347933311015368;0.007503456436097622;0.0026261431630700827
-0.1207275390625;0.0043487548828125;-1.010223388671875;0.0023347933311015368;0.007503456436097622;0.0026261431630700827
-0.1207275390625;0.0043487548828125;-1.010223388671875;0.0018804579740390182;0.012687565758824348;0.00336197461001575
-0.1207275390625;0.0043487548828125;-1.010223388671875;0.0018804579740390182;0.012687565758824348;0.00336197461001575
-0.120574951171875;0.0026702880859375;-1.010986328125;0.0018804579740390182;0.012687565758824348;0.00336197461001575
-0.120574951171875;0.0026702880859375;-1.010986328125;0.0018804579740390182;0.012687565758824348;0.00336197461001575
-0.120574951171875;0.0026702880859375;-1.010986328125;0.0018804579740390182;0.012687565758824348;0.00336197461001575
-0.120574951171875;0.0026702880859375;-1.010986328125;0.004521248396486044;0.018459966406226158;0.001740109408274293
-0.120574951171875;0.0026702880859375;-1.010986328125;0.004521248396486044;0.018459966406226158;0.001740109408274293
-0.120086669921875;0.002288818359375;-1.0118255615234375;0.004521248396486044;0.018459966406226158;0.001740109408274293
-0.120086669921875;0.002288818359375;-1.0118255615234375;0.004521248396486044;0.018459966406226158;0.001740109408274293
-0.120086669921875;0.002288818359375;-1.0118255615234375;0.004521248396486044;0.018459966406226158;0.001740109408274293
-0.120086669921875;0.002288818359375;-1.0118255615234375;0.0010298443958163261;0.021190239116549492;-0.0017142767319455743
-0.120086669921875;0.002288818359375;-1.0118255615234375;0.0010298443958163261;0.021190239116549492;-0.0017142767319455743
-0.120086669921875;0.0006256103515625;-1.00994873046875;0.0010298443958163261;0.021190239116549492;-0.0017142767319455743
-0.120086669921875;0.0006256103515625;-1.00994873046875;0.0010298443958163261;0.021190239116549492;-0.0017142767319455743
-0.120086669921875;0.0006256103515625;-1.00994873046875;0.0010298443958163261;0.021190239116549492;-0.0017142767319455743
-0.120086669921875;0.0006256103515625;-1.00994873046875;0.0020152139477431774;0.02082059346139431;-0.0018136126454919577
-0.120086669921875;0.0006256103515625;-1.00994873046875;0.0020152139477431774;0.02082059346139431;-0.0018136126454919577
-0.1194610595703125;-7.62939453125e-05;-1.00750732421875;0.0020152139477431774;0.02082059346139431;-0.0018136126454919577
-0.1194610595703125;-7.62939453125e-05;-1.00750732421875;0.0020152139477431774;0.02082059346139431;-0.0018136126454919577
-0.1194610595703125;-7.62939453125e-05;-1.00750732421875;0.0020152139477431774;0.02082059346139431;-0.0018136126454919577
-0.1194610595703125;-7.62939453125e-05;-1.00750732421875;0.0035872780717909336;0.01853799819946289;0.0015385081060230732
-0.1194610595703125;-7.62939453125e-05;-1.00750732421875;0.0035872780717909336;0.01853799819946289;0.0015385081060230732
-0.1189422607421875;4.57763671875e-05;-1.008697509765625;0.0035872780717909336;0.01853799819946289;0.0015385081060230732
-0.1189422607421875;4.57763671875e-05;-1.008697509765625;0.0035872780717909336;0.01853799819946289;0.0015385081060230732
-0.1189422607421875;4.57763671875e-05;-1.008697509765625;0.0035872780717909336;0.01853799819946289;0.0015385081060230732
-0.1189422607421875;4.57763671875e-05;-1.008697509765625;0.0049707903526723385;0.015006380155682564;-0.002802977105602622
-0.1189422607421875;4.57763671875e-05;-1.008697509765625;0.0049707903526723385;0.015006380155682564;-0.002802977105602622
-0.1192779541015625;0.000213623046875;-1.0115966796875;0.0049707903526723385;0.015006380155682564;-0.002802977105602622
-0.1192779541015625;0.000213623046875;-1.0115966796875;0.0049707903526723385;0.015006380155682564;-0.002802977105602622
-0.1192779541015625;0.000213623046875;-1.0115966796875;0.0049707903526723385;0.015006380155682564;-0.002802977105602622
-0.1192779541015625;0.000213623046875;-1.0115966796875;0.007237672805786133;0.005402754992246628;-0.0027656927704811096
-0.1192779541015625;0.000213623046875;-1.0115966796875;0.007237672805786133;0.005402754992246628;-0.0027656927704811096
-0.1192169189453125;0.0014190673828125;-1.013458251953125;0.007237672805786133;0.005402754992246628;-0.0027656927704811096
-0.1192169189453125;0.0014190673828125;-1.013458251953125;0.007237672805786133;0.005402754992246628;-0.0027656927704811096
-0.1192169189453125;0.0014190673828125;-1.013458251953125;0.007237672805786133;0.005402754992246628;-0.0027656927704811096
-0.1192169189453125;0.0014190673828125;-1.013458251953125;0.004935103934258223;0.008013717830181122;-0.0020005665719509125
-0.1192169189453125;0.0014190673828125;-1.013458251953125;0.004935103934258223;0.008013717830181122;-0.0020005665719509125
-0.1194000244140625;0.00152587890625;-1.0125885009765625;0.004935103934258223;0.008013717830181122;-0.0020005665719509125
-0.1194000244140625;0.00152587890625;-1.0125885009765625;0.004935103934258223;0.008013717830181122;-0.0020005665719509125
-0.1194000244140625;0.00152587890625;-1.0125885009765625;0.004935103934258223;0.008013717830181122;-0.0020005665719509125
-0.1194000244140625;0.00152587890625;-1.0125885009765625;-0.00018801917030941695;0.006396912969648838;-0.0039265644736588
-0.1194000244140625;0.00152587890625;-1.0125885009765625;-0.00018801917030941695;0.006396912969648838;-0.0039265644736588
-0.12017822265625;0.0005645751953125;-1.00872802734375;-0.00018801917030941695;0.006396912969648838;-0.0039265644736588
-0.12017822265625;0.0005645751953125;-1.00872802734375;-0.00018801917030941695;0.006396912969648838;-0.0039265644736588
-0.12017822265625;0.0005645751953125;-1.00872802734375;-0.00018801917030941695;0.006396912969648838;-0.0039265644736588
-0.12017822265625;0.0005645751953125;-1.00872802734375;-0.004918059334158897;0.008289887569844723;-0.0008226504432968795
-0.12017822265625;0.0005645751953125;-1.00872802734375;-0.004918059334158897;0.008289887569844723;-0.0008226504432968795
-0.1180267333984375;0.0014190673828125;-0.999786376953125;-0.004918059334158897;0.008289887569844723;-0.0008226504432968795
-0.1180267333984375;0.0014190673828125;-0.999786376953125;-0.004918059334158897;0.008289887569844723;-0.0008226504432968795
-0.1180267333984375;0.0014190673828125;-0.999786376953125;-0.0038517299108207226;0.008787100203335285;-0.0009233179152943194
-0.1180267333984375;0.0014190673828125;-0.999786376953125;-0.0038517299108207226;0.008787100203335285;-0.0009233179152943194
-0.117095947265625;0.002593994140625;-0.99945068359375;-0.0038517299108207226;0.008787100203335285;-0.0009233179152943194
-0.117095947265625;0.002593994140625;-0.99945068359375;-0.0038517299108207226;0.008787100203335285;-0.0009233179152943194
-0.117095947265625;0.002593994140625;-0.99945068359375;-0.0038517299108207226;0.008787100203335285;-0.0009233179152943194
-0.117095947265625;0.002593994140625;-0.99945068359375;-0.0003680488734971732;0.0005816344055347145;-0.00141041015740484
-0.117095947265625;0.002593994140625;-0.99945068359375;-0.0003680488734971732;0.0005816344055347145;-0.00141041015740484
-0.1174163818359375;0.00653076171875;-1.008758544921875;-0.0003680488734971732;0.0005816344055347145;-0.00141041015740484
-0.1174163818359375;0.00653076171875;-1.008758544921875;-0.0003680488734971732;0.0005816344055347145;-0.00141041015740484
