Acell X;Acell Y;Acell Z;Gyro X;Gyro Y;Gyro Z

-0.007110595703125;-0.12152099609375;-1.0149993896484375;0.02635597437620163;-0.012830577790737152;0.004027232062071562
-0.007110595703125;-0.12152099609375;-1.0149993896484375;0.02635597437620163;-0.012830577790737152;0.004027232062071562
-0.00970458984375;-0.1271514892578125;-1.0153961181640625;0.02635597437620163;-0.012830577790737152;0.004027232062071562
-0.00970458984375;-0.1271514892578125;-1.0153961181640625;0.02635597437620163;-0.012830577790737152;0.004027232062071562
-0.00970458984375;-0.1271514892578125;-1.0153961181640625;0.02635597437620163;-0.012830577790737152;0.004027232062071562
-0.00970458984375;-0.1271514892578125;-1.0153961181640625;0.026755182072520256;-0.0051569449715316296;0.003582750679925084
-0.00970458984375;-0.1271514892578125;-1.0153961181640625;0.026755182072520256;-0.0051569449715316296;0.003582750679925084
-0.0103302001953125;-0.13043212890625;-1.0140380859375;0.026755182072520256;-0.0051569449715316296;0.003582750679925084
-0.0103302001953125;-0.13043212890625;-1.0140380859375;0.026755182072520256;-0.0051569449715316296;0.003582750679925084
-0.0103302001953125;-0.13043212890625;-1.0140380859375;0.026755182072520256;-0.0051569449715316296;0.003582750679925084
-0.0103302001953125;-0.13043212890625;-1.0140380859375;0.022128738462924957;-0.011493404395878315;0.004763063509017229
-0.0103302001953125;-0.13043212890625;-1.0140380859375;0.022128738462924957;-0.011493404395878315;0.004763063509017229
-0.009735107421875;-0.1326141357421875;-1.0146484375;0.022128738462924957;-0.011493404395878315;0.004763063509017229
-0.009735107421875;-0.1326141357421875;-1.0146484375;0.022128738462924957;-0.011493404395878315;0.004763063509017229
-0.009735107421875;-0.1326141357421875;-1.0146484375;0.022128738462924957;-0.011493404395878315;0.004763063509017229
-0.009735107421875;-0.1326141357421875;-1.0146484375;0.018609104678034782;-0.017706824466586113;0.005151352379471064
-0.009735107421875;-0.1326141357421875;-1.0146484375;0.018609104678034782;-0.017706824466586113;0.005151352379471064
-0.006866455078125;-0.1319580078125;-1.0132904052734375;0.018609104678034782;-0.017706824466586113;0.005151352379471064
-0.006866455078125;-0.1319580078125;-1.0132904052734375;0.018609104678034782;-0.017706824466586113;0.005151352379471064
-0.006866455078125;-0.1319580078125;-1.0132904052734375;0.018609104678034782;-0.017706824466586113;0.005151352379471064
-0.006866455078125;-0.1319580078125;-1.0132904052734375;0.013228720054030418;-0.02604864537715912;0.009501625783741474
-0.006866455078125;-0.1319580078125;-1.0132904052734375;0.013228720054030418;-0.02604864537715912;0.009501625783741474
-0.00439453125;-0.1292572021484375;-1.00732421875;0.013228720054030418;-0.02604864537715912;0.009501625783741474
-0.00439453125;-0.1292572021484375;-1.00732421875;0.013228720054030418;-0.02604864537715912;0.009501625783741474
-0.00439453125;-0.1292572021484375;-1.00732421875;0.013228720054030418;-0.02604864537715912;0.009501625783741474
-0.00439453125;-0.1292572021484375;-1.00732421875;0.007987353019416332;-0.027877969667315483;0.007534615229815245
-0.00439453125;-0.1292572021484375;-1.00732421875;0.007987353019416332;-0.027877969667315483;0.007534615229815245
-0.00152587890625;-0.1253662109375;-1.0082244873046875;0.007987353019416332;-0.027877969667315483;0.007534615229815245
-0.00152587890625;-0.1253662109375;-1.0082244873046875;0.007987353019416332;-0.027877969667315483;0.007534615229815245
-0.00152587890625;-0.1253662109375;-1.0082244873046875;0.007987353019416332;-0.027877969667315483;0.007534615229815245
-0.00152587890625;-0.1253662109375;-1.0082244873046875;0.00529489666223526;-0.030791202560067177;0.006595850922167301
-0.00152587890625;-0.1253662109375;-1.0082244873046875;0.00529489666223526;-0.030791202560067177;0.006595850922167301
-0.0022430419921875;-0.1220245361328125;-1.00921630859375;0.00529489666223526;-0.030791202560067177;0.006595850922167301
-0.0022430419921875;-0.1220245361328125;-1.00921630859375;0.00529489666223526;-0.030791202560067177;0.006595850922167301
-0.0022430419921875;-0.1220245361328125;-1.00921630859375;0.00529489666223526;-0.030791202560067177;0.006595850922167301
-0.0022430419921875;-0.1220245361328125;-1.00921630859375;0.006292516831308603;-0.03235580772161484;0.003212837502360344
-0.0022430419921875;-0.1220245361328125;-1.00921630859375;0.006292516831308603;-0.03235580772161484;0.003212837502360344
-0.003509521484375;-0.1198272705078125;-1.006988525390625;0.006292516831308603;-0.03235580772161484;0.003212837502360344
-0.003509521484375;-0.1198272705078125;-1.006988525390625;0.006292516831308603;-0.03235580772161484;0.003212837502360344
-0.003509521484375;-0.1198272705078125;-1.006988525390625;0.00657534459605813;-0.03235527500510216;0.004403004422783852
-0.003509521484375;-0.1198272705078125;-1.006988525390625;0.00657534459605813;-0.03235527500510216;0.004403004422783852
-0.003509521484375;-0.1198272705078125;-1.006988525390625;0.00657534459605813;-0.03235527500510216;0.004403004422783852
-0.0044097900390625;-0.1171722412109375;-1.00445556640625;0.00657534459605813;-0.03235527500510216;0.004403004422783852
-0.0044097900390625;-0.1171722412109375;-1.00445556640625;0.00657534459605813;-0.03235527500510216;0.004403004422783852
-0.0044097900390625;-0.1171722412109375;-1.00445556640625;0.00657534459605813;-0.03235527500510216;0.004403004422783852
-0.0044097900390625;-0.1171722412109375;-1.00445556640625;0.011382883414626122;-0.019635220989584923;0.00024740767548792064
-0.0044097900390625;-0.1171722412109375;-1.00445556640625;0.011382883414626122;-0.019635220989584923;0.00024740767548792064
-0.0044403076171875;-0.116943359375;-1.0055694580078125;0.011382883414626122;-0.019635220989584923;0.00024740767548792064
-0.0044403076171875;-0.116943359375;-1.0055694580078125;0.011382883414626122;-0.019635220989584923;0.00024740767548792064
-0.0044403076171875;-0.116943359375;-1.0055694580078125;0.016383767127990723;-0.006077067460864782;1.0652644050423987e-05
-0.0044403076171875;-0.116943359375;-1.0055694580078125;0.016383767127990723;-0.006077067460864782;1.0652644050423987e-05
-0.0044403076171875;-0.116943359375;-1.0055694580078125;0.016383767127990723;-0.006077067460864782;1.0652644050423987e-05
-0.004730224609375;-0.11676025390625;-1.0087890625;0.016383767127990723;-0.006077067460864782;1.0652644050423987e-05
-0.004730224609375;-0.11676025390625;-1.0087890625;0.016383767127990723;-0.006077067460864782;1.0652644050423987e-05
-0.004730224609375;-0.11676025390625;-1.0087890625;0.016575248911976814;0.0027923244051635265;-0.0019773971289396286
-0.004730224609375;-0.11676025390625;-1.0087890625;0.016575248911976814;0.0027923244051635265;-0.0019773971289396286
-0.004730224609375;-0.11676025390625;-1.0087890625;0.016575248911976814;0.0027923244051635265;-0.0019773971289396286
-0.0048828125;-0.1186676025390625;-1.0084075927734375;0.016575248911976814;0.0027923244051635265;-0.0019773971289396286
-0.0048828125;-0.1186676025390625;-1.0084075927734375;0.016575248911976814;0.0027923244051635265;-0.0019773971289396286
-0.0048828125;-0.1186676025390625;-1.0084075927734375;0.013057478703558445;0.0005749764968641102;-0.00031664984999224544
-0.0048828125;-0.1186676025390625;-1.0084075927734375;0.013057478703558445;0.0005749764968641102;-0.00031664984999224544
-0.0048828125;-0.1186676025390625;-1.0084075927734375;0.013057478703558445;0.0005749764968641102;-0.00031664984999224544
-0.006195068359375;-0.120849609375;-1.0101776123046875;0.013057478703558445;0.0005749764968641102;-0.00031664984999224544
-0.006195068359375;-0.120849609375;-1.0101776123046875;0.013057478703558445;0.0005749764968641102;-0.00031664984999224544
-0.006195068359375;-0.120849609375;-1.0101776123046875;0.009147425182163715;-0.0076280920766294;-0.0027720844373106956
-0.006195068359375;-0.120849609375;-1.0101776123046875;0.009147425182163715;-0.0076280920766294;-0.0027720844373106956
-0.006195068359375;-0.120849609375;-1.0101776123046875;0.009147425182163715;-0.0076280920766294;-0.0027720844373106956
-0.0068206787109375;-0.1243896484375;-1.0115966796875;0.009147425182163715;-0.0076280920766294;-0.0027720844373106956
-0.0068206787109375;-0.1243896484375;-1.0115966796875;0.009147425182163715;-0.0076280920766294;-0.0027720844373106956
-0.0068206787109375;-0.1243896484375;-1.0115966796875;0.011212707497179508;-0.006254167295992374;0.0006966829532757401
-0.0068206787109375;-0.1243896484375;-1.0115966796875;0.011212707497179508;-0.006254167295992374;0.0006966829532757401
-0.007080078125;-0.12603759765625;-1.010009765625;0.011212707497179508;-0.006254167295992374;0.0006966829532757401
-0.007080078125;-0.12603759765625;-1.010009765625;0.011212707497179508;-0.006254167295992374;0.0006966829532757401
-0.007080078125;-0.12603759765625;-1.010009765625;0.011212707497179508;-0.006254167295992374;0.0006966829532757401
-0.007080078125;-0.12603759765625;-1.010009765625;0.012239355593919754;-0.0030740867368876934;-0.001517735538072884
-0.007080078125;-0.12603759765625;-1.010009765625;0.012239355593919754;-0.0030740867368876934;-0.001517735538072884
-0.0063934326171875;-0.127227783203125;-1.0109100341796875;0.012239355593919754;-0.0030740867368876934;-0.001517735538072884
-0.0063934326171875;-0.127227783203125;-1.0109100341796875;0.012239355593919754;-0.0030740867368876934;-0.001517735538072884
-0.0063934326171875;-0.127227783203125;-1.0109100341796875;0.012239355593919754;-0.0030740867368876934;-0.001517735538072884
-0.0063934326171875;-0.127227783203125;-1.0109100341796875;0.0144697530195117;0.0012546151410788298;-0.0016535567119717598
-0.0063934326171875;-0.127227783203125;-1.0109100341796875;0.0144697530195117;0.0012546151410788298;-0.0016535567119717598
-0.006439208984375;-0.1274566650390625;-1.0112152099609375;0.0144697530195117;0.0012546151410788298;-0.0016535567119717598
-0.006439208984375;-0.1274566650390625;-1.0112152099609375;0.0144697530195117;0.0012546151410788298;-0.0016535567119717598
-0.006439208984375;-0.1274566650390625;-1.0112152099609375;0.0144697530195117;0.0012546151410788298;-0.0016535567119717598
-0.006439208984375;-0.1274566650390625;-1.0112152099609375;0.014255368150770664;0.001228516222909093;0.0010269149206578732
-0.006439208984375;-0.1274566650390625;-1.0112152099609375;0.014255368150770664;0.001228516222909093;0.0010269149206578732
-0.00579833984375;-0.1280517578125;-1.010101318359375;0.014255368150770664;0.001228516222909093;0.0010269149206578732
-0.00579833984375;-0.1280517578125;-1.010101318359375;0.014255368150770664;0.001228516222909093;0.0010269149206578732
-0.00579833984375;-0.1280517578125;-1.010101318359375;0.014255368150770664;0.001228516222909093;0.0010269149206578732
-0.00579833984375;-0.1280517578125;-1.010101318359375;0.01065131276845932;-0.004319380968809128;0.002005626680329442
-0.00579833984375;-0.1280517578125;-1.010101318359375;0.01065131276845932;-0.004319380968809128;0.002005626680329442
-0.00579833984375;-0.1280517578125;-1.010101318359375;0.01065131276845932;-0.004319380968809128;0.002005626680329442
-0.0052337646484375;-0.12841796875;-1.0103912353515625;0.01065131276845932;-0.004319380968809128;0.002005626680329442
-0.0052337646484375;-0.12841796875;-1.0103912353515625;0.01065131276845932;-0.004319380968809128;0.002005626680329442
-0.0052337646484375;-0.12841796875;-1.0103912353515625;0.008580705150961876;-0.010142115876078606;0.005307413637638092
-0.0052337646484375;-0.12841796875;-1.0103912353515625;0.008580705150961876;-0.010142115876078606;0.005307413637638092
-0.004913330078125;-0.129547119140625;-1.0106964111328125;0.008580705150961876;-0.010142115876078606;0.005307413637638092
-0.004913330078125;-0.129547119140625;-1.0106964111328125;0.008580705150961876;-0.010142115876078606;0.005307413637638092
-0.004913330078125;-0.129547119140625;-1.0106964111328125;0.008580705150961876;-0.010142115876078606;0.005307413637638092
-0.004913330078125;-0.129547119140625;-1.0106964111328125;0.00959670078009367;-0.008448079228401184;0.003596598980948329
-0.004913330078125;-0.129547119140625;-1.0106964111328125;0.00959670078009367;-0.008448079228401184;0.003596598980948329
-0.0067901611328125;-0.12841796875;-1.009674072265625;0.00959670078009367;-0.008448079228401184;0.003596598980948329
-0.0067901611328125;-0.12841796875;-1.009674072265625;0.00959670078009367;-0.008448079228401184;0.003596598980948329
-0.0067901611328125;-0.12841796875;-1.009674072265625;0.00959670078009367;-0.008448079228401184;0.003596598980948329
-0.0067901611328125;-0.12841796875;-1.009674072265625;0.008273642510175705;-0.007657120935618877;0.0027292075101286173
-0.0067901611328125;-0.12841796875;-1.009674072265625;0.008273642510175705;-0.007657120935618877;0.0027292075101286173
-0.0072784423828125;-0.12799072265625;-1.009979248046875;0.008273642510175705;-0.007657120935618877;0.0027292075101286173
-0.0072784423828125;-0.12799072265625;-1.009979248046875;0.008273642510175705;-0.007657120935618877;0.0027292075101286173
-0.0072784423828125;-0.12799072265625;-1.009979248046875;0.008273642510175705;-0.007657120935618877;0.0027292075101286173
-0.0072784423828125;-0.12799072265625;-1.009979248046875;0.008258729241788387;-0.009495766833424568;0.0019592875614762306
-0.0072784423828125;-0.12799072265625;-1.009979248046875;0.008258729241788387;-0.009495766833424568;0.0019592875614762306
-0.0082550048828125;-0.1283416748046875;-1.0095367431640625;0.008258729241788387;-0.009495766833424568;0.0019592875614762306
-0.0082550048828125;-0.1283416748046875;-1.0095367431640625;0.008258729241788387;-0.009495766833424568;0.0019592875614762306
-0.0082550048828125;-0.1283416748046875;-1.0095367431640625;0.008258729241788387;-0.009495766833424568;0.0019592875614762306
-0.0082550048828125;-0.1283416748046875;-1.0095367431640625;0.008101069368422031;-0.0180509053170681;0.0030573089607059956
-0.0082550048828125;-0.1283416748046875;-1.0095367431640625;0.008101069368422031;-0.0180509053170681;0.0030573089607059956
-0.008819580078125;-0.1269073486328125;-1.0088348388671875;0.008101069368422031;-0.0180509053170681;0.0030573089607059956
-0.008819580078125;-0.1269073486328125;-1.0088348388671875;0.008101069368422031;-0.0180509053170681;0.0030573089607059956
-0.008819580078125;-0.1269073486328125;-1.0088348388671875;0.008101069368422031;-0.0180509053170681;0.0030573089607059956
-0.008819580078125;-0.1269073486328125;-1.0088348388671875;0.009035306982696056;-0.017839716747403145;0.003620034782215953
-0.008819580078125;-0.1269073486328125;-1.0088348388671875;0.009035306982696056;-0.017839716747403145;0.003620034782215953
-0.0097503662109375;-0.125457763671875;-1.0081787109375;0.009035306982696056;-0.017839716747403145;0.003620034782215953
-0.0097503662109375;-0.125457763671875;-1.0081787109375;0.009035306982696056;-0.017839716747403145;0.003620034782215953
-0.0097503662109375;-0.125457763671875;-1.0081787109375;0.009035306982696056;-0.017839716747403145;0.003620034782215953
-0.0097503662109375;-0.125457763671875;-1.0081787109375;0.008687498047947884;-0.016504675149917603;0.002621349412947893
-0.0097503662109375;-0.125457763671875;-1.0081787109375;0.008687498047947884;-0.016504675149917603;0.002621349412947893
-0.00958251953125;-0.12646484375;-1.0090179443359375;0.008687498047947884;-0.016504675149917603;0.002621349412947893
-0.00958251953125;-0.12646484375;-1.0090179443359375;0.008687498047947884;-0.016504675149917603;0.002621349412947893
-0.00958251953125;-0.12646484375;-1.0090179443359375;0.008687498047947884;-0.016504675149917603;0.002621349412947893
-0.00958251953125;-0.12646484375;-1.0090179443359375;0.008825981989502907;-0.017677797004580498;0.001710548298433423
-0.00958251953125;-0.12646484375;-1.0090179443359375;0.008825981989502907;-0.017677797004580498;0.001710548298433423
-0.0099639892578125;-0.126190185546875;-1.0093994140625;0.008825981989502907;-0.017677797004580498;0.001710548298433423
-0.0099639892578125;-0.126190185546875;-1.0093994140625;0.008825981989502907;-0.017677797004580498;0.001710548298433423
-0.0099639892578125;-0.126190185546875;-1.0093994140625;0.008825981989502907;-0.017677797004580498;0.001710548298433423
-0.0099639892578125;-0.126190185546875;-1.0093994140625;0.010157030075788498;-0.006436061579734087;0.0016527577536180615
-0.0099639892578125;-0.126190185546875;-1.0093994140625;0.010157030075788498;-0.006436061579734087;0.0016527577536180615
-0.0105133056640625;-0.1255340576171875;-1.00860595703125;0.010157030075788498;-0.006436061579734087;0.0016527577536180615
-0.0105133056640625;-0.1255340576171875;-1.00860595703125;0.010157030075788498;-0.006436061579734087;0.0016527577536180615
-0.0105133056640625;-0.1255340576171875;-1.00860595703125;0.010157030075788498;-0.006436061579734087;0.0016527577536180615
-0.0105133056640625;-0.1255340576171875;-1.00860595703125;0.010645720176398754;-0.008846488781273365;-0.0001246359315700829
-0.0105133056640625;-0.1255340576171875;-1.00860595703125;0.010645720176398754;-0.008846488781273365;-0.0001246359315700829
-0.011138916015625;-0.124298095703125;-1.0083770751953125;0.010645720176398754;-0.008846488781273365;-0.0001246359315700829
-0.011138916015625;-0.124298095703125;-1.0083770751953125;0.010645720176398754;-0.008846488781273365;-0.0001246359315700829
-0.011138916015625;-0.124298095703125;-1.0083770751953125;0.010645720176398754;-0.008846488781273365;-0.0001246359315700829
-0.011138916015625;-0.124298095703125;-1.0083770751953125;0.014033260755240917;-0.009611881338059902;0.00011824435205198824
-0.011138916015625;-0.124298095703125;-1.0083770751953125;0.014033260755240917;-0.009611881338059902;0.00011824435205198824
-0.0099945068359375;-0.1239471435546875;-1.010162353515625;0.014033260755240917;-0.009611881338059902;0.00011824435205198824
-0.0099945068359375;-0.1239471435546875;-1.010162353515625;0.014033260755240917;-0.009611881338059902;0.00011824435205198824
-0.0099945068359375;-0.1239471435546875;-1.010162353515625;0.014033260755240917;-0.009611881338059902;0.00011824435205198824
-0.0099945068359375;-0.1239471435546875;-1.010162353515625;0.007524761371314526;-0.00947872269898653;0.0027981833554804325
-0.0099945068359375;-0.1239471435546875;-1.010162353515625;0.007524761371314526;-0.00947872269898653;0.0027981833554804325
-0.0108642578125;-0.124908447265625;-1.010406494140625;0.007524761371314526;-0.00947872269898653;0.0027981833554804325
-0.0108642578125;-0.124908447265625;-1.010406494140625;0.007524761371314526;-0.00947872269898653;0.0027981833554804325
-0.0108642578125;-0.124908447265625;-1.010406494140625;0.007524761371314526;-0.00947872269898653;0.0027981833554804325
-0.0108642578125;-0.124908447265625;-1.010406494140625;0.010069145821034908;-0.01064891554415226;0.0028455876745283604
-0.0108642578125;-0.124908447265625;-1.010406494140625;0.010069145821034908;-0.01064891554415226;0.0028455876745283604
-0.010833740234375;-0.12457275390625;-1.010162353515625;0.010069145821034908;-0.01064891554415226;0.0028455876745283604
-0.010833740234375;-0.12457275390625;-1.010162353515625;0.010069145821034908;-0.01064891554415226;0.0028455876745283604
-0.010833740234375;-0.12457275390625;-1.010162353515625;0.010069145821034908;-0.01064891554415226;0.0028455876745283604
-0.010833740234375;-0.12457275390625;-1.010162353515625;0.009065666235983372;-0.0070187607780098915;-0.0012242551892995834
-0.010833740234375;-0.12457275390625;-1.010162353515625;0.009065666235983372;-0.0070187607780098915;-0.0012242551892995834
-0.0098114013671875;-0.125274658203125;-1.0097808837890625;0.009065666235983372;-0.0070187607780098915;-0.0012242551892995834
-0.0098114013671875;-0.125274658203125;-1.0097808837890625;0.009065666235983372;-0.0070187607780098915;-0.0012242551892995834
-0.0098114013671875;-0.125274658203125;-1.0097808837890625;0.009065666235983372;-0.0070187607780098915;-0.0012242551892995834
-0.0098114013671875;-0.125274658203125;-1.0097808837890625;0.011828429996967316;-0.007839281111955643;0.004297542851418257
-0.0098114013671875;-0.125274658203125;-1.0097808837890625;0.011828429996967316;-0.007839281111955643;0.004297542851418257
-0.00714111328125;-0.1259307861328125;-1.0084686279296875;0.011828429996967316;-0.007839281111955643;0.004297542851418257
-0.00714111328125;-0.1259307861328125;-1.0084686279296875;0.011828429996967316;-0.007839281111955643;0.004297542851418257
-0.00714111328125;-0.1259307861328125;-1.0084686279296875;0.011828429996967316;-0.007839281111955643;0.004297542851418257
-0.00714111328125;-0.1259307861328125;-1.0084686279296875;0.011096326634287834;-0.011441472917795181;0.004604339133948088
-0.00714111328125;-0.1259307861328125;-1.0084686279296875;0.011096326634287834;-0.011441472917795181;0.004604339133948088
-0.005584716796875;-0.1263580322265625;-1.007568359375;0.011096326634287834;-0.011441472917795181;0.004604339133948088
-0.005584716796875;-0.1263580322265625;-1.007568359375;0.011096326634287834;-0.011441472917795181;0.004604339133948088
-0.005584716796875;-0.1263580322265625;-1.007568359375;0.011096326634287834;-0.011441472917795181;0.004604339133948088
-0.005584716796875;-0.1263580322265625;-1.007568359375;0.015157913789153099;-0.014566692523658276;0.002034388715401292
-0.005584716796875;-0.1263580322265625;-1.007568359375;0.015157913789153099;-0.014566692523658276;0.002034388715401292
-0.0052337646484375;-0.1270904541015625;-1.0127105712890625;0.015157913789153099;-0.014566692523658276;0.002034388715401292
-0.0052337646484375;-0.1270904541015625;-1.0127105712890625;0.015157913789153099;-0.014566692523658276;0.002034388715401292
-0.0052337646484375;-0.1270904541015625;-1.0127105712890625;0.015157913789153099;-0.014566692523658276;0.002034388715401292
-0.0052337646484375;-0.1270904541015625;-1.0127105712890625;0.017976071685552597;-0.022969763725996017;0.0030605047941207886
-0.0052337646484375;-0.1270904541015625;-1.0127105712890625;0.017976071685552597;-0.022969763725996017;0.0030605047941207886
-0.0069122314453125;-0.1280059814453125;-1.0164031982421875;0.017976071685552597;-0.022969763725996017;0.0030605047941207886
-0.0069122314453125;-0.1280059814453125;-1.0164031982421875;0.017976071685552597;-0.022969763725996017;0.0030605047941207886
-0.0069122314453125;-0.1280059814453125;-1.0164031982421875;0.017976071685552597;-0.022969763725996017;0.0030605047941207886
-0.0069122314453125;-0.1280059814453125;-1.0164031982421875;0.014691061340272427;-0.017191769555211067;0.003481017891317606
-0.0069122314453125;-0.1280059814453125;-1.0164031982421875;0.014691061340272427;-0.017191769555211067;0.003481017891317606
-0.007720947265625;-0.129119873046875;-1.0125579833984375;0.014691061340272427;-0.017191769555211067;0.003481017891317606
-0.007720947265625;-0.129119873046875;-1.0125579833984375;0.014691061340272427;-0.017191769555211067;0.003481017891317606
-0.007720947265625;-0.129119873046875;-1.0125579833984375;0.014691061340272427;-0.017191769555211067;0.003481017891317606
-0.007720947265625;-0.129119873046875;-1.0125579833984375;0.013851100578904152;-0.012687033042311668;0.006464290898293257
-0.007720947265625;-0.129119873046875;-1.0125579833984375;0.013851100578904152;-0.012687033042311668;0.006464290898293257
-0.007598876953125;-0.130340576171875;-1.0068359375;0.013851100578904152;-0.012687033042311668;0.006464290898293257
-0.007598876953125;-0.130340576171875;-1.0068359375;0.013851100578904152;-0.012687033042311668;0.006464290898293257
-0.007598876953125;-0.130340576171875;-1.0068359375;0.013851100578904152;-0.012687033042311668;0.006464290898293257
-0.007598876953125;-0.130340576171875;-1.0068359375;0.011402057483792305;-0.0151986600831151;0.006743922829627991
-0.007598876953125;-0.130340576171875;-1.0068359375;0.011402057483792305;-0.0151986600831151;0.006743922829627991
-0.006744384765625;-0.1313323974609375;-1.007354736328125;0.011402057483792305;-0.0151986600831151;0.006743922829627991
-0.006744384765625;-0.1313323974609375;-1.007354736328125;0.011402057483792305;-0.0151986600831151;0.006743922829627991
-0.006744384765625;-0.1313323974609375;-1.007354736328125;0.011402057483792305;-0.0151986600831151;0.006743922829627991
-0.006744384765625;-0.1313323974609375;-1.007354736328125;0.00811811350286007;-0.01581411622464657;0.007562045939266682
-0.006744384765625;-0.1313323974609375;-1.007354736328125;0.00811811350286007;-0.01581411622464657;0.007562045939266682
-0.0060577392578125;-0.132171630859375;-1.0107421875;0.00811811350286007;-0.01581411622464657;0.007562045939266682
-0.0060577392578125;-0.132171630859375;-1.0107421875;0.00811811350286007;-0.01581411622464657;0.007562045939266682
-0.0060577392578125;-0.132171630859375;-1.0107421875;0.00811811350286007;-0.01581411622464657;0.007562045939266682
-0.0060577392578125;-0.132171630859375;-1.0107421875;0.0033446638844907284;0.0014319816837087274;0.007520766928792
-0.0060577392578125;-0.132171630859375;-1.0107421875;0.0033446638844907284;0.0014319816837087274;0.007520766928792
-0.006927490234375;-0.1310882568359375;-1.00225830078125;0.0033446638844907284;0.0014319816837087274;0.007520766928792
-0.006927490234375;-0.1310882568359375;-1.00225830078125;0.0033446638844907284;0.0014319816837087274;0.007520766928792
-0.006927490234375;-0.1310882568359375;-1.00225830078125;0.0033446638844907284;0.0014319816837087274;0.007520766928792
-0.006927490234375;-0.1310882568359375;-1.00225830078125;9.454221435589716e-05;0.0203982163220644;0.007637413218617439
-0.006927490234375;-0.1310882568359375;-1.00225830078125;9.454221435589716e-05;0.0203982163220644;0.007637413218617439
-0.006744384765625;-0.1288604736328125;-0.9852752685546875;9.454221435589716e-05;0.0203982163220644;0.007637413218617439
-0.006744384765625;-0.1288604736328125;-0.9852752685546875;9.454221435589716e-05;0.0203982163220644;0.007637413218617439
-0.006744384765625;-0.1288604736328125;-0.9852752685546875;9.454221435589716e-05;0.0203982163220644;0.007637413218617439
-0.006744384765625;-0.1288604736328125;-0.9852752685546875;0.02040993422269821;0.0036764938849955797;0.007225688546895981
-0.006744384765625;-0.1288604736328125;-0.9852752685546875;0.02040993422269821;0.0036764938849955797;0.007225688546895981
-0.0063629150390625;-0.126434326171875;-1.0099639892578125;0.02040993422269821;0.0036764938849955797;0.007225688546895981
-0.0063629150390625;-0.126434326171875;-1.0099639892578125;0.02040993422269821;0.0036764938849955797;0.007225688546895981
-0.0063629150390625;-0.126434326171875;-1.0099639892578125;0.02040993422269821;0.0036764938849955797;0.007225688546895981
-0.0063629150390625;-0.126434326171875;-1.0099639892578125;0.03253557160496712;-0.01716007851064205;0.0052208611741662025
-0.0063629150390625;-0.126434326171875;-1.0099639892578125;0.03253557160496712;-0.01716007851064205;0.0052208611741662025
-0.0090179443359375;-0.124176025390625;-1.0318756103515625;0.03253557160496712;-0.01716007851064205;0.0052208611741662025
-0.0090179443359375;-0.124176025390625;-1.0318756103515625;0.03253557160496712;-0.01716007851064205;0.0052208611741662025
-0.0090179443359375;-0.124176025390625;-1.0318756103515625;0.03253557160496712;-0.01716007851064205;0.0052208611741662025
-0.0090179443359375;-0.124176025390625;-1.0318756103515625;0.019777698442339897;-0.02972087822854519;0.006424875929951668
-0.0090179443359375;-0.124176025390625;-1.0318756103515625;0.019777698442339897;-0.02972087822854519;0.006424875929951668
-0.01165771484375;-0.1259918212890625;-1.036712646484375;0.019777698442339897;-0.02972087822854519;0.006424875929951668
-0.01165771484375;-0.1259918212890625;-1.036712646484375;0.019777698442339897;-0.02972087822854519;0.006424875929951668
-0.01165771484375;-0.1259918212890625;-1.036712646484375;0.019777698442339897;-0.02972087822854519;0.006424875929951668
-0.01165771484375;-0.1259918212890625;-1.036712646484375;0.001047421246767044;-0.03834152966737747;0.005804892163723707
-0.01165771484375;-0.1259918212890625;-1.036712646484375;0.001047421246767044;-0.03834152966737747;0.005804892163723707
-0.0120391845703125;-0.12860107421875;-1.015167236328125;0.001047421246767044;-0.03834152966737747;0.005804892163723707
-0.0120391845703125;-0.12860107421875;-1.015167236328125;0.001047421246767044;-0.03834152966737747;0.005804892163723707
-0.0120391845703125;-0.12860107421875;-1.015167236328125;0.001047421246767044;-0.03834152966737747;0.005804892163723707
-0.0120391845703125;-0.12860107421875;-1.015167236328125;-0.017775801941752434;-0.027846278622746468;0.005727394018322229
-0.0120391845703125;-0.12860107421875;-1.015167236328125;-0.017775801941752434;-0.027846278622746468;0.005727394018322229
-0.0103607177734375;-0.1305389404296875;-0.9985504150390625;-0.017775801941752434;-0.027846278622746468;0.005727394018322229
-0.0103607177734375;-0.1305389404296875;-0.9985504150390625;-0.017775801941752434;-0.027846278622746468;0.005727394018322229
-0.0103607177734375;-0.1305389404296875;-0.9985504150390625;-0.017775801941752434;-0.027846278622746468;0.005727394018322229
-0.0103607177734375;-0.1305389404296875;-0.9985504150390625;-0.011691543273627758;-0.029090773314237595;0.007019826211035252
-0.0103607177734375;-0.1305389404296875;-0.9985504150390625;-0.011691543273627758;-0.029090773314237595;0.007019826211035252
-0.00787353515625;-0.1291961669921875;-0.9863433837890625;-0.011691543273627758;-0.029090773314237595;0.007019826211035252
-0.00787353515625;-0.1291961669921875;-0.9863433837890625;-0.011691543273627758;-0.029090773314237595;0.007019826211035252
-0.00787353515625;-0.1291961669921875;-0.9863433837890625;0.007531952112913132;-0.028441760689020157;0.005046157632023096
-0.00787353515625;-0.1291961669921875;-0.9863433837890625;0.007531952112913132;-0.028441760689020157;0.005046157632023096
-0.00787353515625;-0.1291961669921875;-0.9863433837890625;0.007531952112913132;-0.028441760689020157;0.005046157632023096
-0.0063629150390625;-0.126312255859375;-1.00189208984375;0.007531952112913132;-0.028441760689020157;0.005046157632023096
-0.0063629150390625;-0.126312255859375;-1.00189208984375;0.007531952112913132;-0.028441760689020157;0.005046157632023096
-0.0063629150390625;-0.126312255859375;-1.00189208984375;0.007531952112913132;-0.028441760689020157;0.005046157632023096
-0.0063629150390625;-0.126312255859375;-1.00189208984375;0.028673989698290825;-0.027029486373066902;0.0043987431563436985
-0.0063629150390625;-0.126312255859375;-1.00189208984375;0.028673989698290825;-0.027029486373066902;0.0043987431563436985
-0.0098876953125;-0.1235504150390625;-1.00701904296875;0.028673989698290825;-0.027029486373066902;0.0043987431563436985
-0.0098876953125;-0.1235504150390625;-1.00701904296875;0.028673989698290825;-0.027029486373066902;0.0043987431563436985
-0.0098876953125;-0.1235504150390625;-1.00701904296875;0.03507782518863678;-0.035227496176958084;-0.0008162588928826153
-0.0098876953125;-0.1235504150390625;-1.00701904296875;0.03507782518863678;-0.035227496176958084;-0.0008162588928826153
-0.0098876953125;-0.1235504150390625;-1.00701904296875;0.03507782518863678;-0.035227496176958084;-0.0008162588928826153
-0.01318359375;-0.1234130859375;-1.0172271728515625;0.03507782518863678;-0.035227496176958084;-0.0008162588928826153
-0.01318359375;-0.1234130859375;-1.0172271728515625;0.03507782518863678;-0.035227496176958084;-0.0008162588928826153
-0.01318359375;-0.1234130859375;-1.0172271728515625;0.0336141511797905;-0.042749326676130295;0.0022897860035300255
-0.01318359375;-0.1234130859375;-1.0172271728515625;0.0336141511797905;-0.042749326676130295;0.0022897860035300255
-0.0147705078125;-0.1259918212890625;-1.02099609375;0.0336141511797905;-0.042749326676130295;0.0022897860035300255
-0.0147705078125;-0.1259918212890625;-1.02099609375;0.0336141511797905;-0.042749326676130295;0.0022897860035300255
-0.0147705078125;-0.1259918212890625;-1.02099609375;0.0336141511797905;-0.042749326676130295;0.0022897860035300255
-0.0147705078125;-0.1259918212890625;-1.02099609375;0.025303492322564125;-0.042143724858760834;0.0001411475386703387
-0.0147705078125;-0.1259918212890625;-1.02099609375;0.025303492322564125;-0.042143724858760834;0.0001411475386703387
-0.0147705078125;-0.1259918212890625;-1.02099609375;0.025303492322564125;-0.042143724858760834;0.0001411475386703387
-0.0131378173828125;-0.13018798828125;-1.01812744140625;0.025303492322564125;-0.042143724858760834;0.0001411475386703387
-0.0131378173828125;-0.13018798828125;-1.01812744140625;0.025303492322564125;-0.042143724858760834;0.0001411475386703387
-0.0131378173828125;-0.13018798828125;-1.01812744140625;0.015426892787218094;-0.03527995944023132;-0.0008998821140266955
-0.0131378173828125;-0.13018798828125;-1.01812744140625;0.015426892787218094;-0.03527995944023132;-0.0008998821140266955
-0.0104522705078125;-0.1361083984375;-1.010986328125;0.015426892787218094;-0.03527995944023132;-0.0008998821140266955
-0.0104522705078125;-0.1361083984375;-1.010986328125;0.015426892787218094;-0.03527995944023132;-0.0008998821140266955
-0.0104522705078125;-0.1361083984375;-1.010986328125;0.015426892787218094;-0.03527995944023132;-0.0008998821140266955
-0.0104522705078125;-0.1361083984375;-1.010986328125;0.0070762853138148785;-0.024816399440169334;0.0003043993201572448
-0.0104522705078125;-0.1361083984375;-1.010986328125;0.0070762853138148785;-0.024816399440169334;0.0003043993201572448
-0.0094757080078125;-0.140289306640625;-1.005035400390625;0.0070762853138148785;-0.024816399440169334;0.0003043993201572448
-0.0094757080078125;-0.140289306640625;-1.005035400390625;0.0070762853138148785;-0.024816399440169334;0.0003043993201572448
-0.0094757080078125;-0.140289306640625;-1.005035400390625;0.0070762853138148785;-0.024816399440169334;0.0003043993201572448
-0.0094757080078125;-0.140289306640625;-1.005035400390625;0.00538517814129591;-0.025004684925079346;0.006511961575597525
-0.0094757080078125;-0.140289306640625;-1.005035400390625;0.00538517814129591;-0.025004684925079346;0.006511961575597525
-0.0114288330078125;-0.141937255859375;-1.0030975341796875;0.00538517814129591;-0.025004684925079346;0.006511961575597525
-0.0114288330078125;-0.141937255859375;-1.0030975341796875;0.00538517814129591;-0.025004684925079346;0.006511961575597525
-0.0114288330078125;-0.141937255859375;-1.0030975341796875;0.00538517814129591;-0.025004684925079346;0.006511961575597525
-0.0114288330078125;-0.141937255859375;-1.0030975341796875;0.001651159836910665;-0.024523185566067696;0.008344216272234917
-0.0114288330078125;-0.141937255859375;-1.0030975341796875;0.001651159836910665;-0.024523185566067696;0.008344216272234917
-0.012542724609375;-0.14080810546875;-1.0034332275390625;0.001651159836910665;-0.024523185566067696;0.008344216272234917
-0.012542724609375;-0.14080810546875;-1.0034332275390625;0.001651159836910665;-0.024523185566067696;0.008344216272234917
-0.012542724609375;-0.14080810546875;-1.0034332275390625;0.001651159836910665;-0.024523185566067696;0.008344216272234917
-0.012542724609375;-0.14080810546875;-1.0034332275390625;0.0062549663707613945;-0.02058943174779415;0.010617224499583244
-0.012542724609375;-0.14080810546875;-1.0034332275390625;0.0062549663707613945;-0.02058943174779415;0.010617224499583244
-0.01495361328125;-0.137603759765625;-1.005859375;0.0062549663707613945;-0.02058943174779415;0.010617224499583244
-0.01495361328125;-0.137603759765625;-1.005859375;0.0062549663707613945;-0.02058943174779415;0.010617224499583244
-0.01495361328125;-0.137603759765625;-1.005859375;0.0062549663707613945;-0.02058943174779415;0.010617224499583244
-0.01495361328125;-0.137603759765625;-1.005859375;0.00809281412512064;-0.013102219440042973;0.011802863329648972
-0.01495361328125;-0.137603759765625;-1.005859375;0.00809281412512064;-0.013102219440042973;0.011802863329648972
-0.0156097412109375;-0.132720947265625;-1.006988525390625;0.00809281412512064;-0.013102219440042973;0.011802863329648972
-0.0156097412109375;-0.132720947265625;-1.006988525390625;0.00809281412512064;-0.013102219440042973;0.011802863329648972
-0.0156097412109375;-0.132720947265625;-1.006988525390625;0.00809281412512064;-0.013102219440042973;0.011802863329648972
-0.0156097412109375;-0.132720947265625;-1.006988525390625;0.00612420542165637;-0.0014602112350985408;0.008403072133660316
-0.0156097412109375;-0.132720947265625;-1.006988525390625;0.00612420542165637;-0.0014602112350985408;0.008403072133660316
-0.015289306640625;-0.1286163330078125;-1.0087738037109375;0.00612420542165637;-0.0014602112350985408;0.008403072133660316
-0.015289306640625;-0.1286163330078125;-1.0087738037109375;0.00612420542165637;-0.0014602112350985408;0.008403072133660316
-0.015289306640625;-0.1286163330078125;-1.0087738037109375;0.00612420542165637;-0.0014602112350985408;0.008403072133660316
-0.015289306640625;-0.1286163330078125;-1.0087738037109375;0.007456584833562374;-0.002415220718830824;0.007315170951187611
-0.015289306640625;-0.1286163330078125;-1.0087738037109375;0.007456584833562374;-0.002415220718830824;0.007315170951187611
-0.014617919921875;-0.1268310546875;-1.0102691650390625;0.007456584833562374;-0.002415220718830824;0.007315170951187611
-0.014617919921875;-0.1268310546875;-1.0102691650390625;0.007456584833562374;-0.002415220718830824;0.007315170951187611
-0.014617919921875;-0.1268310546875;-1.0102691650390625;0.007456584833562374;-0.002415220718830824;0.007315170951187611
-0.014617919921875;-0.1268310546875;-1.0102691650390625;0.005044559482485056;-0.006148972548544407;0.0070730894804000854
-0.014617919921875;-0.1268310546875;-1.0102691650390625;0.005044559482485056;-0.006148972548544407;0.0070730894804000854
-0.0130767822265625;-0.1258087158203125;-1.0100555419921875;0.005044559482485056;-0.006148972548544407;0.0070730894804000854
-0.0130767822265625;-0.1258087158203125;-1.0100555419921875;0.005044559482485056;-0.006148972548544407;0.0070730894804000854
-0.0130767822265625;-0.1258087158203125;-1.0100555419921875;0.005044559482485056;-0.006148972548544407;0.0070730894804000854
-0.0130767822265625;-0.1258087158203125;-1.0100555419921875;0.007622499484568834;-0.007636880502104759;0.008016914129257202
-0.0130767822265625;-0.1258087158203125;-1.0100555419921875;0.007622499484568834;-0.007636880502104759;0.008016914129257202
-0.0117340087890625;-0.1259307861328125;-1.0112152099609375;0.007622499484568834;-0.007636880502104759;0.008016914129257202
-0.0117340087890625;-0.1259307861328125;-1.0112152099609375;0.007622499484568834;-0.007636880502104759;0.008016914129257202
-0.0117340087890625;-0.1259307861328125;-1.0112152099609375;0.007622499484568834;-0.007636880502104759;0.008016914129257202
-0.0117340087890625;-0.1259307861328125;-1.0112152099609375;0.007218231912702322;-0.0060182115994393826;0.0046629286371171474
-0.0117340087890625;-0.1259307861328125;-1.0112152099609375;0.007218231912702322;-0.0060182115994393826;0.0046629286371171474
-0.010223388671875;-0.1270904541015625;-1.011138916015625;0.007218231912702322;-0.0060182115994393826;0.0046629286371171474
-0.010223388671875;-0.1270904541015625;-1.011138916015625;0.007218231912702322;-0.0060182115994393826;0.0046629286371171474
-0.010223388671875;-0.1270904541015625;-1.011138916015625;0.007218231912702322;-0.0060182115994393826;0.0046629286371171474
-0.010223388671875;-0.1270904541015625;-1.011138916015625;0.0059931776486337185;-0.0008346347021870315;0.005915147252380848
-0.010223388671875;-0.1270904541015625;-1.011138916015625;0.0059931776486337185;-0.0008346347021870315;0.005915147252380848
-0.010711669921875;-0.1277313232421875;-1.008941650390625;0.0059931776486337185;-0.0008346347021870315;0.005915147252380848
-0.010711669921875;-0.1277313232421875;-1.008941650390625;0.0059931776486337185;-0.0008346347021870315;0.005915147252380848
-0.010711669921875;-0.1277313232421875;-1.008941650390625;0.0059931776486337185;-0.0008346347021870315;0.005915147252380848
-0.010711669921875;-0.1277313232421875;-1.008941650390625;0.001407480682246387;-0.0024058998096734285;0.002743588527664542
-0.010711669921875;-0.1277313232421875;-1.008941650390625;0.001407480682246387;-0.0024058998096734285;0.002743588527664542
-0.0104827880859375;-0.128692626953125;-1.0073394775390625;0.001407480682246387;-0.0024058998096734285;0.002743588527664542
-0.0104827880859375;-0.128692626953125;-1.0073394775390625;0.001407480682246387;-0.0024058998096734285;0.002743588527664542
-0.0104827880859375;-0.128692626953125;-1.0073394775390625;0.001407480682246387;-0.0024058998096734285;0.002743588527664542
-0.0104827880859375;-0.128692626953125;-1.0073394775390625;-0.0014287859667092562;-0.0028583707753568888;0.0025901903863996267
-0.0104827880859375;-0.128692626953125;-1.0073394775390625;-0.0014287859667092562;-0.0028583707753568888;0.0025901903863996267
-0.0111083984375;-0.1292266845703125;-1.00665283203125;-0.0014287859667092562;-0.0028583707753568888;0.0025901903863996267
-0.0111083984375;-0.1292266845703125;-1.00665283203125;-0.0014287859667092562;-0.0028583707753568888;0.0025901903863996267
-0.0111083984375;-0.1292266845703125;-1.00665283203125;-0.0014287859667092562;-0.0028583707753568888;0.0025901903863996267
-0.0111083984375;-0.1292266845703125;-1.00665283203125;7.776429993100464e-05;-0.0012519520241767168;0.002228533150628209
-0.0111083984375;-0.1292266845703125;-1.00665283203125;7.776429993100464e-05;-0.0012519520241767168;0.002228533150628209
-0.010498046875;-0.1294097900390625;-1.0088653564453125;7.776429993100464e-05;-0.0012519520241767168;0.002228533150628209
-0.010498046875;-0.1294097900390625;-1.0088653564453125;7.776429993100464e-05;-0.0012519520241767168;0.002228533150628209
-0.010498046875;-0.1294097900390625;-1.0088653564453125;7.776429993100464e-05;-0.0012519520241767168;0.002228533150628209
-0.010498046875;-0.1294097900390625;-1.0088653564453125;0.002299905987456441;-0.004866660572588444;0.0027286747936159372
-0.010498046875;-0.1294097900390625;-1.0088653564453125;0.002299905987456441;-0.004866660572588444;0.0027286747936159372
-0.0107879638671875;-0.1304473876953125;-1.0103759765625;0.002299905987456441;-0.004866660572588444;0.0027286747936159372
-0.0107879638671875;-0.1304473876953125;-1.0103759765625;0.002299905987456441;-0.004866660572588444;0.0027286747936159372
-0.0107879638671875;-0.1304473876953125;-1.0103759765625;0.002299905987456441;-0.004866660572588444;0.0027286747936159372
-0.0107879638671875;-0.1304473876953125;-1.0103759765625;-0.00045619948650710285;0.001058872789144516;0.0027081684675067663
-0.0107879638671875;-0.1304473876953125;-1.0103759765625;-0.00045619948650710285;0.001058872789144516;0.0027081684675067663
-0.0098724365234375;-0.1318206787109375;-1.010711669921875;-0.00045619948650710285;0.001058872789144516;0.0027081684675067663
-0.0098724365234375;-0.1318206787109375;-1.010711669921875;-0.00045619948650710285;0.001058872789144516;0.0027081684675067663
-0.0098724365234375;-0.1318206787109375;-1.010711669921875;-0.00045619948650710285;0.001058872789144516;0.0027081684675067663
-0.0098724365234375;-0.1318206787109375;-1.010711669921875;0.002433863002806902;0.00045087316539138556;0.0012202603975310922
-0.0098724365234375;-0.1318206787109375;-1.010711669921875;0.002433863002806902;0.00045087316539138556;0.0012202603975310922
-0.0098419189453125;-0.1316680908203125;-1.01141357421875;0.002433863002806902;0.00045087316539138556;0.0012202603975310922
-0.0098419189453125;-0.1316680908203125;-1.01141357421875;0.002433863002806902;0.00045087316539138556;0.0012202603975310922
-0.0098419189453125;-0.1316680908203125;-1.01141357421875;0.002433863002806902;0.00045087316539138556;0.0012202603975310922
-0.0098419189453125;-0.1316680908203125;-1.01141357421875;0.002400306984782219;-0.002427737694233656;0.0023664848413318396
-0.0098419189453125;-0.1316680908203125;-1.01141357421875;0.002400306984782219;-0.002427737694233656;0.0023664848413318396
-0.0093536376953125;-0.132659912109375;-1.0121002197265625;0.002400306984782219;-0.002427737694233656;0.0023664848413318396
-0.0093536376953125;-0.132659912109375;-1.0121002197265625;0.002400306984782219;-0.002427737694233656;0.0023664848413318396
-0.0093536376953125;-0.132659912109375;-1.0121002197265625;0.002400306984782219;-0.002427737694233656;0.0023664848413318396
-0.0093536376953125;-0.132659912109375;-1.0121002197265625;-0.0024519723374396563;-0.008079231716692448;0.0004090615548193455
-0.0093536376953125;-0.132659912109375;-1.0121002197265625;-0.0024519723374396563;-0.008079231716692448;0.0004090615548193455
-0.0095367431640625;-0.1352081298828125;-1.0120849609375;-0.0024519723374396563;-0.008079231716692448;0.0004090615548193455
-0.0095367431640625;-0.1352081298828125;-1.0120849609375;-0.0024519723374396563;-0.008079231716692448;0.0004090615548193455
-0.0095367431640625;-0.1352081298828125;-1.0120849609375;-0.0024519723374396563;-0.008079231716692448;0.0004090615548193455
-0.0095367431640625;-0.1352081298828125;-1.0120849609375;-0.00427144393324852;-0.010744523257017136;0.0032083101104944944
-0.0095367431640625;-0.1352081298828125;-1.0120849609375;-0.00427144393324852;-0.010744523257017136;0.0032083101104944944
-0.0099029541015625;-0.1360015869140625;-1.0117950439453125;-0.00427144393324852;-0.010744523257017136;0.0032083101104944944
-0.0099029541015625;-0.1360015869140625;-1.0117950439453125;-0.00427144393324852;-0.010744523257017136;0.0032083101104944944
-0.0099029541015625;-0.1360015869140625;-1.0117950439453125;-0.00427144393324852;-0.010744523257017136;0.0032083101104944944
-0.0099029541015625;-0.1360015869140625;-1.0117950439453125;-0.007268565706908703;-0.015474563464522362;-0.00014061490946915
-0.0099029541015625;-0.1360015869140625;-1.0117950439453125;-0.007268565706908703;-0.015474563464522362;-0.00014061490946915
-0.0116119384765625;-0.1356964111328125;-1.01104736328125;-0.007268565706908703;-0.015474563464522362;-0.00014061490946915
-0.0116119384765625;-0.1356964111328125;-1.01104736328125;-0.007268565706908703;-0.015474563464522362;-0.00014061490946915
-0.0116119384765625;-0.1356964111328125;-1.01104736328125;-0.007268565706908703;-0.015474563464522362;-0.00014061490946915
-0.0116119384765625;-0.1356964111328125;-1.01104736328125;-0.011030812747776508;-0.01347745954990387;-0.0009864348685368896
-0.0116119384765625;-0.1356964111328125;-1.01104736328125;-0.011030812747776508;-0.01347745954990387;-0.0009864348685368896
-0.0130767822265625;-0.13671875;-1.0110321044921875;-0.011030812747776508;-0.01347745954990387;-0.0009864348685368896
-0.0130767822265625;-0.13671875;-1.0110321044921875;-0.011030812747776508;-0.01347745954990387;-0.0009864348685368896
-0.0130767822265625;-0.13671875;-1.0110321044921875;-0.011030812747776508;-0.01347745954990387;-0.0009864348685368896
-0.0130767822265625;-0.13671875;-1.0110321044921875;-0.021731393411755562;0.006697583943605423;0.0012391688069328666
-0.0130767822265625;-0.13671875;-1.0110321044921875;-0.021731393411755562;0.006697583943605423;0.0012391688069328666
-0.01318359375;-0.1366119384765625;-1.00531005859375;-0.021731393411755562;0.006697583943605423;0.0012391688069328666
-0.01318359375;-0.1366119384765625;-1.00531005859375;-0.021731393411755562;0.006697583943605423;0.0012391688069328666
-0.01318359375;-0.1366119384765625;-1.00531005859375;-0.021731393411755562;0.006697583943605423;0.0012391688069328666
-0.01318359375;-0.1366119384765625;-1.00531005859375;-0.01830150932073593;0.010490723885595798;0.003172357566654682
-0.01318359375;-0.1366119384765625;-1.00531005859375;-0.01830150932073593;0.010490723885595798;0.003172357566654682
-0.0124664306640625;-0.134429931640625;-0.9949188232421875;-0.01830150932073593;0.010490723885595798;0.003172357566654682
-0.0124664306640625;-0.134429931640625;-0.9949188232421875;-0.01830150932073593;0.010490723885595798;0.003172357566654682
-0.0124664306640625;-0.134429931640625;-0.9949188232421875;-0.01830150932073593;0.010490723885595798;0.003172357566654682
-0.0124664306640625;-0.134429931640625;-0.9949188232421875;-0.005766808986663818;-0.010086722671985626;0.004034156445413828
-0.0124664306640625;-0.134429931640625;-0.9949188232421875;-0.005766808986663818;-0.010086722671985626;0.004034156445413828
-0.012664794921875;-0.130096435546875;-1.00982666015625;-0.005766808986663818;-0.010086722671985626;0.004034156445413828
-0.012664794921875;-0.130096435546875;-1.00982666015625;-0.005766808986663818;-0.010086722671985626;0.004034156445413828
-0.012664794921875;-0.130096435546875;-1.00982666015625;-0.005766808986663818;-0.010086722671985626;0.004034156445413828
-0.012664794921875;-0.130096435546875;-1.00982666015625;-0.000294545607175678;-0.013206083327531815;-0.0013606089632958174
-0.012664794921875;-0.130096435546875;-1.00982666015625;-0.000294545607175678;-0.013206083327531815;-0.0013606089632958174
-0.0148773193359375;-0.128173828125;-1.0127105712890625;-0.000294545607175678;-0.013206083327531815;-0.0013606089632958174
-0.0148773193359375;-0.128173828125;-1.0127105712890625;-0.000294545607175678;-0.013206083327531815;-0.0013606089632958174
-0.0148773193359375;-0.128173828125;-1.0127105712890625;-0.000294545607175678;-0.013206083327531815;-0.0013606089632958174
-0.0148773193359375;-0.128173828125;-1.0127105712890625;-0.0008780442294664681;-2.0772657080669887e-05;-0.0021457087714225054
-0.0148773193359375;-0.128173828125;-1.0127105712890625;-0.0008780442294664681;-2.0772657080669887e-05;-0.0021457087714225054
-0.01806640625;-0.1249847412109375;-1.0010833740234375;-0.0008780442294664681;-2.0772657080669887e-05;-0.0021457087714225054
-0.01806640625;-0.1249847412109375;-1.0010833740234375;-0.0008780442294664681;-2.0772657080669887e-05;-0.0021457087714225054
-0.01806640625;-0.1249847412109375;-1.0010833740234375;-0.0008780442294664681;-2.0772657080669887e-05;-0.0021457087714225054
-0.01806640625;-0.1249847412109375;-1.0010833740234375;0.0020269318483769894;0.0025800704024732113;-0.004764928016811609
-0.01806640625;-0.1249847412109375;-1.0010833740234375;0.0020269318483769894;0.0025800704024732113;-0.004764928016811609
-0.016357421875;-0.1240081787109375;-0.999114990234375;0.0020269318483769894;0.0025800704024732113;-0.004764928016811609
-0.016357421875;-0.1240081787109375;-0.999114990234375;0.0020269318483769894;0.0025800704024732113;-0.004764928016811609
-0.016357421875;-0.1240081787109375;-0.999114990234375;0.0020269318483769894;0.0025800704024732113;-0.004764928016811609
-0.016357421875;-0.1240081787109375;-0.999114990234375;0.005048021674156189;-0.008130364120006561;0.002642122097313404
-0.016357421875;-0.1240081787109375;-0.999114990234375;0.005048021674156189;-0.008130364120006561;0.002642122097313404
-0.0137176513671875;-0.1253509521484375;-1.005401611328125;0.005048021674156189;-0.008130364120006561;0.002642122097313404
-0.0137176513671875;-0.1253509521484375;-1.005401611328125;0.005048021674156189;-0.008130364120006561;0.002642122097313404
-0.0137176513671875;-0.1253509521484375;-1.005401611328125;0.005048021674156189;-0.008130364120006561;0.002642122097313404
-0.0137176513671875;-0.1253509521484375;-1.005401611328125;0.00845606904476881;-0.011117898859083652;0.0032615733798593283
-0.0137176513671875;-0.1253509521484375;-1.005401611328125;0.00845606904476881;-0.011117898859083652;0.0032615733798593283
-0.0130462646484375;-0.1267242431640625;-1.0086212158203125;0.00845606904476881;-0.011117898859083652;0.0032615733798593283
-0.0130462646484375;-0.1267242431640625;-1.0086212158203125;0.00845606904476881;-0.011117898859083652;0.0032615733798593283
-0.0130462646484375;-0.1267242431640625;-1.0086212158203125;0.00845606904476881;-0.011117898859083652;0.0032615733798593283
-0.0130462646484375;-0.1267242431640625;-1.0086212158203125;0.010008159093558788;-0.007114634849131107;0.0010644654976204038
-0.0130462646484375;-0.1267242431640625;-1.0086212158203125;0.010008159093558788;-0.007114634849131107;0.0010644654976204038
-0.013702392578125;-0.128173828125;-1.00909423828125;0.010008159093558788;-0.007114634849131107;0.0010644654976204038
-0.013702392578125;-0.128173828125;-1.00909423828125;0.010008159093558788;-0.007114634849131107;0.0010644654976204038
-0.013702392578125;-0.128173828125;-1.00909423828125;0.010008159093558788;-0.007114634849131107;0.0010644654976204038
-0.013702392578125;-0.128173828125;-1.00909423828125;0.008098406717181206;-0.0005544701125472784;0.003929493948817253
-0.013702392578125;-0.128173828125;-1.00909423828125;0.008098406717181206;-0.0005544701125472784;0.003929493948817253
-0.01483154296875;-0.1312103271484375;-1.009490966796875;0.008098406717181206;-0.0005544701125472784;0.003929493948817253
-0.01483154296875;-0.1312103271484375;-1.009490966796875;0.008098406717181206;-0.0005544701125472784;0.003929493948817253
-0.01483154296875;-0.1312103271484375;-1.009490966796875;0.008098406717181206;-0.0005544701125472784;0.003929493948817253
-0.01483154296875;-0.1312103271484375;-1.009490966796875;0.008188420906662941;-0.004848817363381386;0.005828594323247671
-0.01483154296875;-0.1312103271484375;-1.009490966796875;0.008188420906662941;-0.004848817363381386;0.005828594323247671
-0.016143798828125;-0.1339263916015625;-1.009521484375;0.008188420906662941;-0.004848817363381386;0.005828594323247671
-0.016143798828125;-0.1339263916015625;-1.009521484375;0.008188420906662941;-0.004848817363381386;0.005828594323247671
-0.016143798828125;-0.1339263916015625;-1.009521484375;0.008188420906662941;-0.004848817363381386;0.005828594323247671
-0.016143798828125;-0.1339263916015625;-1.009521484375;0.008886702358722687;-0.0071753547526896;0.0036575854755938053
-0.016143798828125;-0.1339263916015625;-1.009521484375;0.008886702358722687;-0.0071753547526896;0.0036575854755938053
-0.0177154541015625;-0.13623046875;-1.012908935546875;0.008886702358722687;-0.0071753547526896;0.0036575854755938053
-0.0177154541015625;-0.13623046875;-1.012908935546875;0.008886702358722687;-0.0071753547526896;0.0036575854755938053
-0.0177154541015625;-0.13623046875;-1.012908935546875;0.00800120085477829;-0.012869193218648434;0.0034085798542946577
-0.0177154541015625;-0.13623046875;-1.012908935546875;0.00800120085477829;-0.012869193218648434;0.0034085798542946577
-0.0177154541015625;-0.13623046875;-1.012908935546875;0.00800120085477829;-0.012869193218648434;0.0034085798542946577
-0.0172576904296875;-0.137298583984375;-1.0173797607421875;0.00800120085477829;-0.012869193218648434;0.0034085798542946577
-0.0172576904296875;-0.137298583984375;-1.0173797607421875;0.00800120085477829;-0.012869193218648434;0.0034085798542946577
-0.0172576904296875;-0.137298583984375;-1.0173797607421875;-0.0002426139690214768;-0.008716526441276073;0.007703726179897785
-0.0172576904296875;-0.137298583984375;-1.0173797607421875;-0.0002426139690214768;-0.008716526441276073;0.007703726179897785
-0.0172576904296875;-0.137298583984375;-1.0173797607421875;-0.0002426139690214768;-0.008716526441276073;0.007703726179897785
-0.0167999267578125;-0.137847900390625;-1.01373291015625;-0.0002426139690214768;-0.008716526441276073;0.007703726179897785
-0.0167999267578125;-0.137847900390625;-1.01373291015625;-0.0002426139690214768;-0.008716526441276073;0.007703726179897785
-0.0167999267578125;-0.137847900390625;-1.01373291015625;-0.003319896524772048;-0.012120312079787254;0.00911679957062006
-0.0167999267578125;-0.137847900390625;-1.01373291015625;-0.003319896524772048;-0.012120312079787254;0.00911679957062006
-0.01507568359375;-0.1377105712890625;-1.01202392578125;-0.003319896524772048;-0.012120312079787254;0.00911679957062006
-0.01507568359375;-0.1377105712890625;-1.01202392578125;-0.003319896524772048;-0.012120312079787254;0.00911679957062006
-0.01507568359375;-0.1377105712890625;-1.01202392578125;-0.003319896524772048;-0.012120312079787254;0.00911679957062006
-0.01507568359375;-0.1377105712890625;-1.01202392578125;-0.009794041514396667;-0.01594913937151432;0.007015565410256386
-0.01507568359375;-0.1377105712890625;-1.01202392578125;-0.009794041514396667;-0.01594913937151432;0.007015565410256386
-0.01507568359375;-0.1377105712890625;-1.01202392578125;-0.009794041514396667;-0.01594913937151432;0.007015565410256386
-0.0138397216796875;-0.1365509033203125;-1.0118255615234375;-0.009794041514396667;-0.01594913937151432;0.007015565410256386
-0.0138397216796875;-0.1365509033203125;-1.0118255615234375;-0.009794041514396667;-0.01594913937151432;0.007015565410256386
-0.0138397216796875;-0.1365509033203125;-1.0118255615234375;-0.011064901947975159;-0.018740931525826454;0.006986802909523249
-0.0138397216796875;-0.1365509033203125;-1.0118255615234375;-0.011064901947975159;-0.018740931525826454;0.006986802909523249
-0.0138397216796875;-0.1365509033203125;-1.0118255615234375;-0.011064901947975159;-0.018740931525826454;0.006986802909523249
-0.01171875;-0.1343231201171875;-1.0101165771484375;-0.011064901947975159;-0.018740931525826454;0.006986802909523249
-0.01171875;-0.1343231201171875;-1.0101165771484375;-0.011064901947975159;-0.018740931525826454;0.006986802909523249
-0.01171875;-0.1343231201171875;-1.0101165771484375;-0.01142975501716137;-0.01739763282239437;0.005303685087710619
-0.01171875;-0.1343231201171875;-1.0101165771484375;-0.01142975501716137;-0.01739763282239437;0.005303685087710619
-0.011962890625;-0.13165283203125;-1.0102996826171875;-0.01142975501716137;-0.01739763282239437;0.005303685087710619
-0.011962890625;-0.13165283203125;-1.0102996826171875;-0.01142975501716137;-0.01739763282239437;0.005303685087710619
-0.011962890625;-0.13165283203125;-1.0102996826171875;-0.01142975501716137;-0.01739763282239437;0.005303685087710619
-0.011962890625;-0.13165283203125;-1.0102996826171875;-0.01441116351634264;-0.013736052438616753;0.005025651305913925
-0.011962890625;-0.13165283203125;-1.0102996826171875;-0.01441116351634264;-0.013736052438616753;0.005025651305913925
-0.0123748779296875;-0.1291046142578125;-1.0092315673828125;-0.01441116351634264;-0.013736052438616753;0.005025651305913925
-0.0123748779296875;-0.1291046142578125;-1.0092315673828125;-0.01441116351634264;-0.013736052438616753;0.005025651305913925
-0.0123748779296875;-0.1291046142578125;-1.0092315673828125;-0.01441116351634264;-0.013736052438616753;0.005025651305913925
-0.0123748779296875;-0.1291046142578125;-1.0092315673828125;-0.013307017274200916;-0.012081963010132313;0.003993942867964506
-0.0123748779296875;-0.1291046142578125;-1.0092315673828125;-0.013307017274200916;-0.012081963010132313;0.003993942867964506
-0.0134124755859375;-0.1277313232421875;-1.0105743408203125;-0.013307017274200916;-0.012081963010132313;0.003993942867964506
-0.0134124755859375;-0.1277313232421875;-1.0105743408203125;-0.013307017274200916;-0.012081963010132313;0.003993942867964506
-0.0134124755859375;-0.1277313232421875;-1.0105743408203125;-0.008421448059380054;-0.00663553224876523;0.0008807073463685811
-0.0134124755859375;-0.1277313232421875;-1.0105743408203125;-0.008421448059380054;-0.00663553224876523;0.0008807073463685811
-0.0128173828125;-0.1262054443359375;-1.01055908203125;-0.008421448059380054;-0.00663553224876523;0.0008807073463685811
-0.0128173828125;-0.1262054443359375;-1.01055908203125;-0.008421448059380054;-0.00663553224876523;0.0008807073463685811
-0.0128173828125;-0.1262054443359375;-1.01055908203125;-0.008421448059380054;-0.00663553224876523;0.0008807073463685811
-0.0128173828125;-0.1262054443359375;-1.01055908203125;-0.011608452536165714;-0.0003920173039659858;-0.0018730012234300375
-0.0128173828125;-0.1262054443359375;-1.01055908203125;-0.011608452536165714;-0.0003920173039659858;-0.0018730012234300375
-0.0116424560546875;-0.1266937255859375;-1.0072784423828125;-0.011608452536165714;-0.0003920173039659858;-0.0018730012234300375
-0.0116424560546875;-0.1266937255859375;-1.0072784423828125;-0.011608452536165714;-0.0003920173039659858;-0.0018730012234300375
-0.0116424560546875;-0.1266937255859375;-1.0072784423828125;-0.011608452536165714;-0.0003920173039659858;-0.0018730012234300375
-0.0116424560546875;-0.1266937255859375;-1.0072784423828125;-0.009604157879948616;0.006019809283316135;-0.002523611532524228
-0.0116424560546875;-0.1266937255859375;-1.0072784423828125;-0.009604157879948616;0.006019809283316135;-0.002523611532524228
-0.0105438232421875;-0.1268310546875;-1.006072998046875;-0.009604157879948616;0.006019809283316135;-0.002523611532524228
-0.0105438232421875;-0.1268310546875;-1.006072998046875;-0.009604157879948616;0.006019809283316135;-0.002523611532524228
-0.0105438232421875;-0.1268310546875;-1.006072998046875;-0.009604157879948616;0.006019809283316135;-0.002523611532524228
-0.0105438232421875;-0.1268310546875;-1.006072998046875;-0.00914636068046093;0.005314338020980358;-0.0037822213489562273
-0.0105438232421875;-0.1268310546875;-1.006072998046875;-0.00914636068046093;0.005314338020980358;-0.0037822213489562273
-0.01043701171875;-0.126678466796875;-1.00750732421875;-0.00914636068046093;0.005314338020980358;-0.0037822213489562273
-0.01043701171875;-0.126678466796875;-1.00750732421875;-0.00914636068046093;0.005314338020980358;-0.0037822213489562273
-0.01043701171875;-0.126678466796875;-1.00750732421875;-0.00914636068046093;0.005314338020980358;-0.0037822213489562273
-0.01043701171875;-0.126678466796875;-1.00750732421875;-0.009612945839762688;0.002695119008421898;-0.0027534421533346176
-0.01043701171875;-0.126678466796875;-1.00750732421875;-0.009612945839762688;0.002695119008421898;-0.0027534421533346176
-0.0111846923828125;-0.1282196044921875;-1.0082550048828125;-0.009612945839762688;0.002695119008421898;-0.0027534421533346176
-0.0111846923828125;-0.1282196044921875;-1.0082550048828125;-0.009612945839762688;0.002695119008421898;-0.0027534421533346176
-0.0111846923828125;-0.1282196044921875;-1.0082550048828125;-0.009612945839762688;0.002695119008421898;-0.0027534421533346176
-0.0111846923828125;-0.1282196044921875;-1.0082550048828125;-0.008596417494118214;0.0030274814926087856;-0.0017030915478244424
-0.0111846923828125;-0.1282196044921875;-1.0082550048828125;-0.008596417494118214;0.0030274814926087856;-0.0017030915478244424
-0.012664794921875;-0.130828857421875;-1.0074005126953125;-0.008596417494118214;0.0030274814926087856;-0.0017030915478244424
-0.012664794921875;-0.130828857421875;-1.0074005126953125;-0.008596417494118214;0.0030274814926087856;-0.0017030915478244424
-0.012664794921875;-0.130828857421875;-1.0074005126953125;-0.008596417494118214;0.0030274814926087856;-0.0017030915478244424
-0.012664794921875;-0.130828857421875;-1.0074005126953125;-0.005453355144709349;0.00697774812579155;-0.0011462245602160692
-0.012664794921875;-0.130828857421875;-1.0074005126953125;-0.005453355144709349;0.00697774812579155;-0.0011462245602160692
-0.0125274658203125;-0.1312713623046875;-1.0068206787109375;-0.005453355144709349;0.00697774812579155;-0.0011462245602160692
-0.0125274658203125;-0.1312713623046875;-1.0068206787109375;-0.005453355144709349;0.00697774812579155;-0.0011462245602160692
-0.0125274658203125;-0.1312713623046875;-1.0068206787109375;-0.005453355144709349;0.00697774812579155;-0.0011462245602160692
-0.0125274658203125;-0.1312713623046875;-1.0068206787109375;-0.0032322786282747984;0.008506668731570244;9.29443194763735e-05
-0.0125274658203125;-0.1312713623046875;-1.0068206787109375;-0.0032322786282747984;0.008506668731570244;9.29443194763735e-05
-0.011932373046875;-0.13116455078125;-1.0081787109375;-0.0032322786282747984;0.008506668731570244;9.29443194763735e-05
-0.011932373046875;-0.13116455078125;-1.0081787109375;-0.0032322786282747984;0.008506668731570244;9.29443194763735e-05
-0.011932373046875;-0.13116455078125;-1.0081787109375;-0.0032322786282747984;0.008506668731570244;9.29443194763735e-05
-0.011932373046875;-0.13116455078125;-1.0081787109375;-0.0031734227668493986;0.004313788376748562;0.001252484624274075
-0.011932373046875;-0.13116455078125;-1.0081787109375;-0.0031734227668493986;0.004313788376748562;0.001252484624274075
-0.01104736328125;-0.13226318359375;-1.0106048583984375;-0.0031734227668493986;0.004313788376748562;0.001252484624274075
-0.01104736328125;-0.13226318359375;-1.0106048583984375;-0.0031734227668493986;0.004313788376748562;0.001252484624274075
-0.01104736328125;-0.13226318359375;-1.0106048583984375;-0.0031734227668493986;0.004313788376748562;0.001252484624274075
-0.01104736328125;-0.13226318359375;-1.0106048583984375;-0.0017584852175787091;-0.0007121292874217033;-0.0009363674325868487
-0.01104736328125;-0.13226318359375;-1.0106048583984375;-0.0017584852175787091;-0.0007121292874217033;-0.0009363674325868487
-0.0103912353515625;-0.1326141357421875;-1.009521484375;-0.0017584852175787091;-0.0007121292874217033;-0.0009363674325868487
-0.0103912353515625;-0.1326141357421875;-1.009521484375;-0.0017584852175787091;-0.0007121292874217033;-0.0009363674325868487
-0.0103912353515625;-0.1326141357421875;-1.009521484375;-0.0017584852175787091;-0.0007121292874217033;-0.0009363674325868487
-0.0103912353515625;-0.1326141357421875;-1.009521484375;-0.0016263924771919847;-0.00333241350017488;0.0003451456723269075
-0.0103912353515625;-0.1326141357421875;-1.009521484375;-0.0016263924771919847;-0.00333241350017488;0.0003451456723269075
-0.0088958740234375;-0.1323699951171875;-1.008209228515625;-0.0016263924771919847;-0.00333241350017488;0.0003451456723269075
-0.0088958740234375;-0.1323699951171875;-1.008209228515625;-0.0016263924771919847;-0.00333241350017488;0.0003451456723269075
-0.0088958740234375;-0.1323699951171875;-1.008209228515625;-0.0016263924771919847;-0.00333241350017488;0.0003451456723269075
-0.0088958740234375;-0.1323699951171875;-1.008209228515625;-0.00631861574947834;-0.00663473317399621;0.004348409362137318
-0.0088958740234375;-0.1323699951171875;-1.008209228515625;-0.00631861574947834;-0.00663473317399621;0.004348409362137318
-0.0099334716796875;-0.132415771484375;-1.0083160400390625;-0.00631861574947834;-0.00663473317399621;0.004348409362137318
-0.0099334716796875;-0.132415771484375;-1.0083160400390625;-0.00631861574947834;-0.00663473317399621;0.004348409362137318
-0.0099334716796875;-0.132415771484375;-1.0083160400390625;-0.00631861574947834;-0.00663473317399621;0.004348409362137318
-0.0099334716796875;-0.132415771484375;-1.0083160400390625;-0.004764395300298929;-0.007131945341825485;0.0010186590952798724
-0.0099334716796875;-0.132415771484375;-1.0083160400390625;-0.004764395300298929;-0.007131945341825485;0.0010186590952798724
-0.011962890625;-0.1329193115234375;-1.007965087890625;-0.004764395300298929;-0.007131945341825485;0.0010186590952798724
-0.011962890625;-0.1329193115234375;-1.007965087890625;-0.004764395300298929;-0.007131945341825485;0.0010186590952798724
-0.011962890625;-0.1329193115234375;-1.007965087890625;-0.004764395300298929;-0.007131945341825485;0.0010186590952798724
-0.011962890625;-0.1329193115234375;-1.007965087890625;-0.006901581771671772;-0.0065324679017066956;0.0028812738601118326
-0.011962890625;-0.1329193115234375;-1.007965087890625;-0.006901581771671772;-0.0065324679017066956;0.0028812738601118326
-0.0128021240234375;-0.1325531005859375;-1.008209228515625;-0.006901581771671772;-0.0065324679017066956;0.0028812738601118326
-0.0128021240234375;-0.1325531005859375;-1.008209228515625;-0.006901581771671772;-0.0065324679017066956;0.0028812738601118326
-0.0128021240234375;-0.1325531005859375;-1.008209228515625;-0.006901581771671772;-0.0065324679017066956;0.0028812738601118326
-0.0128021240234375;-0.1325531005859375;-1.008209228515625;-0.006354035809636116;-0.004287423100322485;0.0001150485550169833
-0.0128021240234375;-0.1325531005859375;-1.008209228515625;-0.006354035809636116;-0.004287423100322485;0.0001150485550169833
-0.014312744140625;-0.1316375732421875;-1.0066680908203125;-0.006354035809636116;-0.004287423100322485;0.0001150485550169833
-0.014312744140625;-0.1316375732421875;-1.0066680908203125;-0.006354035809636116;-0.004287423100322485;0.0001150485550169833
-0.014312744140625;-0.1316375732421875;-1.0066680908203125;-0.006354035809636116;-0.004287423100322485;0.0001150485550169833
-0.014312744140625;-0.1316375732421875;-1.0066680908203125;-0.005717540625482798;-0.004298075567930937;-0.0007869640830904245
-0.014312744140625;-0.1316375732421875;-1.0066680908203125;-0.005717540625482798;-0.004298075567930937;-0.0007869640830904245
-0.0153961181640625;-0.131591796875;-1.00732421875;-0.005717540625482798;-0.004298075567930937;-0.0007869640830904245
-0.0153961181640625;-0.131591796875;-1.00732421875;-0.005717540625482798;-0.004298075567930937;-0.0007869640830904245
-0.0153961181640625;-0.131591796875;-1.00732421875;-0.005717540625482798;-0.004298075567930937;-0.0007869640830904245
-0.0153961181640625;-0.131591796875;-1.00732421875;-0.002526274649426341;-0.005141764879226685;-0.00020186760229989886
-0.0153961181640625;-0.131591796875;-1.00732421875;-0.002526274649426341;-0.005141764879226685;-0.00020186760229989886
-0.016326904296875;-0.1317291259765625;-1.0091400146484375;-0.002526274649426341;-0.005141764879226685;-0.00020186760229989886
-0.016326904296875;-0.1317291259765625;-1.0091400146484375;-0.002526274649426341;-0.005141764879226685;-0.00020186760229989886
-0.016326904296875;-0.1317291259765625;-1.0091400146484375;-0.002526274649426341;-0.005141764879226685;-0.00020186760229989886
-0.016326904296875;-0.1317291259765625;-1.0091400146484375;-0.003055444685742259;0.0032314795535057783;-0.0024495755787938833
-0.016326904296875;-0.1317291259765625;-1.0091400146484375;-0.003055444685742259;0.0032314795535057783;-0.0024495755787938833
-0.01708984375;-0.13079833984375;-1.009918212890625;-0.003055444685742259;0.0032314795535057783;-0.0024495755787938833
-0.01708984375;-0.13079833984375;-1.009918212890625;-0.003055444685742259;0.0032314795535057783;-0.0024495755787938833
-0.01708984375;-0.13079833984375;-1.009918212890625;-0.003055444685742259;0.0032314795535057783;-0.0024495755787938833
-0.01708984375;-0.13079833984375;-1.009918212890625;-0.0062818643637001514;0.0018437063554301858;-0.0009864348685368896
-0.01708984375;-0.13079833984375;-1.009918212890625;-0.0062818643637001514;0.0018437063554301858;-0.0009864348685368896
-0.01708984375;-0.130584716796875;-1.009918212890625;-0.0062818643637001514;0.0018437063554301858;-0.0009864348685368896
-0.01708984375;-0.130584716796875;-1.009918212890625;-0.0062818643637001514;0.0018437063554301858;-0.0009864348685368896
-0.01708984375;-0.130584716796875;-1.009918212890625;-0.0062818643637001514;0.0018437063554301858;-0.0009864348685368896
-0.01708984375;-0.130584716796875;-1.009918212890625;-0.00923557672649622;0.006707437336444855;-0.0020562265999615192
-0.01708984375;-0.130584716796875;-1.009918212890625;-0.00923557672649622;0.006707437336444855;-0.0020562265999615192
-0.017333984375;-0.1309661865234375;-1.0092620849609375;-0.00923557672649622;0.006707437336444855;-0.0020562265999615192
-0.017333984375;-0.1309661865234375;-1.0092620849609375;-0.00923557672649622;0.006707437336444855;-0.0020562265999615192
-0.017333984375;-0.1309661865234375;-1.0092620849609375;-0.00923557672649622;0.006707437336444855;-0.0020562265999615192
-0.017333984375;-0.1309661865234375;-1.0092620849609375;-0.011782890185713768;0.006412359420210123;-0.0034405377227813005
-0.017333984375;-0.1309661865234375;-1.0092620849609375;-0.011782890185713768;0.006412359420210123;-0.0034405377227813005
-0.01678466796875;-0.1309814453125;-1.0111083984375;-0.011782890185713768;0.006412359420210123;-0.0034405377227813005
-0.01678466796875;-0.1309814453125;-1.0111083984375;-0.011782890185713768;0.006412359420210123;-0.0034405377227813005
-0.01678466796875;-0.1309814453125;-1.0111083984375;-0.011782890185713768;0.006412359420210123;-0.0034405377227813005
-0.01678466796875;-0.1309814453125;-1.0111083984375;-0.016766995191574097;0.006591057404875755;-0.0003885551996063441
-0.01678466796875;-0.1309814453125;-1.0111083984375;-0.016766995191574097;0.006591057404875755;-0.0003885551996063441
-0.0154571533203125;-0.1316375732421875;-1.01165771484375;-0.016766995191574097;0.006591057404875755;-0.0003885551996063441
-0.0154571533203125;-0.1316375732421875;-1.01165771484375;-0.016766995191574097;0.006591057404875755;-0.0003885551996063441
-0.0154571533203125;-0.1316375732421875;-1.01165771484375;-0.016766995191574097;0.006591057404875755;-0.0003885551996063441
-0.0154571533203125;-0.1316375732421875;-1.01165771484375;-0.018132397904992104;0.005298625212162733;-0.0005723133217543364
-0.0154571533203125;-0.1316375732421875;-1.01165771484375;-0.018132397904992104;0.005298625212162733;-0.0005723133217543364
-0.01556396484375;-0.13232421875;-1.011993408203125;-0.018132397904992104;0.005298625212162733;-0.0005723133217543364
-0.01556396484375;-0.13232421875;-1.011993408203125;-0.018132397904992104;0.005298625212162733;-0.0005723133217543364
-0.01556396484375;-0.13232421875;-1.011993408203125;-0.018132397904992104;0.005298625212162733;-0.0005723133217543364
-0.01556396484375;-0.13232421875;-1.011993408203125;-0.020478110760450363;0.004941495135426521;-0.00035686357296071947
-0.01556396484375;-0.13232421875;-1.011993408203125;-0.020478110760450363;0.004941495135426521;-0.00035686357296071947
-0.014495849609375;-0.13275146484375;-1.012054443359375;-0.020478110760450363;0.004941495135426521;-0.00035686357296071947
-0.014495849609375;-0.13275146484375;-1.012054443359375;-0.020478110760450363;0.004941495135426521;-0.00035686357296071947
-0.014495849609375;-0.13275146484375;-1.012054443359375;-0.020478110760450363;0.004941495135426521;-0.00035686357296071947
-0.014495849609375;-0.13275146484375;-1.012054443359375;-0.017612548545002937;0.006873086094856262;0.0005379585199989378
-0.014495849609375;-0.13275146484375;-1.012054443359375;-0.017612548545002937;0.006873086094856262;0.0005379585199989378
-0.01239013671875;-0.1340484619140625;-1.01123046875;-0.017612548545002937;0.006873086094856262;0.0005379585199989378
-0.01239013671875;-0.1340484619140625;-1.01123046875;-0.017612548545002937;0.006873086094856262;0.0005379585199989378
-0.01239013671875;-0.1340484619140625;-1.01123046875;-0.017612548545002937;0.006873086094856262;0.0005379585199989378
-0.01239013671875;-0.1340484619140625;-1.01123046875;-0.017047425732016563;0.007050719112157822;0.003192863892763853
-0.01239013671875;-0.1340484619140625;-1.01123046875;-0.017047425732016563;0.007050719112157822;0.003192863892763853
-0.0117340087890625;-0.1331634521484375;-1.0142822265625;-0.017047425732016563;0.007050719112157822;0.003192863892763853
-0.0117340087890625;-0.1331634521484375;-1.0142822265625;-0.017047425732016563;0.007050719112157822;0.003192863892763853
-0.0117340087890625;-0.1331634521484375;-1.0142822265625;-0.017047425732016563;0.007050719112157822;0.003192863892763853
-0.0117340087890625;-0.1331634521484375;-1.0142822265625;-0.01660054735839367;0.010597783140838146;0.0038224351592361927
-0.0117340087890625;-0.1331634521484375;-1.0142822265625;-0.01660054735839367;0.010597783140838146;0.0038224351592361927
-0.0112152099609375;-0.1319580078125;-1.013580322265625;-0.01660054735839367;0.010597783140838146;0.0038224351592361927
-0.0112152099609375;-0.1319580078125;-1.013580322265625;-0.01660054735839367;0.010597783140838146;0.0038224351592361927
-0.0112152099609375;-0.1319580078125;-1.013580322265625;-0.01660054735839367;0.010597783140838146;0.0038224351592361927
-0.0112152099609375;-0.1319580078125;-1.013580322265625;-0.01967277005314827;0.01684689149260521;0.006577474996447563
-0.0112152099609375;-0.1319580078125;-1.013580322265625;-0.01967277005314827;0.01684689149260521;0.006577474996447563
-0.011383056640625;-0.131256103515625;-1.01153564453125;-0.01967277005314827;0.01684689149260521;0.006577474996447563
-0.011383056640625;-0.131256103515625;-1.01153564453125;-0.01967277005314827;0.01684689149260521;0.006577474996447563
-0.011383056640625;-0.131256103515625;-1.01153564453125;-0.01967277005314827;0.01684689149260521;0.006577474996447563
-0.011383056640625;-0.131256103515625;-1.01153564453125;-0.0244281105697155;0.021731393411755562;0.006159092765301466
-0.011383056640625;-0.131256103515625;-1.01153564453125;-0.0244281105697155;0.021731393411755562;0.006159092765301466
-0.0107269287109375;-0.1304779052734375;-1.009735107421875;-0.0244281105697155;0.021731393411755562;0.006159092765301466
-0.0107269287109375;-0.1304779052734375;-1.009735107421875;-0.0244281105697155;0.021731393411755562;0.006159092765301466
-0.0107269287109375;-0.1304779052734375;-1.009735107421875;-0.0244281105697155;0.021731393411755562;0.006159092765301466
-0.0107269287109375;-0.1304779052734375;-1.009735107421875;-0.022412365302443504;0.026032932102680206;0.008331432938575745
-0.0107269287109375;-0.1304779052734375;-1.009735107421875;-0.022412365302443504;0.026032932102680206;0.008331432938575745
-0.009918212890625;-0.12890625;-1.0089569091796875;-0.022412365302443504;0.026032932102680206;0.008331432938575745
-0.009918212890625;-0.12890625;-1.0089569091796875;-0.022412365302443504;0.026032932102680206;0.008331432938575745
-0.009918212890625;-0.12890625;-1.0089569091796875;-0.022412365302443504;0.026032932102680206;0.008331432938575745
-0.009918212890625;-0.12890625;-1.0089569091796875;-0.02116999961435795;0.01744716800749302;0.008305068127810955
-0.009918212890625;-0.12890625;-1.0089569091796875;-0.02116999961435795;0.01744716800749302;0.008305068127810955
-0.0089111328125;-0.1263275146484375;-1.0096893310546875;-0.02116999961435795;0.01744716800749302;0.008305068127810955
-0.0089111328125;-0.1263275146484375;-1.0096893310546875;-0.02116999961435795;0.01744716800749302;0.008305068127810955
-0.0089111328125;-0.1263275146484375;-1.0096893310546875;-0.02116999961435795;0.01744716800749302;0.008305068127810955
-0.0089111328125;-0.1263275146484375;-1.0096893310546875;-0.01599787548184395;0.008137288503348827;0.007733553647994995
-0.0089111328125;-0.1263275146484375;-1.0096893310546875;-0.01599787548184395;0.008137288503348827;0.007733553647994995
-0.009307861328125;-0.12579345703125;-1.014404296875;-0.01599787548184395;0.008137288503348827;0.007733553647994995
-0.009307861328125;-0.12579345703125;-1.014404296875;-0.01599787548184395;0.008137288503348827;0.007733553647994995
-0.009307861328125;-0.12579345703125;-1.014404296875;-0.009129316546022892;0.00018908442871179432;0.008532235398888588
-0.009307861328125;-0.12579345703125;-1.014404296875;-0.009129316546022892;0.00018908442871179432;0.008532235398888588
-0.009307861328125;-0.12579345703125;-1.014404296875;-0.009129316546022892;0.00018908442871179432;0.008532235398888588
-0.01080322265625;-0.1265869140625;-1.0167999267578125;-0.009129316546022892;0.00018908442871179432;0.008532235398888588
-0.01080322265625;-0.1265869140625;-1.0167999267578125;-0.009129316546022892;0.00018908442871179432;0.008532235398888588
-0.01080322265625;-0.1265869140625;-1.0167999267578125;-0.011078217066824436;0.009780725464224815;0.007487743627279997
-0.01080322265625;-0.1265869140625;-1.0167999267578125;-0.011078217066824436;0.009780725464224815;0.007487743627279997
-0.01080322265625;-0.1265869140625;-1.0167999267578125;-0.011078217066824436;0.009780725464224815;0.007487743627279997
-0.0123138427734375;-0.1274261474609375;-1.0142364501953125;-0.011078217066824436;0.009780725464224815;0.007487743627279997
-0.0123138427734375;-0.1274261474609375;-1.0142364501953125;-0.011078217066824436;0.009780725464224815;0.007487743627279997
-0.0123138427734375;-0.1274261474609375;-1.0142364501953125;-0.011885154992341995;0.00936101097613573;0.006837932392954826
-0.0123138427734375;-0.1274261474609375;-1.0142364501953125;-0.011885154992341995;0.00936101097613573;0.006837932392954826
-0.01190185546875;-0.1296844482421875;-1.0092315673828125;-0.011885154992341995;0.00936101097613573;0.006837932392954826
-0.01190185546875;-0.1296844482421875;-1.0092315673828125;-0.011885154992341995;0.00936101097613573;0.006837932392954826
-0.01190185546875;-0.1296844482421875;-1.0092315673828125;-0.011885154992341995;0.00936101097613573;0.006837932392954826
-0.01190185546875;-0.1296844482421875;-1.0092315673828125;-0.014063887298107147;0.008920257911086082;0.002520149340853095
-0.01190185546875;-0.1296844482421875;-1.0092315673828125;-0.014063887298107147;0.008920257911086082;0.002520149340853095
-0.00982666015625;-0.1303558349609375;-1.0101470947265625;-0.014063887298107147;0.008920257911086082;0.002520149340853095
-0.00982666015625;-0.1303558349609375;-1.0101470947265625;-0.014063887298107147;0.008920257911086082;0.002520149340853095
-0.00982666015625;-0.1303558349609375;-1.0101470947265625;-0.014063887298107147;0.008920257911086082;0.002520149340853095
-0.00982666015625;-0.1303558349609375;-1.0101470947265625;-0.019951870664954185;0.015044462867081165;0.0027571707032620907
-0.00982666015625;-0.1303558349609375;-1.0101470947265625;-0.019951870664954185;0.015044462867081165;0.0027571707032620907
-0.007781982421875;-0.1306915283203125;-1.00628662109375;-0.019951870664954185;0.015044462867081165;0.0027571707032620907
-0.007781982421875;-0.1306915283203125;-1.00628662109375;-0.019951870664954185;0.015044462867081165;0.0027571707032620907
-0.007781982421875;-0.1306915283203125;-1.00628662109375;-0.019951870664954185;0.015044462867081165;0.0027571707032620907
-0.007781982421875;-0.1306915283203125;-1.00628662109375;-0.026326678693294525;0.041784998029470444;0.0031702269334346056
-0.007781982421875;-0.1306915283203125;-1.00628662109375;-0.026326678693294525;0.041784998029470444;0.0031702269334346056
-0.0077056884765625;-0.129608154296875;-0.98992919921875;-0.026326678693294525;0.041784998029470444;0.0031702269334346056
-0.0077056884765625;-0.129608154296875;-0.98992919921875;-0.026326678693294525;0.041784998029470444;0.0031702269334346056
-0.0077056884765625;-0.129608154296875;-0.98992919921875;-0.026326678693294525;0.041784998029470444;0.0031702269334346056
-0.0077056884765625;-0.129608154296875;-0.98992919921875;-0.01829378679394722;0.039494678378105164;0.002757703186944127
-0.0077056884765625;-0.129608154296875;-0.98992919921875;-0.01829378679394722;0.039494678378105164;0.002757703186944127
-0.0066986083984375;-0.12774658203125;-0.98846435546875;-0.01829378679394722;0.039494678378105164;0.002757703186944127
-0.0066986083984375;-0.12774658203125;-0.98846435546875;-0.01829378679394722;0.039494678378105164;0.002757703186944127
-0.0066986083984375;-0.12774658203125;-0.98846435546875;-0.01829378679394722;0.039494678378105164;0.002757703186944127
-0.0066986083984375;-0.12774658203125;-0.98846435546875;-0.0008239820599555969;0.01630759984254837;0.0009512811084277928
-0.0066986083984375;-0.12774658203125;-0.98846435546875;-0.0008239820599555969;0.01630759984254837;0.0009512811084277928
-0.008056640625;-0.1243896484375;-1.0224456787109375;-0.0008239820599555969;0.01630759984254837;0.0009512811084277928
-0.008056640625;-0.1243896484375;-1.0224456787109375;-0.0008239820599555969;0.01630759984254837;0.0009512811084277928
-0.008056640625;-0.1243896484375;-1.0224456787109375;-0.0008239820599555969;0.01630759984254837;0.0009512811084277928
-0.008056640625;-0.1243896484375;-1.0224456787109375;0.0013049489352852106;0.002100967802107334;-0.0015150723047554493
-0.008056640625;-0.1243896484375;-1.0224456787109375;0.0013049489352852106;0.002100967802107334;-0.0015150723047554493
-0.0133209228515625;-0.1241455078125;-1.0288848876953125;0.0013049489352852106;0.002100967802107334;-0.0015150723047554493
-0.0133209228515625;-0.1241455078125;-1.0288848876953125;0.0013049489352852106;0.002100967802107334;-0.0015150723047554493
-0.0133209228515625;-0.1241455078125;-1.0288848876953125;0.0013049489352852106;0.002100967802107334;-0.0015150723047554493
-0.0133209228515625;-0.1241455078125;-1.0288848876953125;-0.020298613235354424;0.0015448997728526592;0.00011185276525793597
-0.0133209228515625;-0.1241455078125;-1.0288848876953125;-0.020298613235354424;0.0015448997728526592;0.00011185276525793597
-0.0148773193359375;-0.126861572265625;-1.02203369140625;-0.020298613235354424;0.0015448997728526592;0.00011185276525793597
-0.0148773193359375;-0.126861572265625;-1.02203369140625;-0.020298613235354424;0.0015448997728526592;0.00011185276525793597
-0.0148773193359375;-0.126861572265625;-1.02203369140625;-0.020298613235354424;0.0015448997728526592;0.00011185276525793597
-0.0148773193359375;-0.126861572265625;-1.02203369140625;-0.026555711403489113;-0.0030748858116567135;0.00014993596414569765
-0.0148773193359375;-0.126861572265625;-1.02203369140625;-0.026555711403489113;-0.0030748858116567135;0.00014993596414569765
-0.0147247314453125;-0.1269989013671875;-1.0006866455078125;-0.026555711403489113;-0.0030748858116567135;0.00014993596414569765
-0.0147247314453125;-0.1269989013671875;-1.0006866455078125;-0.026555711403489113;-0.0030748858116567135;0.00014993596414569765
-0.0147247314453125;-0.1269989013671875;-1.0006866455078125;-0.026555711403489113;-0.0030748858116567135;0.00014993596414569765
-0.0147247314453125;-0.1269989013671875;-1.0006866455078125;-0.02720578759908676;-4.900216299574822e-05;-4.660531703848392e-05
-0.0147247314453125;-0.1269989013671875;-1.0006866455078125;-0.02720578759908676;-4.900216299574822e-05;-4.660531703848392e-05
-0.0119171142578125;-0.126220703125;-0.9990997314453125;-0.02720578759908676;-4.900216299574822e-05;-4.660531703848392e-05
-0.0119171142578125;-0.126220703125;-0.9990997314453125;-0.02720578759908676;-4.900216299574822e-05;-4.660531703848392e-05
-0.0119171142578125;-0.126220703125;-0.9990997314453125;-0.02720578759908676;-4.900216299574822e-05;-4.660531703848392e-05
-0.0119171142578125;-0.126220703125;-0.9990997314453125;-0.01275494322180748;0.00443975580856204;-0.003087935270741582
-0.0119171142578125;-0.126220703125;-0.9990997314453125;-0.01275494322180748;0.00443975580856204;-0.003087935270741582
-0.0100250244140625;-0.124267578125;-0.99365234375;-0.01275494322180748;0.00443975580856204;-0.003087935270741582
-0.0100250244140625;-0.124267578125;-0.99365234375;-0.01275494322180748;0.00443975580856204;-0.003087935270741582
-0.0100250244140625;-0.124267578125;-0.99365234375;-0.01275494322180748;0.00443975580856204;-0.003087935270741582
-0.0100250244140625;-0.124267578125;-0.99365234375;0.008744489401578903;0.005510612856596708;-0.003540406236425042
-0.0100250244140625;-0.124267578125;-0.99365234375;0.008744489401578903;0.005510612856596708;-0.003540406236425042
-0.0092010498046875;-0.1220855712890625;-1.0064544677734375;0.008744489401578903;0.005510612856596708;-0.003540406236425042
-0.0092010498046875;-0.1220855712890625;-1.0064544677734375;0.008744489401578903;0.005510612856596708;-0.003540406236425042
-0.0092010498046875;-0.1220855712890625;-1.0064544677734375;0.008744489401578903;0.005510612856596708;-0.003540406236425042
-0.0092010498046875;-0.1220855712890625;-1.0064544677734375;0.022067485377192497;0.007810518611222506;-0.0028522454667836428
-0.0092010498046875;-0.1220855712890625;-1.0064544677734375;0.022067485377192497;0.007810518611222506;-0.0028522454667836428
-0.011322021484375;-0.1224517822265625;-1.01654052734375;0.022067485377192497;0.007810518611222506;-0.0028522454667836428
-0.011322021484375;-0.1224517822265625;-1.01654052734375;0.022067485377192497;0.007810518611222506;-0.0028522454667836428
-0.011322021484375;-0.1224517822265625;-1.01654052734375;0.022067485377192497;0.007810518611222506;-0.0028522454667836428
-0.011322021484375;-0.1224517822265625;-1.01654052734375;0.02809634990990162;0.007712248247116804;-0.0032538501545786858
-0.011322021484375;-0.1224517822265625;-1.01654052734375;0.02809634990990162;0.007712248247116804;-0.0032538501545786858
-0.01116943359375;-0.1254425048828125;-1.026458740234375;0.02809634990990162;0.007712248247116804;-0.0032538501545786858
-0.01116943359375;-0.1254425048828125;-1.026458740234375;0.02809634990990162;0.007712248247116804;-0.0032538501545786858
-0.01116943359375;-0.1254425048828125;-1.026458740234375;0.02809634990990162;0.007712248247116804;-0.0032538501545786858
-0.01116943359375;-0.1254425048828125;-1.026458740234375;0.011549330316483974;0.0054304515942931175;-0.005420598201453686
-0.01116943359375;-0.1254425048828125;-1.026458740234375;0.011549330316483974;0.0054304515942931175;-0.005420598201453686
-0.0107879638671875;-0.1289215087890625;-1.021240234375;0.011549330316483974;0.0054304515942931175;-0.005420598201453686
-0.0107879638671875;-0.1289215087890625;-1.021240234375;0.011549330316483974;0.0054304515942931175;-0.005420598201453686
-0.0107879638671875;-0.1289215087890625;-1.021240234375;0.011549330316483974;0.0054304515942931175;-0.005420598201453686
-0.0107879638671875;-0.1289215087890625;-1.021240234375;0.0008530105114914477;0.006989466026425362;-0.0036272252909839153
-0.0107879638671875;-0.1289215087890625;-1.021240234375;0.0008530105114914477;0.006989466026425362;-0.0036272252909839153
-0.00823974609375;-0.13409423828125;-1.014617919921875;0.0008530105114914477;0.006989466026425362;-0.0036272252909839153
-0.00823974609375;-0.13409423828125;-1.014617919921875;0.0008530105114914477;0.006989466026425362;-0.0036272252909839153
-0.00823974609375;-0.13409423828125;-1.014617919921875;0.0008530105114914477;0.006989466026425362;-0.0036272252909839153
-0.00823974609375;-0.13409423828125;-1.014617919921875;-0.015343003906309605;0.004929244983941317;0.0022098910994827747
-0.00823974609375;-0.13409423828125;-1.014617919921875;-0.015343003906309605;0.004929244983941317;0.0022098910994827747
-0.0063629150390625;-0.13800048828125;-1.00823974609375;-0.015343003906309605;0.004929244983941317;0.0022098910994827747
-0.0063629150390625;-0.13800048828125;-1.00823974609375;-0.015343003906309605;0.004929244983941317;0.0022098910994827747
-0.0063629150390625;-0.13800048828125;-1.00823974609375;-0.015343003906309605;0.004929244983941317;0.0022098910994827747
-0.0063629150390625;-0.13800048828125;-1.00823974609375;-0.021570272743701935;0.003341468283906579;0.006448578089475632
-0.0063629150390625;-0.13800048828125;-1.00823974609375;-0.021570272743701935;0.003341468283906579;0.006448578089475632
-0.00555419921875;-0.1403961181640625;-1.0038909912109375;-0.021570272743701935;0.003341468283906579;0.006448578089475632
-0.00555419921875;-0.1403961181640625;-1.0038909912109375;-0.021570272743701935;0.003341468283906579;0.006448578089475632
-0.00555419921875;-0.1403961181640625;-1.0038909912109375;-0.021570272743701935;0.003341468283906579;0.006448578089475632
-0.00555419921875;-0.1403961181640625;-1.0038909912109375;-0.022772157564759254;0.00523737259209156;0.008641159161925316
-0.00555419921875;-0.1403961181640625;-1.0038909912109375;-0.022772157564759254;0.00523737259209156;0.008641159161925316
-0.007354736328125;-0.1381072998046875;-1.0055389404296875;-0.022772157564759254;0.00523737259209156;0.008641159161925316
-0.007354736328125;-0.1381072998046875;-1.0055389404296875;-0.022772157564759254;0.00523737259209156;0.008641159161925316
-0.007354736328125;-0.1381072998046875;-1.0055389404296875;-0.022772157564759254;0.00523737259209156;0.008641159161925316
-0.007354736328125;-0.1381072998046875;-1.0055389404296875;-0.018561167642474174;0.008341552689671516;0.012883041985332966
-0.007354736328125;-0.1381072998046875;-1.0055389404296875;-0.018561167642474174;0.008341552689671516;0.012883041985332966
-0.0103302001953125;-0.1327056884765625;-1.0065155029296875;-0.018561167642474174;0.008341552689671516;0.012883041985332966
-0.0103302001953125;-0.1327056884765625;-1.0065155029296875;-0.018561167642474174;0.008341552689671516;0.012883041985332966
-0.0103302001953125;-0.1327056884765625;-1.0065155029296875;-0.018561167642474174;0.008341552689671516;0.012883041985332966
-0.0103302001953125;-0.1327056884765625;-1.0065155029296875;-0.01531743723899126;0.016271380707621574;0.010313889943063259
-0.0103302001953125;-0.1327056884765625;-1.0065155029296875;-0.01531743723899126;0.016271380707621574;0.010313889943063259
-0.0115203857421875;-0.1269073486328125;-1.0082550048828125;-0.01531743723899126;0.016271380707621574;0.010313889943063259
-0.0115203857421875;-0.1269073486328125;-1.0082550048828125;-0.01531743723899126;0.016271380707621574;0.010313889943063259
-0.0115203857421875;-0.1269073486328125;-1.0082550048828125;-0.01531743723899126;0.016271380707621574;0.010313889943063259
-0.0115203857421875;-0.1269073486328125;-1.0082550048828125;-0.011126154102385044;0.022584671154618263;0.008440090343356133
-0.0115203857421875;-0.1269073486328125;-1.0082550048828125;-0.011126154102385044;0.022584671154618263;0.008440090343356133
-0.012969970703125;-0.120513916015625;-1.0084381103515625;-0.011126154102385044;0.022584671154618263;0.008440090343356133
-0.012969970703125;-0.120513916015625;-1.0084381103515625;-0.011126154102385044;0.022584671154618263;0.008440090343356133
-0.012969970703125;-0.120513916015625;-1.0084381103515625;-0.011126154102385044;0.022584671154618263;0.008440090343356133
-0.012969970703125;-0.120513916015625;-1.0084381103515625;-0.009631055407226086;0.02630111202597618;0.004057592246681452
-0.012969970703125;-0.120513916015625;-1.0084381103515625;-0.009631055407226086;0.02630111202597618;0.004057592246681452
-0.0115509033203125;-0.116729736328125;-1.008575439453125;-0.009631055407226086;0.02630111202597618;0.004057592246681452
-0.0115509033203125;-0.116729736328125;-1.008575439453125;-0.009631055407226086;0.02630111202597618;0.004057592246681452
-0.0115509033203125;-0.116729736328125;-1.008575439453125;-0.009631055407226086;0.02630111202597618;0.004057592246681452
-0.0115509033203125;-0.116729736328125;-1.008575439453125;-0.005122323986142874;0.02546088583767414;0.0019923108629882336
-0.0115509033203125;-0.116729736328125;-1.008575439453125;-0.005122323986142874;0.02546088583767414;0.0019923108629882336
-0.0103759765625;-0.1175994873046875;-1.010040283203125;-0.005122323986142874;0.02546088583767414;0.0019923108629882336
-0.0103759765625;-0.1175994873046875;-1.010040283203125;-0.005122323986142874;0.02546088583767414;0.0019923108629882336
-0.0103759765625;-0.1175994873046875;-1.010040283203125;-0.005122323986142874;0.02546088583767414;0.0019923108629882336
-0.0103759765625;-0.1175994873046875;-1.010040283203125;-0.001734783174470067;0.025416675955057144;-0.00038216362008824944
-0.0103759765625;-0.1175994873046875;-1.010040283203125;-0.001734783174470067;0.025416675955057144;-0.00038216362008824944
-0.0075531005859375;-0.118896484375;-1.01324462890625;-0.001734783174470067;0.025416675955057144;-0.00038216362008824944
-0.0075531005859375;-0.118896484375;-1.01324462890625;-0.001734783174470067;0.025416675955057144;-0.00038216362008824944
-0.0075531005859375;-0.118896484375;-1.01324462890625;-0.001734783174470067;0.025416675955057144;-0.00038216362008824944
-0.0075531005859375;-0.118896484375;-1.01324462890625;-0.0005677859298884869;0.02863563969731331;0.0010548781137913465
-0.0075531005859375;-0.118896484375;-1.01324462890625;-0.0005677859298884869;0.02863563969731331;0.0010548781137913465
-0.0057830810546875;-0.12054443359375;-1.01318359375;-0.0005677859298884869;0.02863563969731331;0.0010548781137913465
-0.0057830810546875;-0.12054443359375;-1.01318359375;-0.0005677859298884869;0.02863563969731331;0.0010548781137913465
-0.0057830810546875;-0.12054443359375;-1.01318359375;-0.0005677859298884869;0.02863563969731331;0.0010548781137913465
-0.0057830810546875;-0.12054443359375;-1.01318359375;-0.004295146092772484;0.024762870743870735;-0.0026636936236172915
-0.0057830810546875;-0.12054443359375;-1.01318359375;-0.004295146092772484;0.024762870743870735;-0.0026636936236172915
-0.0060577392578125;-0.1231842041015625;-1.010406494140625;-0.004295146092772484;0.024762870743870735;-0.0026636936236172915
-0.0060577392578125;-0.1231842041015625;-1.010406494140625;-0.004295146092772484;0.024762870743870735;-0.0026636936236172915
-0.0060577392578125;-0.1231842041015625;-1.010406494140625;-0.004295146092772484;0.024762870743870735;-0.0026636936236172915
-0.0060577392578125;-0.1231842041015625;-1.010406494140625;-0.010373012162744999;0.020489562302827835;-0.0026059031952172518
-0.0060577392578125;-0.1231842041015625;-1.010406494140625;-0.010373012162744999;0.020489562302827835;-0.0026059031952172518
-0.005828857421875;-0.1258087158203125;-1.00750732421875;-0.010373012162744999;0.020489562302827835;-0.0026059031952172518
-0.005828857421875;-0.1258087158203125;-1.00750732421875;-0.010373012162744999;0.020489562302827835;-0.0026059031952172518
-0.005828857421875;-0.1258087158203125;-1.00750732421875;-0.010373012162744999;0.020489562302827835;-0.0026059031952172518
-0.005828857421875;-0.1258087158203125;-1.00750732421875;-0.019457587972283363;0.018079668283462524;-0.0017454357584938407
-0.005828857421875;-0.1258087158203125;-1.00750732421875;-0.019457587972283363;0.018079668283462524;-0.0017454357584938407
-0.0054931640625;-0.1262054443359375;-1.0074005126953125;-0.019457587972283363;0.018079668283462524;-0.0017454357584938407
-0.0054931640625;-0.1262054443359375;-1.0074005126953125;-0.019457587972283363;0.018079668283462524;-0.0017454357584938407
-0.0054931640625;-0.1262054443359375;-1.0074005126953125;-0.019457587972283363;0.018079668283462524;-0.0017454357584938407
-0.0054931640625;-0.1262054443359375;-1.0074005126953125;-0.01907995156943798;0.016708938404917717;0.0014860439114272594
-0.0054931640625;-0.1262054443359375;-1.0074005126953125;-0.01907995156943798;0.016708938404917717;0.0014860439114272594
-0.00445556640625;-0.1244354248046875;-1.00604248046875;-0.01907995156943798;0.016708938404917717;0.0014860439114272594
-0.00445556640625;-0.1244354248046875;-1.00604248046875;-0.01907995156943798;0.016708938404917717;0.0014860439114272594
-0.00445556640625;-0.1244354248046875;-1.00604248046875;-0.01907995156943798;0.016708938404917717;0.0014860439114272594
-0.00445556640625;-0.1244354248046875;-1.00604248046875;-0.017598168924450874;0.020965203642845154;-0.00027270769351162016
-0.00445556640625;-0.1244354248046875;-1.00604248046875;-0.017598168924450874;0.020965203642845154;-0.00027270769351162016
-0.004669189453125;-0.1238250732421875;-1.0068359375;-0.017598168924450874;0.020965203642845154;-0.00027270769351162016
-0.004669189453125;-0.1238250732421875;-1.0068359375;-0.017598168924450874;0.020965203642845154;-0.00027270769351162016
-0.004669189453125;-0.1238250732421875;-1.0068359375;-0.017598168924450874;0.020965203642845154;-0.00027270769351162016
-0.004669189453125;-0.1238250732421875;-1.0068359375;-0.017369935289025307;0.02292262576520443;-3.5952674807049334e-05
-0.004669189453125;-0.1238250732421875;-1.0068359375;-0.017369935289025307;0.02292262576520443;-3.5952674807049334e-05
-0.0039215087890625;-0.12322998046875;-1.00543212890625;-0.017369935289025307;0.02292262576520443;-3.5952674807049334e-05
-0.0039215087890625;-0.12322998046875;-1.00543212890625;-0.017369935289025307;0.02292262576520443;-3.5952674807049334e-05
-0.0039215087890625;-0.12322998046875;-1.00543212890625;-0.017369935289025307;0.02292262576520443;-3.5952674807049334e-05
-0.0039215087890625;-0.12322998046875;-1.00543212890625;-0.017783258110284805;0.018264224752783775;-0.000963797967415303
-0.0039215087890625;-0.12322998046875;-1.00543212890625;-0.017783258110284805;0.018264224752783775;-0.000963797967415303
-0.004364013671875;-0.1240692138671875;-1.0074462890625;-0.017783258110284805;0.018264224752783775;-0.000963797967415303
-0.004364013671875;-0.1240692138671875;-1.0074462890625;-0.017783258110284805;0.018264224752783775;-0.000963797967415303
-0.004364013671875;-0.1240692138671875;-1.0074462890625;-0.017783258110284805;0.018264224752783775;-0.000963797967415303
-0.004364013671875;-0.1240692138671875;-1.0074462890625;-0.011355452239513397;0.021628595888614655;-0.0021795309148728848
-0.004364013671875;-0.1240692138671875;-1.0074462890625;-0.011355452239513397;0.021628595888614655;-0.0021795309148728848
-0.0034942626953125;-0.1261749267578125;-1.0109405517578125;-0.011355452239513397;0.021628595888614655;-0.0021795309148728848
-0.0034942626953125;-0.1261749267578125;-1.0109405517578125;-0.011355452239513397;0.021628595888614655;-0.0021795309148728848
-0.0034942626953125;-0.1261749267578125;-1.0109405517578125;-0.011355452239513397;0.021628595888614655;-0.0021795309148728848
-0.0034942626953125;-0.1261749267578125;-1.0109405517578125;-0.01136876828968525;0.020844295620918274;-0.00224903947673738
-0.0034942626953125;-0.1261749267578125;-1.0109405517578125;-0.01136876828968525;0.020844295620918274;-0.00224903947673738
-0.0017852783203125;-0.1282501220703125;-1.01104736328125;-0.01136876828968525;0.020844295620918274;-0.00224903947673738
-0.0017852783203125;-0.1282501220703125;-1.01104736328125;-0.01136876828968525;0.020844295620918274;-0.00224903947673738
-0.0017852783203125;-0.1282501220703125;-1.01104736328125;-0.01136876828968525;0.020844295620918274;-0.00224903947673738
-0.0017852783203125;-0.1282501220703125;-1.01104736328125;-0.010336526669561863;0.015323828905820847;0.0016492956783622503
-0.0017852783203125;-0.1282501220703125;-1.01104736328125;-0.010336526669561863;0.015323828905820847;0.0016492956783622503
-0.00286865234375;-0.1293487548828125;-1.013427734375;-0.010336526669561863;0.015323828905820847;0.0016492956783622503
-0.00286865234375;-0.1293487548828125;-1.013427734375;-0.010336526669561863;0.015323828905820847;0.0016492956783622503
-0.00286865234375;-0.1293487548828125;-1.013427734375;-0.010336526669561863;0.015323828905820847;0.0016492956783622503
-0.00286865234375;-0.1293487548828125;-1.013427734375;-0.014093448407948017;0.004317516926676035;0.001907089608721435
-0.00286865234375;-0.1293487548828125;-1.013427734375;-0.014093448407948017;0.004317516926676035;0.001907089608721435
-0.001983642578125;-0.129913330078125;-1.0172271728515625;-0.014093448407948017;0.004317516926676035;0.001907089608721435
-0.001983642578125;-0.129913330078125;-1.0172271728515625;-0.014093448407948017;0.004317516926676035;0.001907089608721435
-0.001983642578125;-0.129913330078125;-1.0172271728515625;-0.014093448407948017;0.004317516926676035;0.001907089608721435
-0.001983642578125;-0.129913330078125;-1.0172271728515625;-0.01619814522564411;-0.003367300843819976;0.003221625927835703
-0.001983642578125;-0.129913330078125;-1.0172271728515625;-0.01619814522564411;-0.003367300843819976;0.003221625927835703
-0.0032196044921875;-0.1302032470703125;-1.0162200927734375;-0.01619814522564411;-0.003367300843819976;0.003221625927835703
-0.0032196044921875;-0.1302032470703125;-1.0162200927734375;-0.01619814522564411;-0.003367300843819976;0.003221625927835703
-0.0032196044921875;-0.1302032470703125;-1.0162200927734375;-0.03051529824733734;-6.73779723001644e-05;0.0034144388046115637
-0.0032196044921875;-0.1302032470703125;-1.0162200927734375;-0.03051529824733734;-6.73779723001644e-05;0.0034144388046115637
-0.0032196044921875;-0.1302032470703125;-1.0162200927734375;-0.03051529824733734;-6.73779723001644e-05;0.0034144388046115637
-0.0040435791015625;-0.1305389404296875;-1.0124664306640625;-0.03051529824733734;-6.73779723001644e-05;0.0034144388046115637
-0.0040435791015625;-0.1305389404296875;-1.0124664306640625;-0.03051529824733734;-6.73779723001644e-05;0.0034144388046115637
-0.0040435791015625;-0.1305389404296875;-1.0124664306640625;-0.028798092156648636;0.0031886028591543436;0.004653075244277716
-0.0040435791015625;-0.1305389404296875;-1.0124664306640625;-0.028798092156648636;0.0031886028591543436;0.004653075244277716
-0.0019683837890625;-0.1280670166015625;-1.0041351318359375;-0.028798092156648636;0.0031886028591543436;0.004653075244277716
-0.0019683837890625;-0.1280670166015625;-1.0041351318359375;-0.028798092156648636;0.0031886028591543436;0.004653075244277716
-0.0019683837890625;-0.1280670166015625;-1.0041351318359375;-0.028798092156648636;0.0031886028591543436;0.004653075244277716
-0.0019683837890625;-0.1280670166015625;-1.0041351318359375;-0.022913038730621338;0.005662412848323584;0.0073050507344305515
-0.0019683837890625;-0.1280670166015625;-1.0041351318359375;-0.022913038730621338;0.005662412848323584;0.0073050507344305515
-0.002960205078125;-0.1241455078125;-1.0076141357421875;-0.022913038730621338;0.005662412848323584;0.0073050507344305515
-0.002960205078125;-0.1241455078125;-1.0076141357421875;-0.022913038730621338;0.005662412848323584;0.0073050507344305515
-0.002960205078125;-0.1241455078125;-1.0076141357421875;-0.022913038730621338;0.005662412848323584;0.0073050507344305515
-0.002960205078125;-0.1241455078125;-1.0076141357421875;-0.011468903161585331;-0.005284244194626808;0.003605121048167348
-0.002960205078125;-0.1241455078125;-1.0076141357421875;-0.011468903161585331;-0.005284244194626808;0.003605121048167348
-0.002960205078125;-0.1241455078125;-1.0076141357421875;-0.011468903161585331;-0.005284244194626808;0.003605121048167348
-0.005218505859375;-0.1209564208984375;-1.01104736328125;-0.011468903161585331;-0.005284244194626808;0.003605121048167348
-0.005218505859375;-0.1209564208984375;-1.01104736328125;-0.011468903161585331;-0.005284244194626808;0.003605121048167348
-0.005218505859375;-0.1209564208984375;-1.01104736328125;0.0009161274065263569;-0.011501393280923367;-0.00045034053619019687
-0.005218505859375;-0.1209564208984375;-1.01104736328125;0.0009161274065263569;-0.011501393280923367;-0.00045034053619019687
-0.0081939697265625;-0.1182098388671875;-1.012542724609375;0.0009161274065263569;-0.011501393280923367;-0.00045034053619019687
-0.0081939697265625;-0.1182098388671875;-1.012542724609375;0.0009161274065263569;-0.011501393280923367;-0.00045034053619019687
-0.0081939697265625;-0.1182098388671875;-1.012542724609375;0.0009161274065263569;-0.011501393280923367;-0.00045034053619019687
-0.0081939697265625;-0.1182098388671875;-1.012542724609375;0.010588196106255054;-0.009706955403089523;0.0026021746452897787
-0.0081939697265625;-0.1182098388671875;-1.012542724609375;0.010588196106255054;-0.009706955403089523;0.0026021746452897787
-0.0094757080078125;-0.1171722412109375;-1.0109405517578125;0.010588196106255054;-0.009706955403089523;0.0026021746452897787
-0.0094757080078125;-0.1171722412109375;-1.0109405517578125;0.010588196106255054;-0.009706955403089523;0.0026021746452897787
-0.0094757080078125;-0.1171722412109375;-1.0109405517578125;0.010588196106255054;-0.009706955403089523;0.0026021746452897787
-0.0094757080078125;-0.1171722412109375;-1.0109405517578125;0.016564330086112022;0.004097007215023041;0.0030565098859369755
-0.0094757080078125;-0.1171722412109375;-1.0109405517578125;0.016564330086112022;0.004097007215023041;0.0030565098859369755
-0.0094757080078125;-0.1171722412109375;-1.0109405517578125;0.016564330086112022;0.004097007215023041;0.0030565098859369755
-0.00909423828125;-0.1175384521484375;-1.0073394775390625;0.016564330086112022;0.004097007215023041;0.0030565098859369755
-0.00909423828125;-0.1175384521484375;-1.0073394775390625;0.016564330086112022;0.004097007215023041;0.0030565098859369755
-0.00909423828125;-0.1175384521484375;-1.0073394775390625;0.01998702436685562;0.0057159424759447575;0.0025337315164506435
-0.00909423828125;-0.1175384521484375;-1.0073394775390625;0.01998702436685562;0.0057159424759447575;0.0025337315164506435
-0.007781982421875;-0.1211700439453125;-1.0110015869140625;0.01998702436685562;0.0057159424759447575;0.0025337315164506435
-0.007781982421875;-0.1211700439453125;-1.0110015869140625;0.01998702436685562;0.0057159424759447575;0.0025337315164506435
-0.007781982421875;-0.1211700439453125;-1.0110015869140625;0.01998702436685562;0.0057159424759447575;0.0025337315164506435
-0.007781982421875;-0.1211700439453125;-1.0110015869140625;0.017308682203292847;0.0067782774567604065;0.005931125953793526
-0.007781982421875;-0.1211700439453125;-1.0110015869140625;0.017308682203292847;0.0067782774567604065;0.005931125953793526
-0.0065765380859375;-0.124847412109375;-1.0153045654296875;0.017308682203292847;0.0067782774567604065;0.005931125953793526
-0.0065765380859375;-0.124847412109375;-1.0153045654296875;0.017308682203292847;0.0067782774567604065;0.005931125953793526
-0.0065765380859375;-0.124847412109375;-1.0153045654296875;0.017308682203292847;0.0067782774567604065;0.005931125953793526
-0.0065765380859375;-0.124847412109375;-1.0153045654296875;0.009721336886286736;0.005242965184152126;0.0054395063780248165
-0.0065765380859375;-0.124847412109375;-1.0153045654296875;0.009721336886286736;0.005242965184152126;0.0054395063780248165
-0.006683349609375;-0.1275177001953125;-1.0110321044921875;0.009721336886286736;0.005242965184152126;0.0054395063780248165
-0.006683349609375;-0.1275177001953125;-1.0110321044921875;0.009721336886286736;0.005242965184152126;0.0054395063780248165
-0.006683349609375;-0.1275177001953125;-1.0110321044921875;0.009721336886286736;0.005242965184152126;0.0054395063780248165
-0.006683349609375;-0.1275177001953125;-1.0110321044921875;0.0051984903402626514;0.005682386923581362;0.00523737259209156
-0.006683349609375;-0.1275177001953125;-1.0110321044921875;0.0051984903402626514;0.005682386923581362;0.00523737259209156
-0.007354736328125;-0.13055419921875;-1.0107269287109375;0.0051984903402626514;0.005682386923581362;0.00523737259209156
-0.007354736328125;-0.13055419921875;-1.0107269287109375;0.0051984903402626514;0.005682386923581362;0.00523737259209156
-0.007354736328125;-0.13055419921875;-1.0107269287109375;0.0051984903402626514;0.005682386923581362;0.00523737259209156
-0.007354736328125;-0.13055419921875;-1.0107269287109375;0.008828645572066307;0.006807572208344936;0.003245594445616007
-0.007354736328125;-0.13055419921875;-1.0107269287109375;0.008828645572066307;0.006807572208344936;0.003245594445616007
-0.0075531005859375;-0.132080078125;-1.0130157470703125;0.008828645572066307;0.006807572208344936;0.003245594445616007
-0.0075531005859375;-0.132080078125;-1.0130157470703125;0.008828645572066307;0.006807572208344936;0.003245594445616007
-0.0075531005859375;-0.132080078125;-1.0130157470703125;0.008828645572066307;0.006807572208344936;0.003245594445616007
-0.0075531005859375;-0.132080078125;-1.0130157470703125;0.00552259711548686;0.008476043120026588;0.005819006823003292
-0.0075531005859375;-0.132080078125;-1.0130157470703125;0.00552259711548686;0.008476043120026588;0.005819006823003292
-0.008697509765625;-0.13079833984375;-1.0135040283203125;0.00552259711548686;0.008476043120026588;0.005819006823003292
-0.008697509765625;-0.13079833984375;-1.0135040283203125;0.00552259711548686;0.008476043120026588;0.005819006823003292
-0.008697509765625;-0.13079833984375;-1.0135040283203125;0.00552259711548686;0.008476043120026588;0.005819006823003292
-0.008697509765625;-0.13079833984375;-1.0135040283203125;-0.001178448786959052;0.009924801997840405;0.00586587842553854
-0.008697509765625;-0.13079833984375;-1.0135040283203125;-0.001178448786959052;0.009924801997840405;0.00586587842553854
-0.009307861328125;-0.1302337646484375;-1.0107574462890625;-0.001178448786959052;0.009924801997840405;0.00586587842553854
-0.009307861328125;-0.1302337646484375;-1.0107574462890625;-0.001178448786959052;0.009924801997840405;0.00586587842553854
-0.009307861328125;-0.1302337646484375;-1.0107574462890625;-0.001178448786959052;0.009924801997840405;0.00586587842553854
-0.009307861328125;-0.1302337646484375;-1.0107574462890625;-0.004297010600566864;0.011110441759228706;0.007689611054956913
-0.009307861328125;-0.1302337646484375;-1.0107574462890625;-0.004297010600566864;0.011110441759228706;0.007689611054956913
-0.00738525390625;-0.12774658203125;-1.0070343017578125;-0.004297010600566864;0.011110441759228706;0.007689611054956913
-0.00738525390625;-0.12774658203125;-1.0070343017578125;-0.004297010600566864;0.011110441759228706;0.007689611054956913
-0.00738525390625;-0.12774658203125;-1.0070343017578125;-0.004297010600566864;0.011110441759228706;0.007689611054956913
-0.00738525390625;-0.12774658203125;-1.0070343017578125;-0.008584433235228062;0.004785700235515833;0.003820570884272456
-0.00738525390625;-0.12774658203125;-1.0070343017578125;-0.008584433235228062;0.004785700235515833;0.003820570884272456
-0.0052032470703125;-0.1249542236328125;-1.0074462890625;-0.008584433235228062;0.004785700235515833;0.003820570884272456
-0.0052032470703125;-0.1249542236328125;-1.0074462890625;-0.008584433235228062;0.004785700235515833;0.003820570884272456
-0.0052032470703125;-0.1249542236328125;-1.0074462890625;-0.008584433235228062;0.004785700235515833;0.003820570884272456
-0.0052032470703125;-0.1249542236328125;-1.0074462890625;-0.012323511764407158;-0.0015102786710485816;0.005082110408693552
-0.0052032470703125;-0.1249542236328125;-1.0074462890625;-0.012323511764407158;-0.0015102786710485816;0.005082110408693552
-0.0035858154296875;-0.123748779296875;-1.0083160400390625;-0.012323511764407158;-0.0015102786710485816;0.005082110408693552
-0.0035858154296875;-0.123748779296875;-1.0083160400390625;-0.012323511764407158;-0.0015102786710485816;0.005082110408693552
-0.0035858154296875;-0.123748779296875;-1.0083160400390625;-0.012323511764407158;-0.0015102786710485816;0.005082110408693552
-0.0035858154296875;-0.123748779296875;-1.0083160400390625;-0.01744397170841694;-0.0025632926262915134;0.0038863508962094784
-0.0035858154296875;-0.123748779296875;-1.0083160400390625;-0.01744397170841694;-0.0025632926262915134;0.0038863508962094784
-0.0010986328125;-0.122955322265625;-1.007537841796875;-0.01744397170841694;-0.0025632926262915134;0.0038863508962094784
-0.0010986328125;-0.122955322265625;-1.007537841796875;-0.01744397170841694;-0.0025632926262915134;0.0038863508962094784
-0.0010986328125;-0.122955322265625;-1.007537841796875;-0.01744397170841694;-0.0025632926262915134;0.0038863508962094784
-0.0010986328125;-0.122955322265625;-1.007537841796875;-0.020667994394898415;0.0033518546260893345;0.0017683389596641064
-0.0010986328125;-0.122955322265625;-1.007537841796875;-0.020667994394898415;0.0033518546260893345;0.0017683389596641064
-0.0009765625;-0.12139892578125;-1.005859375;-0.020667994394898415;0.0033518546260893345;0.0017683389596641064
-0.0009765625;-0.12139892578125;-1.005859375;-0.020667994394898415;0.0033518546260893345;0.0017683389596641064
-0.0009765625;-0.12139892578125;-1.005859375;-0.020667994394898415;0.0033518546260893345;0.0017683389596641064
-0.0009765625;-0.12139892578125;-1.005859375;-0.021152157336473465;0.0013997574569657445;0.001332645770162344
-0.0009765625;-0.12139892578125;-1.005859375;-0.021152157336473465;0.0013997574569657445;0.001332645770162344
-0.0009307861328125;-0.1202239990234375;-1.003997802734375;-0.021152157336473465;0.0013997574569657445;0.001332645770162344
-0.0009307861328125;-0.1202239990234375;-1.003997802734375;-0.021152157336473465;0.0013997574569657445;0.001332645770162344
-0.0009307861328125;-0.1202239990234375;-1.003997802734375;-0.021152157336473465;0.0013997574569657445;0.001332645770162344
-0.0009307861328125;-0.1202239990234375;-1.003997802734375;-0.01715049147605896;0.0017994979862123728;-0.0011116034584119916
-0.0009307861328125;-0.1202239990234375;-1.003997802734375;-0.01715049147605896;0.0017994979862123728;-0.0011116034584119916
-0.0009002685546875;-0.11810302734375;-1.0063323974609375;-0.01715049147605896;0.0017994979862123728;-0.0011116034584119916
-0.0009002685546875;-0.11810302734375;-1.0063323974609375;-0.01715049147605896;0.0017994979862123728;-0.0011116034584119916
-0.0009002685546875;-0.11810302734375;-1.0063323974609375;-0.01715049147605896;0.0017994979862123728;-0.0011116034584119916
-0.0009002685546875;-0.11810302734375;-1.0063323974609375;-0.01595393195748329;0.008025435730814934;-0.001023452845402062
-0.0009002685546875;-0.11810302734375;-1.0063323974609375;-0.01595393195748329;0.008025435730814934;-0.001023452845402062
0.00048828125;-0.117156982421875;-1.008209228515625;-0.01595393195748329;0.008025435730814934;-0.001023452845402062
0.00048828125;-0.117156982421875;-1.008209228515625;-0.01595393195748329;0.008025435730814934;-0.001023452845402062
0.00048828125;-0.117156982421875;-1.008209228515625;-0.01595393195748329;0.008025435730814934;-0.001023452845402062
0.00048828125;-0.117156982421875;-1.008209228515625;-0.016682041808962822;0.0172002911567688;-0.005752161610871553
0.00048828125;-0.117156982421875;-1.008209228515625;-0.016682041808962822;0.0172002911567688;-0.005752161610871553
0.000732421875;-0.117462158203125;-1.0051116943359375;-0.016682041808962822;0.0172002911567688;-0.005752161610871553
0.000732421875;-0.117462158203125;-1.0051116943359375;-0.016682041808962822;0.0172002911567688;-0.005752161610871553
0.000732421875;-0.117462158203125;-1.0051116943359375;-0.016682041808962822;0.0172002911567688;-0.005752161610871553
0.000732421875;-0.117462158203125;-1.0051116943359375;-0.0154340835288167;0.027243072167038918;-0.003990747034549713
0.000732421875;-0.117462158203125;-1.0051116943359375;-0.0154340835288167;0.027243072167038918;-0.003990747034549713
0.000732421875;-0.1174774169921875;-1.005279541015625;-0.0154340835288167;0.027243072167038918;-0.003990747034549713
0.000732421875;-0.1174774169921875;-1.005279541015625;-0.0154340835288167;0.027243072167038918;-0.003990747034549713
0.000732421875;-0.1174774169921875;-1.005279541015625;-0.0154340835288167;0.027243072167038918;-0.003990747034549713
0.000732421875;-0.1174774169921875;-1.005279541015625;-0.009077916853129864;0.024323714897036552;-0.004911401774734259
0.000732421875;-0.1174774169921875;-1.005279541015625;-0.009077916853129864;0.024323714897036552;-0.004911401774734259
0.000244140625;-0.11895751953125;-1.0081787109375;-0.009077916853129864;0.024323714897036552;-0.004911401774734259
0.000244140625;-0.11895751953125;-1.0081787109375;-0.009077916853129864;0.024323714897036552;-0.004911401774734259
0.000244140625;-0.11895751953125;-1.0081787109375;-0.009077916853129864;0.024323714897036552;-0.004911401774734259
0.000244140625;-0.11895751953125;-1.0081787109375;-0.011900601908564568;0.029636722058057785;-0.0035268242936581373
0.000244140625;-0.11895751953125;-1.0081787109375;-0.011900601908564568;0.029636722058057785;-0.0035268242936581373
-0.000244140625;-0.119720458984375;-1.008453369140625;-0.011900601908564568;0.029636722058057785;-0.0035268242936581373
-0.000244140625;-0.119720458984375;-1.008453369140625;-0.011900601908564568;0.029636722058057785;-0.0035268242936581373
-0.000244140625;-0.119720458984375;-1.008453369140625;-0.011900601908564568;0.029636722058057785;-0.0035268242936581373
-0.000244140625;-0.119720458984375;-1.008453369140625;-0.00968431867659092;0.02514450065791607;-0.006186256650835276
-0.000244140625;-0.119720458984375;-1.008453369140625;-0.00968431867659092;0.02514450065791607;-0.006186256650835276
-0.000244140625;-0.120819091796875;-1.0115814208984375;-0.00968431867659092;0.02514450065791607;-0.006186256650835276
-0.000244140625;-0.120819091796875;-1.0115814208984375;-0.00968431867659092;0.02514450065791607;-0.006186256650835276
-0.000244140625;-0.120819091796875;-1.0115814208984375;-0.00968431867659092;0.02514450065791607;-0.006186256650835276
-0.000244140625;-0.120819091796875;-1.0115814208984375;-0.005949235521256924;0.028126442804932594;-0.0021664814557880163
-0.000244140625;-0.120819091796875;-1.0115814208984375;-0.005949235521256924;0.028126442804932594;-0.0021664814557880163
-0.0011138916015625;-0.12255859375;-1.0128173828125;-0.005949235521256924;0.028126442804932594;-0.0021664814557880163
-0.0011138916015625;-0.12255859375;-1.0128173828125;-0.005949235521256924;0.028126442804932594;-0.0021664814557880163
-0.0011138916015625;-0.12255859375;-1.0128173828125;-0.005949235521256924;0.028126442804932594;-0.0021664814557880163
-0.0011138916015625;-0.12255859375;-1.0128173828125;-0.004336957819759846;0.03125033155083656;0.0011792477453127503
-0.0011138916015625;-0.12255859375;-1.0128173828125;-0.004336957819759846;0.03125033155083656;0.0011792477453127503
-0.0015716552734375;-0.126312255859375;-1.0107269287109375;-0.004336957819759846;0.03125033155083656;0.0011792477453127503
-0.0015716552734375;-0.126312255859375;-1.0107269287109375;-0.004336957819759846;0.03125033155083656;0.0011792477453127503
-0.0015716552734375;-0.126312255859375;-1.0107269287109375;-0.008410529233515263;0.03177444264292717;0.0013073458103463054
-0.0015716552734375;-0.126312255859375;-1.0107269287109375;-0.008410529233515263;0.03177444264292717;0.0013073458103463054
-0.0015411376953125;-0.128509521484375;-1.010040283203125;-0.008410529233515263;0.03177444264292717;0.0013073458103463054
-0.0015411376953125;-0.128509521484375;-1.010040283203125;-0.008410529233515263;0.03177444264292717;0.0013073458103463054
-0.0015411376953125;-0.128509521484375;-1.010040283203125;-0.008410529233515263;0.03177444264292717;0.0013073458103463054
-0.0015411376953125;-0.128509521484375;-1.010040283203125;-0.009259810671210289;0.030775222927331924;0.0030178942251950502
