Acell X;Acell Y;Acell Z;Gyro X;Gyro Y;Gyro Z

0.071380615234375;-0.06396484375;-1.0005950927734375;-0.0032980586402118206;0.023369770497083664;0.0007068029372021556
0.0698089599609375;-0.0599365234375;-1.010894775390625;0.009825998917222023;0.028314728289842606;0.0032613070216029882
0.0698089599609375;-0.0599365234375;-1.010894775390625;0.009825998917222023;0.028314728289842606;0.0032613070216029882
0.0698089599609375;-0.0599365234375;-1.010894775390625;0.009825998917222023;0.028314728289842606;0.0032613070216029882
0.0698089599609375;-0.0599365234375;-1.010894775390625;0.009825998917222023;0.028314728289842606;0.0032613070216029882
0.0698089599609375;-0.0599365234375;-1.010894775390625;0.009825998917222023;0.028314728289842606;0.0032613070216029882
0.0581817626953125;-0.0569000244140625;-1.0162506103515625;0.01423246506601572;0.027704065665602684;0.00056219327962026
0.0581817626953125;-0.0569000244140625;-1.0162506103515625;0.01423246506601572;0.027704065665602684;0.00056219327962026
0.0581817626953125;-0.0569000244140625;-1.0162506103515625;0.01423246506601572;0.027704065665602684;0.00056219327962026
0.0581817626953125;-0.0569000244140625;-1.0162506103515625;0.01423246506601572;0.027704065665602684;0.00056219327962026
0.0581817626953125;-0.0569000244140625;-1.0162506103515625;0.01423246506601572;0.027704065665602684;0.00056219327962026
0.0561676025390625;-0.0583648681640625;-1.0144195556640625;0.010248376056551933;0.03129986673593521;0.00044528054422698915
0.0561676025390625;-0.0583648681640625;-1.0144195556640625;0.010248376056551933;0.03129986673593521;0.00044528054422698915
0.0561676025390625;-0.0583648681640625;-1.0144195556640625;0.010248376056551933;0.03129986673593521;0.00044528054422698915
0.0561676025390625;-0.0583648681640625;-1.0144195556640625;0.010248376056551933;0.03129986673593521;0.00044528054422698915
0.0561676025390625;-0.0583648681640625;-1.0144195556640625;0.010248376056551933;0.03129986673593521;0.00044528054422698915
0.057159423828125;-0.0622711181640625;-1.00860595703125;0.005132710561156273;0.030488932505249977;0.000984570593573153
0.057159423828125;-0.0622711181640625;-1.00860595703125;0.005132710561156273;0.030488932505249977;0.000984570593573153
0.057159423828125;-0.0622711181640625;-1.00860595703125;0.005132710561156273;0.030488932505249977;0.000984570593573153
0.057159423828125;-0.0622711181640625;-1.00860595703125;0.005132710561156273;0.030488932505249977;0.000984570593573153
0.057159423828125;-0.0622711181640625;-1.00860595703125;0.005132710561156273;0.030488932505249977;0.000984570593573153
0.0590057373046875;-0.064208984375;-1.0086669921875;0.002495914464816451;0.03376169130206108;0.0002564624010119587
0.0590057373046875;-0.064208984375;-1.0086669921875;0.002495914464816451;0.03376169130206108;0.0002564624010119587
0.0590057373046875;-0.064208984375;-1.0086669921875;0.002495914464816451;0.03376169130206108;0.0002564624010119587
0.0590057373046875;-0.064208984375;-1.0086669921875;0.002495914464816451;0.03376169130206108;0.0002564624010119587
0.0590057373046875;-0.064208984375;-1.0086669921875;0.002495914464816451;0.03376169130206108;0.0002564624010119587
0.0615386962890625;-0.065185546875;-1.0097503662109375;-0.00022423815971706063;0.029350165277719498;0.00296276668086648
0.0615386962890625;-0.065185546875;-1.0097503662109375;-0.00022423815971706063;0.029350165277719498;0.00296276668086648
0.0615386962890625;-0.065185546875;-1.0097503662109375;-0.00022423815971706063;0.029350165277719498;0.00296276668086648
0.0615386962890625;-0.065185546875;-1.0097503662109375;-0.00022423815971706063;0.029350165277719498;0.00296276668086648
0.0615386962890625;-0.065185546875;-1.0097503662109375;-0.00022423815971706063;0.029350165277719498;0.00296276668086648
0.062957763671875;-0.0653076171875;-1.0104827880859375;0.0009763148264028132;0.02875468321144581;0.0007472829893231392
0.062957763671875;-0.0653076171875;-1.0104827880859375;0.0009763148264028132;0.02875468321144581;0.0007472829893231392
0.062957763671875;-0.0653076171875;-1.0104827880859375;0.0009763148264028132;0.02875468321144581;0.0007472829893231392
0.062957763671875;-0.0653076171875;-1.0104827880859375;0.0009763148264028132;0.02875468321144581;0.0007472829893231392
0.062957763671875;-0.0653076171875;-1.0104827880859375;0.0009763148264028132;0.02875468321144581;0.0007472829893231392
0.064544677734375;-0.0633697509765625;-1.010009765625;0.005107143893837929;0.025250760838389397;0.0013166668359190226
0.064544677734375;-0.0633697509765625;-1.010009765625;0.005107143893837929;0.025250760838389397;0.0013166668359190226
0.064544677734375;-0.0633697509765625;-1.010009765625;0.005107143893837929;0.025250760838389397;0.0013166668359190226
0.064544677734375;-0.0633697509765625;-1.010009765625;0.005107143893837929;0.025250760838389397;0.0013166668359190226
0.064544677734375;-0.0633697509765625;-1.010009765625;0.011943478137254715;0.022420354187488556;0.0012152004055678844
0.064727783203125;-0.0621337890625;-1.0126800537109375;0.011943478137254715;0.022420354187488556;0.0012152004055678844
0.064727783203125;-0.0621337890625;-1.0126800537109375;0.011943478137254715;0.022420354187488556;0.0012152004055678844
0.064727783203125;-0.0621337890625;-1.0126800537109375;0.011943478137254715;0.022420354187488556;0.0012152004055678844
0.064727783203125;-0.0621337890625;-1.0126800537109375;0.011943478137254715;0.022420354187488556;0.0012152004055678844
0.064727783203125;-0.0621337890625;-1.0126800537109375;0.016210662201046944;0.02364540845155716;0.002261556452140212
0.0652618408203125;-0.0602569580078125;-1.01275634765625;0.016210662201046944;0.02364540845155716;0.002261556452140212
0.0652618408203125;-0.0602569580078125;-1.01275634765625;0.016210662201046944;0.02364540845155716;0.002261556452140212
0.0652618408203125;-0.0602569580078125;-1.01275634765625;0.016210662201046944;0.02364540845155716;0.002261556452140212
0.0652618408203125;-0.0602569580078125;-1.01275634765625;0.016210662201046944;0.02364540845155716;0.002261556452140212
0.0652618408203125;-0.0602569580078125;-1.01275634765625;0.022105036303400993;0.01943814568221569;0.0036274916492402554
0.06573486328125;-0.06048583984375;-1.0139617919921875;0.022105036303400993;0.01943814568221569;0.0036274916492402554
0.06573486328125;-0.06048583984375;-1.0139617919921875;0.022105036303400993;0.01943814568221569;0.0036274916492402554
0.06573486328125;-0.06048583984375;-1.0139617919921875;0.022105036303400993;0.01943814568221569;0.0036274916492402554
0.06573486328125;-0.06048583984375;-1.0139617919921875;0.022105036303400993;0.01943814568221569;0.0036274916492402554
0.06573486328125;-0.06048583984375;-1.0139617919921875;0.025949042290449142;0.014192251488566399;0.0036847495939582586
0.065399169921875;-0.0603790283203125;-1.0143890380859375;0.025949042290449142;0.014192251488566399;0.0036847495939582586
0.065399169921875;-0.0603790283203125;-1.0143890380859375;0.025949042290449142;0.014192251488566399;0.0036847495939582586
0.065399169921875;-0.0603790283203125;-1.0143890380859375;0.025949042290449142;0.014192251488566399;0.0036847495939582586
0.065399169921875;-0.0603790283203125;-1.0143890380859375;0.025949042290449142;0.014192251488566399;0.0036847495939582586
0.0636138916015625;-0.06085205078125;-1.010986328125;0.028623921796679497;0.018523083999753;0.004222441930323839
0.0636138916015625;-0.06085205078125;-1.010986328125;0.028623921796679497;0.018523083999753;0.004222441930323839
0.0636138916015625;-0.06085205078125;-1.010986328125;0.028623921796679497;0.018523083999753;0.004222441930323839
0.0636138916015625;-0.06085205078125;-1.010986328125;0.028623921796679497;0.018523083999753;0.004222441930323839
0.0636138916015625;-0.06085205078125;-1.010986328125;0.028623921796679497;0.018523083999753;0.004222441930323839
0.0636138916015625;-0.06085205078125;-1.010986328125;0.027300862595438957;0.019056515768170357;0.006229133810847998
0.06243896484375;-0.0605316162109375;-1.0111846923828125;0.027300862595438957;0.019056515768170357;0.006229133810847998
0.06243896484375;-0.0605316162109375;-1.0111846923828125;0.027300862595438957;0.019056515768170357;0.006229133810847998
0.06243896484375;-0.0605316162109375;-1.0111846923828125;0.027300862595438957;0.019056515768170357;0.006229133810847998
0.06243896484375;-0.0605316162109375;-1.0111846923828125;0.027300862595438957;0.019056515768170357;0.006229133810847998
0.06231689453125;-0.0604400634765625;-1.01251220703125;0.029208218678832054;0.017702564597129822;0.003882089862599969
0.06231689453125;-0.0604400634765625;-1.01251220703125;0.029208218678832054;0.017702564597129822;0.003882089862599969
0.06231689453125;-0.0604400634765625;-1.01251220703125;0.029208218678832054;0.017702564597129822;0.003882089862599969
0.06231689453125;-0.0604400634765625;-1.01251220703125;0.029208218678832054;0.017702564597129822;0.003882089862599969
0.06231689453125;-0.0604400634765625;-1.01251220703125;0.029208218678832054;0.017702564597129822;0.003882089862599969
0.062713623046875;-0.062835693359375;-1.0133056640625;0.022938339039683342;0.014445784501731396;0.00433136522769928
0.062713623046875;-0.062835693359375;-1.0133056640625;0.022938339039683342;0.014445784501731396;0.00433136522769928
0.062713623046875;-0.062835693359375;-1.0133056640625;0.022938339039683342;0.014445784501731396;0.00433136522769928
0.062713623046875;-0.062835693359375;-1.0133056640625;0.022938339039683342;0.014445784501731396;0.00433136522769928
0.062713623046875;-0.062835693359375;-1.0133056640625;0.022938339039683342;0.014445784501731396;0.00433136522769928
0.06280517578125;-0.0639801025390625;-1.013458251953125;0.020259199663996696;0.013224192894995213;0.0020988371688872576
0.06280517578125;-0.0639801025390625;-1.013458251953125;0.020259199663996696;0.013224192894995213;0.0020988371688872576
0.06280517578125;-0.0639801025390625;-1.013458251953125;0.020259199663996696;0.013224192894995213;0.0020988371688872576
0.06280517578125;-0.0639801025390625;-1.013458251953125;0.020259199663996696;0.013224192894995213;0.0020988371688872576
0.06280517578125;-0.0639801025390625;-1.013458251953125;0.020259199663996696;0.013224192894995213;0.0020988371688872576
0.062042236328125;-0.0650634765625;-1.0152435302734375;0.017295099794864655;0.005121258553117514;0.005349758081138134
0.062042236328125;-0.0650634765625;-1.0152435302734375;0.017295099794864655;0.005121258553117514;0.005349758081138134
0.062042236328125;-0.0650634765625;-1.0152435302734375;0.017295099794864655;0.005121258553117514;0.005349758081138134
0.062042236328125;-0.0650634765625;-1.0152435302734375;0.017295099794864655;0.005121258553117514;0.005349758081138134
0.062042236328125;-0.0650634765625;-1.0152435302734375;0.017295099794864655;0.005121258553117514;0.005349758081138134
0.0614013671875;-0.06695556640625;-1.015655517578125;0.01320794690400362;0.007789480034261942;0.002989664673805237
0.0614013671875;-0.06695556640625;-1.015655517578125;0.01320794690400362;0.007789480034261942;0.002989664673805237
0.0614013671875;-0.06695556640625;-1.015655517578125;0.01320794690400362;0.007789480034261942;0.002989664673805237
0.0614013671875;-0.06695556640625;-1.015655517578125;0.01320794690400362;0.007789480034261942;0.002989664673805237
0.0614013671875;-0.06695556640625;-1.015655517578125;0.01320794690400362;0.007789480034261942;0.002989664673805237
0.061553955078125;-0.068267822265625;-1.0092315673828125;0.0073596457950770855;0.013292635791003704;0.00030839405371807516
0.061553955078125;-0.068267822265625;-1.0092315673828125;0.0073596457950770855;0.013292635791003704;0.00030839405371807516
0.061553955078125;-0.068267822265625;-1.0092315673828125;0.0073596457950770855;0.013292635791003704;0.00030839405371807516
0.061553955078125;-0.068267822265625;-1.0092315673828125;0.0073596457950770855;0.013292635791003704;0.00030839405371807516
0.061553955078125;-0.068267822265625;-1.0092315673828125;0.0073596457950770855;0.013292635791003704;0.00030839405371807516
0.06365966796875;-0.0693359375;-1.0107269287109375;0.00791651289910078;0.01321061048656702;0.0025723471771925688
0.06365966796875;-0.0693359375;-1.0107269287109375;0.00791651289910078;0.01321061048656702;0.0025723471771925688
0.06365966796875;-0.0693359375;-1.0107269287109375;0.00791651289910078;0.01321061048656702;0.0025723471771925688
0.06365966796875;-0.0693359375;-1.0107269287109375;0.00791651289910078;0.01321061048656702;0.0025723471771925688
0.06365966796875;-0.0693359375;-1.0107269287109375;0.00791651289910078;0.01321061048656702;0.0025723471771925688
0.0646209716796875;-0.0680389404296875;-1.0120697021484375;0.008591091260313988;0.01865917257964611;0.003896470880135894
0.0646209716796875;-0.0680389404296875;-1.0120697021484375;0.008591091260313988;0.01865917257964611;0.003896470880135894
0.0646209716796875;-0.0680389404296875;-1.0120697021484375;0.008591091260313988;0.01865917257964611;0.003896470880135894
0.0646209716796875;-0.0680389404296875;-1.0120697021484375;0.008591091260313988;0.01865917257964611;0.003896470880135894
0.0646209716796875;-0.0680389404296875;-1.0120697021484375;0.008591091260313988;0.01865917257964611;0.003896470880135894
0.06622314453125;-0.0679168701171875;-1.0048675537109375;0.008324242196977139;0.04213174059987068;0.0034256239887326956
0.06622314453125;-0.0679168701171875;-1.0048675537109375;0.008324242196977139;0.04213174059987068;0.0034256239887326956
0.06622314453125;-0.0679168701171875;-1.0048675537109375;0.008324242196977139;0.04213174059987068;0.0034256239887326956
0.06622314453125;-0.0679168701171875;-1.0048675537109375;0.008324242196977139;0.04213174059987068;0.0034256239887326956
0.06622314453125;-0.0679168701171875;-1.0048675537109375;0.008324242196977139;0.04213174059987068;0.0034256239887326956
0.066680908203125;-0.0668792724609375;-0.9895172119140625;-0.0004985437262803316;0.05730137228965759;0.0005036037764512002
0.066680908203125;-0.0668792724609375;-0.9895172119140625;-0.0004985437262803316;0.05730137228965759;0.0005036037764512002
0.066680908203125;-0.0668792724609375;-0.9895172119140625;-0.0004985437262803316;0.05730137228965759;0.0005036037764512002
0.066680908203125;-0.0668792724609375;-0.9895172119140625;-0.0004985437262803316;0.05730137228965759;0.0005036037764512002
0.066680908203125;-0.0668792724609375;-0.9895172119140625;-0.0004985437262803316;0.05730137228965759;0.0005036037764512002
0.0668487548828125;-0.0653533935546875;-0.995635986328125;0.0027332021854817867;0.03882702440023422;0.005269863177090883
0.0668487548828125;-0.0653533935546875;-0.995635986328125;0.0027332021854817867;0.03882702440023422;0.005269863177090883
0.0668487548828125;-0.0653533935546875;-0.995635986328125;0.0027332021854817867;0.03882702440023422;0.005269863177090883
0.0668487548828125;-0.0653533935546875;-0.995635986328125;0.0027332021854817867;0.03882702440023422;0.005269863177090883
0.0668487548828125;-0.0653533935546875;-0.995635986328125;0.0027332021854817867;0.03882702440023422;0.005269863177090883
0.065216064453125;-0.0626983642578125;-1.0184783935546875;0.009623865596950054;0.02046825736761093;0.00108257494866848
0.065216064453125;-0.0626983642578125;-1.0184783935546875;0.009623865596950054;0.02046825736761093;0.00108257494866848
0.065216064453125;-0.0626983642578125;-1.0184783935546875;0.009623865596950054;0.02046825736761093;0.00108257494866848
0.065216064453125;-0.0626983642578125;-1.0184783935546875;0.009623865596950054;0.02046825736761093;0.00108257494866848
0.065216064453125;-0.0626983642578125;-1.0184783935546875;0.009623865596950054;0.02046825736761093;0.00108257494866848
0.063079833984375;-0.06158447265625;-1.0312347412109375;0.009925601072609425;0.008727977983653545;2.157160452043172e-05
0.063079833984375;-0.06158447265625;-1.0312347412109375;0.009925601072609425;0.008727977983653545;2.157160452043172e-05
0.063079833984375;-0.06158447265625;-1.0312347412109375;0.009925601072609425;0.008727977983653545;2.157160452043172e-05
0.063079833984375;-0.06158447265625;-1.0312347412109375;0.009925601072609425;0.008727977983653545;2.157160452043172e-05
0.063079833984375;-0.06158447265625;-1.0312347412109375;0.009925601072609425;0.008727977983653545;2.157160452043172e-05
0.0635986328125;-0.06231689453125;-1.0176239013671875;0.009297627955675125;-0.012062788009643555;0.0034056503791362047
0.0635986328125;-0.06231689453125;-1.0176239013671875;0.009297627955675125;-0.012062788009643555;0.0034056503791362047
0.0635986328125;-0.06231689453125;-1.0176239013671875;0.009297627955675125;-0.012062788009643555;0.0034056503791362047
0.0635986328125;-0.06231689453125;-1.0176239013671875;0.009297627955675125;-0.012062788009643555;0.0034056503791362047
0.0635986328125;-0.06231689453125;-1.0176239013671875;0.009297627955675125;-0.012062788009643555;0.0034056503791362047
0.064422607421875;-0.062255859375;-1.0126800537109375;0.00806032307446003;-0.0019302591681480408;0.00307621737010777
0.064422607421875;-0.062255859375;-1.0126800537109375;0.00806032307446003;-0.0019302591681480408;0.00307621737010777
0.064422607421875;-0.062255859375;-1.0126800537109375;0.00806032307446003;-0.0019302591681480408;0.00307621737010777
0.064422607421875;-0.062255859375;-1.0126800537109375;0.00806032307446003;-0.0019302591681480408;0.00307621737010777
0.064422607421875;-0.062255859375;-1.0126800537109375;0.00806032307446003;-0.0019302591681480408;0.00307621737010777
0.065155029296875;-0.0623779296875;-0.9964599609375;0.011203652247786522;0.013130449689924717;-0.00024048343766480684
0.065155029296875;-0.0623779296875;-0.9964599609375;0.011203652247786522;0.013130449689924717;-0.00024048343766480684
0.065155029296875;-0.0623779296875;-0.9964599609375;0.011203652247786522;0.013130449689924717;-0.00024048343766480684
0.065155029296875;-0.0623779296875;-0.9964599609375;0.011203652247786522;0.013130449689924717;-0.00024048343766480684
0.065155029296875;-0.0623779296875;-0.9964599609375;0.011203652247786522;0.013130449689924717;-0.00024048343766480684
0.06591796875;-0.0628509521484375;-1.003265380859375;0.02611655555665493;0.018156100064516068;-0.0031073763966560364
0.06591796875;-0.0628509521484375;-1.003265380859375;0.02611655555665493;0.018156100064516068;-0.0031073763966560364
0.06591796875;-0.0628509521484375;-1.003265380859375;0.02611655555665493;0.018156100064516068;-0.0031073763966560364
0.06591796875;-0.0628509521484375;-1.003265380859375;0.02611655555665493;0.018156100064516068;-0.0031073763966560364
0.06591796875;-0.0628509521484375;-1.003265380859375;0.02611655555665493;0.018156100064516068;-0.0031073763966560364
0.0664520263671875;-0.0633544921875;-1.010833740234375;0.04163159802556038;0.02149304188787937;0.0020604876335710287
0.0664520263671875;-0.0633544921875;-1.010833740234375;0.04163159802556038;0.02149304188787937;0.0020604876335710287
0.0664520263671875;-0.0633544921875;-1.010833740234375;0.04163159802556038;0.02149304188787937;0.0020604876335710287
0.0664520263671875;-0.0633544921875;-1.010833740234375;0.04163159802556038;0.02149304188787937;0.0020604876335710287
0.0664520263671875;-0.0633544921875;-1.010833740234375;0.04163159802556038;0.02149304188787937;0.0020604876335710287
0.06640625;-0.0640716552734375;-1.0176544189453125;0.04598826542496681;0.016627445816993713;0.00019627496658358723
0.06640625;-0.0640716552734375;-1.0176544189453125;0.04598826542496681;0.016627445816993713;0.00019627496658358723
0.06640625;-0.0640716552734375;-1.0176544189453125;0.04598826542496681;0.016627445816993713;0.00019627496658358723
0.06640625;-0.0640716552734375;-1.0176544189453125;0.04598826542496681;0.016627445816993713;0.00019627496658358723
0.06640625;-0.0640716552734375;-1.0176544189453125;0.04598826542496681;0.016627445816993713;0.00019627496658358723
0.0684814453125;-0.0679168701171875;-1.0207061767578125;0.03414012864232063;0.007231547497212887;-0.0011624698527157307
0.0684814453125;-0.0679168701171875;-1.0207061767578125;0.03414012864232063;0.007231547497212887;-0.0011624698527157307
0.0684814453125;-0.0679168701171875;-1.0207061767578125;0.03414012864232063;0.007231547497212887;-0.0011624698527157307
0.0684814453125;-0.0679168701171875;-1.0207061767578125;0.03414012864232063;0.007231547497212887;-0.0011624698527157307
0.0684814453125;-0.0679168701171875;-1.0207061767578125;0.03414012864232063;0.007231547497212887;-0.0011624698527157307
0.070556640625;-0.0723876953125;-1.017822265625;0.01775076799094677;0.0027230822015553713;0.0005946838646195829
0.070556640625;-0.0723876953125;-1.017822265625;0.01775076799094677;0.0027230822015553713;0.0005946838646195829
0.070556640625;-0.0723876953125;-1.017822265625;0.01775076799094677;0.0027230822015553713;0.0005946838646195829
0.070556640625;-0.0723876953125;-1.017822265625;0.01775076799094677;0.0027230822015553713;0.0005946838646195829
0.070556640625;-0.0723876953125;-1.017822265625;0.01775076799094677;0.0027230822015553713;0.0005946838646195829
0.071441650390625;-0.0759124755859375;-1.0102996826171875;0.0008351673022843897;0.006381200160831213;4.873584839515388e-05
0.071441650390625;-0.0759124755859375;-1.0102996826171875;0.0008351673022843897;0.006381200160831213;4.873584839515388e-05
0.071441650390625;-0.0759124755859375;-1.0102996826171875;0.0008351673022843897;0.006381200160831213;4.873584839515388e-05
0.071441650390625;-0.0759124755859375;-1.0102996826171875;0.0008351673022843897;0.006381200160831213;4.873584839515388e-05
0.071441650390625;-0.0759124755859375;-1.0102996826171875;0.0008351673022843897;0.006381200160831213;4.873584839515388e-05
0.0703277587890625;-0.078338623046875;-1.0050201416015625;-0.0007153250626288354;0.00854368694126606;0.0060232714749872684
0.0703277587890625;-0.078338623046875;-1.0050201416015625;-0.0007153250626288354;0.00854368694126606;0.0060232714749872684
0.0703277587890625;-0.078338623046875;-1.0050201416015625;-0.0007153250626288354;0.00854368694126606;0.0060232714749872684
0.0703277587890625;-0.078338623046875;-1.0050201416015625;-0.0007153250626288354;0.00854368694126606;0.0060232714749872684
0.0703277587890625;-0.078338623046875;-1.0050201416015625;-0.0007153250626288354;0.00854368694126606;0.0060232714749872684
0.068756103515625;-0.0782012939453125;-1.0077056884765625;-0.006362291984260082;0.009694439359009266;0.00698014535009861
0.068756103515625;-0.0782012939453125;-1.0077056884765625;-0.006362291984260082;0.009694439359009266;0.00698014535009861
0.068756103515625;-0.0782012939453125;-1.0077056884765625;-0.006362291984260082;0.009694439359009266;0.00698014535009861
0.068756103515625;-0.0782012939453125;-1.0077056884765625;-0.006362291984260082;0.009694439359009266;0.00698014535009861
0.068756103515625;-0.0782012939453125;-1.0077056884765625;-0.006362291984260082;0.009694439359009266;0.00698014535009861
0.0666961669921875;-0.0740509033203125;-1.0094757080078125;0.00028522455249913037;0.010920291766524315;0.006567621603608131
0.0666961669921875;-0.0740509033203125;-1.0094757080078125;0.00028522455249913037;0.010920291766524315;0.006567621603608131
0.0666961669921875;-0.0740509033203125;-1.0094757080078125;0.00028522455249913037;0.010920291766524315;0.006567621603608131
0.0666961669921875;-0.0740509033203125;-1.0094757080078125;0.00028522455249913037;0.010920291766524315;0.006567621603608131
0.0666961669921875;-0.0740509033203125;-1.0094757080078125;0.00028522455249913037;0.010920291766524315;0.006567621603608131
0.0667877197265625;-0.069305419921875;-1.0101470947265625;0.004854676313698292;0.0161784365773201;0.010417221114039421
0.0667877197265625;-0.069305419921875;-1.0101470947265625;0.004854676313698292;0.0161784365773201;0.010417221114039421
0.0667877197265625;-0.069305419921875;-1.0101470947265625;0.004854676313698292;0.0161784365773201;0.010417221114039421
0.0667877197265625;-0.069305419921875;-1.0101470947265625;0.004854676313698292;0.0161784365773201;0.010417221114039421
0.0667877197265625;-0.069305419921875;-1.0101470947265625;0.004854676313698292;0.0161784365773201;0.010417221114039421
0.065673828125;-0.065093994140625;-1.00885009765625;0.010279535315930843;0.014389059506356716;0.008048605173826218
0.065673828125;-0.065093994140625;-1.00885009765625;0.010279535315930843;0.014389059506356716;0.008048605173826218
0.065673828125;-0.065093994140625;-1.00885009765625;0.010279535315930843;0.014389059506356716;0.008048605173826218
0.065673828125;-0.065093994140625;-1.00885009765625;0.010279535315930843;0.014389059506356716;0.008048605173826218
0.065673828125;-0.065093994140625;-1.00885009765625;0.010279535315930843;0.014389059506356716;0.008048605173826218
0.0673828125;-0.0619964599609375;-1.011962890625;0.014820757322013378;0.0149826779961586;0.007331416010856628
0.0673828125;-0.0619964599609375;-1.011962890625;0.014820757322013378;0.0149826779961586;0.007331416010856628
0.0673828125;-0.0619964599609375;-1.011962890625;0.014820757322013378;0.0149826779961586;0.007331416010856628
0.0673828125;-0.0619964599609375;-1.011962890625;0.014820757322013378;0.0149826779961586;0.007331416010856628
0.0673828125;-0.0619964599609375;-1.011962890625;0.014820757322013378;0.0149826779961586;0.007331416010856628
0.06817626953125;-0.0611419677734375;-1.01220703125;0.018664497882127762;0.017845310270786285;0.007779093459248543
0.06817626953125;-0.0611419677734375;-1.01220703125;0.018664497882127762;0.017845310270786285;0.007779093459248543
0.06817626953125;-0.0611419677734375;-1.01220703125;0.018664497882127762;0.017845310270786285;0.007779093459248543
0.06817626953125;-0.0611419677734375;-1.01220703125;0.018664497882127762;0.017845310270786285;0.007779093459248543
0.06817626953125;-0.0611419677734375;-1.01220703125;0.018664497882127762;0.017845310270786285;0.007779093459248543
0.069091796875;-0.0615692138671875;-1.01123046875;0.014132063835859299;0.018393388018012047;0.0035960664972662926
0.069091796875;-0.0615692138671875;-1.01123046875;0.014132063835859299;0.018393388018012047;0.0035960664972662926
0.069091796875;-0.0615692138671875;-1.01123046875;0.014132063835859299;0.018393388018012047;0.0035960664972662926
0.069091796875;-0.0615692138671875;-1.01123046875;0.014132063835859299;0.018393388018012047;0.0035960664972662926
0.069091796875;-0.0615692138671875;-1.01123046875;0.014132063835859299;0.018393388018012047;0.0035960664972662926
0.0697021484375;-0.0629425048828125;-1.0121612548828125;0.014910772442817688;0.01948528364300728;0.0009795106016099453
0.0697021484375;-0.0629425048828125;-1.0121612548828125;0.014910772442817688;0.01948528364300728;0.0009795106016099453
0.0697021484375;-0.0629425048828125;-1.0121612548828125;0.014910772442817688;0.01948528364300728;0.0009795106016099453
0.0697021484375;-0.0629425048828125;-1.0121612548828125;0.014910772442817688;0.01948528364300728;0.0009795106016099453
0.0697021484375;-0.0629425048828125;-1.0121612548828125;0.014910772442817688;0.01948528364300728;0.0009795106016099453
0.0713043212890625;-0.06536865234375;-1.01190185546875;0.009136772714555264;0.01745835319161415;0.0008857673965394497
0.0713043212890625;-0.06536865234375;-1.01190185546875;0.009136772714555264;0.01745835319161415;0.0008857673965394497
0.0713043212890625;-0.06536865234375;-1.01190185546875;0.009136772714555264;0.01745835319161415;0.0008857673965394497
0.0713043212890625;-0.06536865234375;-1.01190185546875;0.009136772714555264;0.01745835319161415;0.0008857673965394497
0.0713043212890625;-0.06536865234375;-1.01190185546875;0.009136772714555264;0.01745835319161415;0.0008857673965394497
0.071258544921875;-0.0683135986328125;-1.01007080078125;0.000713993504177779;0.020122045651078224;-0.0007057376787997782
0.071258544921875;-0.0683135986328125;-1.01007080078125;0.000713993504177779;0.020122045651078224;-0.0007057376787997782
0.071258544921875;-0.0683135986328125;-1.01007080078125;0.000713993504177779;0.020122045651078224;-0.0007057376787997782
0.071258544921875;-0.0683135986328125;-1.01007080078125;0.000713993504177779;0.020122045651078224;-0.0007057376787997782
0.071258544921875;-0.0683135986328125;-1.01007080078125;0.000713993504177779;0.020122045651078224;-0.0007057376787997782
0.0716705322265625;-0.0701751708984375;-1.0070037841796875;-0.006527940277010202;0.0174450371414423;0.0008940231637097895
0.0716705322265625;-0.0701751708984375;-1.0070037841796875;-0.006527940277010202;0.0174450371414423;0.0008940231637097895
0.0716705322265625;-0.0701751708984375;-1.0070037841796875;-0.006527940277010202;0.0174450371414423;0.0008940231637097895
0.0716705322265625;-0.0701751708984375;-1.0070037841796875;-0.006527940277010202;0.0174450371414423;0.0008940231637097895
0.0706329345703125;-0.07000732421875;-1.00714111328125;-0.006527940277010202;0.0174450371414423;0.0008940231637097895
0.0706329345703125;-0.07000732421875;-1.00714111328125;-0.006262157112360001;0.017484450712800026;0.0032658344134688377
0.0706329345703125;-0.07000732421875;-1.00714111328125;-0.006262157112360001;0.017484450712800026;0.0032658344134688377
0.0706329345703125;-0.07000732421875;-1.00714111328125;-0.006262157112360001;0.017484450712800026;0.0032658344134688377
0.0706329345703125;-0.07000732421875;-1.00714111328125;-0.006262157112360001;0.017484450712800026;0.0032658344134688377
0.0706329345703125;-0.07000732421875;-1.00714111328125;-0.008946623653173447;0.016833575442433357;0.0008210525847971439
0.0709381103515625;-0.069000244140625;-1.0055389404296875;-0.008946623653173447;0.016833575442433357;0.0008210525847971439
0.0709381103515625;-0.069000244140625;-1.0055389404296875;-0.008946623653173447;0.016833575442433357;0.0008210525847971439
0.0709381103515625;-0.069000244140625;-1.0055389404296875;-0.008946623653173447;0.016833575442433357;0.0008210525847971439
0.0709381103515625;-0.069000244140625;-1.0055389404296875;-0.008946623653173447;0.016833575442433357;0.0008210525847971439
0.0702972412109375;-0.068389892578125;-1.0067138671875;-0.0072943982668221;0.015899071469902992;0.0031260184478014708
0.0702972412109375;-0.068389892578125;-1.0067138671875;-0.0072943982668221;0.015899071469902992;0.0031260184478014708
0.0702972412109375;-0.068389892578125;-1.0067138671875;-0.0072943982668221;0.015899071469902992;0.0031260184478014708
0.0702972412109375;-0.068389892578125;-1.0067138671875;-0.0072943982668221;0.015899071469902992;0.0031260184478014708
0.0702972412109375;-0.068389892578125;-1.0067138671875;-0.0072943982668221;0.015899071469902992;0.0031260184478014708
0.0702972412109375;-0.068389892578125;-1.0067138671875;-0.005633118096739054;0.014533668756484985;0.002796851797029376
0.071990966796875;-0.067626953125;-1.010009765625;-0.005633118096739054;0.014533668756484985;0.002796851797029376
0.071990966796875;-0.067626953125;-1.010009765625;-0.005633118096739054;0.014533668756484985;0.002796851797029376
0.071990966796875;-0.067626953125;-1.010009765625;-0.005633118096739054;0.014533668756484985;0.002796851797029376
0.071990966796875;-0.067626953125;-1.010009765625;-0.005633118096739054;0.014533668756484985;0.002796851797029376
0.071990966796875;-0.067626953125;-1.010009765625;-0.004335892386734486;0.01426682062447071;0.00569889834150672
0.073272705078125;-0.0684356689453125;-1.0113525390625;-0.004335892386734486;0.01426682062447071;0.00569889834150672
0.073272705078125;-0.0684356689453125;-1.0113525390625;-0.004335892386734486;0.01426682062447071;0.00569889834150672
0.073272705078125;-0.0684356689453125;-1.0113525390625;-0.004335892386734486;0.01426682062447071;0.00569889834150672
0.073272705078125;-0.0684356689453125;-1.0113525390625;-0.004335892386734486;0.01426682062447071;0.00569889834150672
0.074432373046875;-0.06988525390625;-1.0140380859375;-0.0012490225490182638;0.0057649449445307255;0.004567055031657219
0.074432373046875;-0.06988525390625;-1.0140380859375;-0.0012490225490182638;0.0057649449445307255;0.004567055031657219
0.074432373046875;-0.06988525390625;-1.0140380859375;-0.0012490225490182638;0.0057649449445307255;0.004567055031657219
0.074432373046875;-0.06988525390625;-1.0140380859375;-0.0012490225490182638;0.0057649449445307255;0.004567055031657219
0.074432373046875;-0.06988525390625;-1.0140380859375;-0.0012490225490182638;0.0057649449445307255;0.004567055031657219
0.074432373046875;-0.06988525390625;-1.0140380859375;-0.0008729841792955995;-0.00863423477858305;0.0026381274219602346
0.0744476318359375;-0.0714569091796875;-1.0165863037109375;-0.0008729841792955995;-0.00863423477858305;0.0026381274219602346
0.0744476318359375;-0.0714569091796875;-1.0165863037109375;-0.0008729841792955995;-0.00863423477858305;0.0026381274219602346
0.0744476318359375;-0.0714569091796875;-1.0165863037109375;-0.0008729841792955995;-0.00863423477858305;0.0026381274219602346
0.0744476318359375;-0.0714569091796875;-1.0165863037109375;-0.0008729841792955995;-0.00863423477858305;0.0026381274219602346
0.0731048583984375;-0.07379150390625;-1.01904296875;-0.011653993278741837;-0.014985340647399426;0.002579271560534835
0.0731048583984375;-0.07379150390625;-1.01904296875;-0.011653993278741837;-0.014985340647399426;0.002579271560534835
0.0731048583984375;-0.07379150390625;-1.01904296875;-0.011653993278741837;-0.014985340647399426;0.002579271560534835
0.0731048583984375;-0.07379150390625;-1.01904296875;-0.011653993278741837;-0.014985340647399426;0.002579271560534835
0.0731048583984375;-0.07379150390625;-1.01904296875;-0.011653993278741837;-0.014985340647399426;0.002579271560534835
0.072479248046875;-0.074554443359375;-1.01190185546875;-0.02485581487417221;-0.0002556634717620909;0.007721303030848503
0.072479248046875;-0.074554443359375;-1.01190185546875;-0.02485581487417221;-0.0002556634717620909;0.007721303030848503
0.072479248046875;-0.074554443359375;-1.01190185546875;-0.02485581487417221;-0.0002556634717620909;0.007721303030848503
0.072479248046875;-0.074554443359375;-1.01190185546875;-0.02485581487417221;-0.0002556634717620909;0.007721303030848503
0.072479248046875;-0.074554443359375;-1.01190185546875;-0.02485581487417221;-0.0002556634717620909;0.007721303030848503
0.072479248046875;-0.074554443359375;-1.01190185546875;-0.03339337557554245;0.0010431602131575346;0.010241984389722347
0.0725250244140625;-0.0740203857421875;-1.0034027099609375;-0.03339337557554245;0.0010431602131575346;0.010241984389722347
0.0725250244140625;-0.0740203857421875;-1.0034027099609375;-0.03339337557554245;0.0010431602131575346;0.010241984389722347
0.0725250244140625;-0.0740203857421875;-1.0034027099609375;-0.03339337557554245;0.0010431602131575346;0.010241984389722347
0.0725250244140625;-0.0740203857421875;-1.0034027099609375;-0.03339337557554245;0.0010431602131575346;0.010241984389722347
0.0709381103515625;-0.0702972412109375;-1.0068817138671875;-0.029637254774570465;-0.006746053230017424;0.007556453347206116
0.0709381103515625;-0.0702972412109375;-1.0068817138671875;-0.029637254774570465;-0.006746053230017424;0.007556453347206116
0.0709381103515625;-0.0702972412109375;-1.0068817138671875;-0.029637254774570465;-0.006746053230017424;0.007556453347206116
0.0709381103515625;-0.0702972412109375;-1.0068817138671875;-0.029637254774570465;-0.006746053230017424;0.007556453347206116
0.0709381103515625;-0.0702972412109375;-1.0068817138671875;-0.029637254774570465;-0.006746053230017424;0.007556453347206116
0.0692291259765625;-0.0674285888671875;-1.007720947265625;-0.015368836000561714;0.00029348034877330065;0.006490389816462994
0.0692291259765625;-0.0674285888671875;-1.007720947265625;-0.015368836000561714;0.00029348034877330065;0.006490389816462994
0.0692291259765625;-0.0674285888671875;-1.007720947265625;-0.015368836000561714;0.00029348034877330065;0.006490389816462994
0.0692291259765625;-0.0674285888671875;-1.007720947265625;-0.015368836000561714;0.00029348034877330065;0.006490389816462994
0.0692291259765625;-0.0674285888671875;-1.007720947265625;-0.015368836000561714;0.00029348034877330065;0.006490389816462994
0.0666656494140625;-0.0643768310546875;-1.00872802734375;-0.0019267969764769077;-0.011121626943349838;0.0028581044171005487
0.0666656494140625;-0.0643768310546875;-1.00872802734375;-0.0019267969764769077;-0.011121626943349838;0.0028581044171005487
0.0666656494140625;-0.0643768310546875;-1.00872802734375;-0.0019267969764769077;-0.011121626943349838;0.0028581044171005487
0.0666656494140625;-0.0643768310546875;-1.00872802734375;-0.0019267969764769077;-0.011121626943349838;0.0028581044171005487
0.0666656494140625;-0.0643768310546875;-1.00872802734375;-0.0019267969764769077;-0.011121626943349838;0.0028581044171005487
0.0652008056640625;-0.0619049072265625;-1.0154266357421875;0.023013973608613014;-0.011858790181577206;0.0023451796732842922
0.0652008056640625;-0.0619049072265625;-1.0154266357421875;0.023013973608613014;-0.011858790181577206;0.0023451796732842922
0.0652008056640625;-0.0619049072265625;-1.0154266357421875;0.023013973608613014;-0.011858790181577206;0.0023451796732842922
0.0652008056640625;-0.0619049072265625;-1.0154266357421875;0.023013973608613014;-0.011858790181577206;0.0023451796732842922
0.0652008056640625;-0.0619049072265625;-1.0154266357421875;0.023013973608613014;-0.011858790181577206;0.0023451796732842922
0.0659027099609375;-0.061737060546875;-1.0186614990234375;0.04020947217941284;-0.010003099218010902;0.0033364081755280495
0.0659027099609375;-0.061737060546875;-1.0186614990234375;0.04020947217941284;-0.010003099218010902;0.0033364081755280495
0.0659027099609375;-0.061737060546875;-1.0186614990234375;0.04020947217941284;-0.010003099218010902;0.0033364081755280495
0.0659027099609375;-0.061737060546875;-1.0186614990234375;0.04020947217941284;-0.010003099218010902;0.0033364081755280495
0.0659027099609375;-0.061737060546875;-1.0186614990234375;0.04020947217941284;-0.010003099218010902;0.0033364081755280495
0.0676422119140625;-0.0634002685546875;-1.0175018310546875;0.04411446303129196;-0.009041165933012962;0.0034205641131848097
0.0676422119140625;-0.0634002685546875;-1.0175018310546875;0.04411446303129196;-0.009041165933012962;0.0034205641131848097
0.0676422119140625;-0.0634002685546875;-1.0175018310546875;0.04411446303129196;-0.009041165933012962;0.0034205641131848097
0.0676422119140625;-0.0634002685546875;-1.0175018310546875;0.04411446303129196;-0.009041165933012962;0.0034205641131848097
0.0676422119140625;-0.0634002685546875;-1.0175018310546875;0.04411446303129196;-0.009041165933012962;0.0034205641131848097
0.0693511962890625;-0.06732177734375;-1.0139007568359375;0.04172055050730705;-0.00634791050106287;0.005738579668104649
0.0693511962890625;-0.06732177734375;-1.0139007568359375;0.04172055050730705;-0.00634791050106287;0.005738579668104649
0.0693511962890625;-0.06732177734375;-1.0139007568359375;0.04172055050730705;-0.00634791050106287;0.005738579668104649
0.0693511962890625;-0.06732177734375;-1.0139007568359375;0.04172055050730705;-0.00634791050106287;0.005738579668104649
0.0693511962890625;-0.06732177734375;-1.0139007568359375;0.04172055050730705;-0.00634791050106287;0.005738579668104649
0.0684814453125;-0.072784423828125;-1.0133819580078125;0.041077662259340286;-0.007516239304095507;0.006660033017396927
0.0684814453125;-0.072784423828125;-1.0133819580078125;0.041077662259340286;-0.007516239304095507;0.006660033017396927
0.0684814453125;-0.072784423828125;-1.0133819580078125;0.041077662259340286;-0.007516239304095507;0.006660033017396927
0.0684814453125;-0.072784423828125;-1.0133819580078125;0.041077662259340286;-0.007516239304095507;0.006660033017396927
0.0684814453125;-0.072784423828125;-1.0133819580078125;0.041077662259340286;-0.007516239304095507;0.006660033017396927
0.06805419921875;-0.0746002197265625;-1.0166015625;0.03545945882797241;-0.006527940277010202;0.005242432467639446
0.06805419921875;-0.0746002197265625;-1.0166015625;0.03545945882797241;-0.006527940277010202;0.005242432467639446
0.06805419921875;-0.0746002197265625;-1.0166015625;0.03545945882797241;-0.006527940277010202;0.005242432467639446
0.06805419921875;-0.0746002197265625;-1.0166015625;0.03545945882797241;-0.006527940277010202;0.005242432467639446
0.06805419921875;-0.0746002197265625;-1.0166015625;0.03545945882797241;-0.006527940277010202;0.005242432467639446
0.068023681640625;-0.0757904052734375;-1.0192413330078125;0.03423520177602768;0.0010729875648394227;0.007013434544205666
0.068023681640625;-0.0757904052734375;-1.0192413330078125;0.03423520177602768;0.0010729875648394227;0.007013434544205666
0.068023681640625;-0.0757904052734375;-1.0192413330078125;0.03423520177602768;0.0010729875648394227;0.007013434544205666
0.068023681640625;-0.0757904052734375;-1.0192413330078125;0.03423520177602768;0.0010729875648394227;0.007013434544205666
0.068023681640625;-0.0757904052734375;-1.0192413330078125;0.03423520177602768;0.0010729875648394227;0.007013434544205666
0.0675506591796875;-0.0769805908203125;-1.01165771484375;0.02725958451628685;0.0028820729348808527;0.008469385094940662
0.0675506591796875;-0.0769805908203125;-1.01165771484375;0.02725958451628685;0.0028820729348808527;0.008469385094940662
0.0675506591796875;-0.0769805908203125;-1.01165771484375;0.02725958451628685;0.0028820729348808527;0.008469385094940662
0.0675506591796875;-0.0769805908203125;-1.01165771484375;0.02725958451628685;0.0028820729348808527;0.008469385094940662
0.0675506591796875;-0.0769805908203125;-1.01165771484375;0.02725958451628685;0.0028820729348808527;0.008469385094940662
0.0681915283203125;-0.0772857666015625;-1.006378173828125;0.01938301883637905;0.005629922728985548;0.007197459228336811
0.0681915283203125;-0.0772857666015625;-1.006378173828125;0.01938301883637905;0.005629922728985548;0.007197459228336811
0.0681915283203125;-0.0772857666015625;-1.006378173828125;0.01938301883637905;0.005629922728985548;0.007197459228336811
0.0681915283203125;-0.0772857666015625;-1.006378173828125;0.01938301883637905;0.005629922728985548;0.007197459228336811
0.0681915283203125;-0.0772857666015625;-1.006378173828125;0.01938301883637905;0.005629922728985548;0.007197459228336811
0.068450927734375;-0.0748443603515625;-1.007720947265625;0.016810938715934753;-0.00911600049585104;0.007734884973615408
0.068450927734375;-0.0748443603515625;-1.007720947265625;0.016810938715934753;-0.00911600049585104;0.007734884973615408
0.068450927734375;-0.0748443603515625;-1.007720947265625;0.016810938715934753;-0.00911600049585104;0.007734884973615408
0.068450927734375;-0.0748443603515625;-1.007720947265625;0.016810938715934753;-0.00911600049585104;0.007734884973615408
0.068450927734375;-0.0748443603515625;-1.007720947265625;0.016810938715934753;-0.00911600049585104;0.007734884973615408
0.0700836181640625;-0.0718231201171875;-1.012847900390625;0.016970194876194;-0.007585748098790646;0.006818757392466068
0.0700836181640625;-0.0718231201171875;-1.012847900390625;0.016970194876194;-0.007585748098790646;0.006818757392466068
0.0700836181640625;-0.0718231201171875;-1.012847900390625;0.016970194876194;-0.007585748098790646;0.006818757392466068
0.0700836181640625;-0.0718231201171875;-1.012847900390625;0.016970194876194;-0.007585748098790646;0.006818757392466068
0.0700836181640625;-0.0718231201171875;-1.012847900390625;0.016970194876194;-0.007585748098790646;0.006818757392466068
0.07110595703125;-0.0701751708984375;-1.010345458984375;0.012546684592962265;-0.009129848331212997;0.003852262394502759
0.07110595703125;-0.0701751708984375;-1.010345458984375;0.012546684592962265;-0.009129848331212997;0.003852262394502759
0.07110595703125;-0.0701751708984375;-1.010345458984375;0.012546684592962265;-0.009129848331212997;0.003852262394502759
0.07110595703125;-0.0701751708984375;-1.010345458984375;0.012546684592962265;-0.009129848331212997;0.003852262394502759
0.07110595703125;-0.0701751708984375;-1.010345458984375;0.012546684592962265;-0.009129848331212997;0.003852262394502759
0.072418212890625;-0.0686492919921875;-1.006378173828125;0.012806609272956848;-0.00887684803456068;0.0007187871960923076
0.072418212890625;-0.0686492919921875;-1.006378173828125;0.012806609272956848;-0.00887684803456068;0.0007187871960923076
0.072418212890625;-0.0686492919921875;-1.006378173828125;0.012806609272956848;-0.00887684803456068;0.0007187871960923076
0.072418212890625;-0.0686492919921875;-1.006378173828125;0.012806609272956848;-0.00887684803456068;0.0007187871960923076
0.072418212890625;-0.0686492919921875;-1.006378173828125;0.012806609272956848;-0.00887684803456068;0.0007187871960923076
0.0716552734375;-0.0669708251953125;-1.004730224609375;0.008156729862093925;-0.00797323789447546;-0.0009736517095007002
0.0716552734375;-0.0669708251953125;-1.004730224609375;0.008156729862093925;-0.00797323789447546;-0.0009736517095007002
0.0716552734375;-0.0669708251953125;-1.004730224609375;0.008156729862093925;-0.00797323789447546;-0.0009736517095007002
0.0716552734375;-0.0669708251953125;-1.004730224609375;0.008156729862093925;-0.00797323789447546;-0.0009736517095007002
0.0716552734375;-0.0669708251953125;-1.004730224609375;0.008156729862093925;-0.00797323789447546;-0.0009736517095007002
0.072235107421875;-0.066009521484375;-1.00250244140625;0.008476043120026588;-0.005907690152525902;-0.0009384979493916035
0.072235107421875;-0.066009521484375;-1.00250244140625;0.008476043120026588;-0.005907690152525902;-0.0009384979493916035
0.072235107421875;-0.066009521484375;-1.00250244140625;0.008476043120026588;-0.005907690152525902;-0.0009384979493916035
0.072235107421875;-0.066009521484375;-1.00250244140625;0.008476043120026588;-0.005907690152525902;-0.0009384979493916035
0.072235107421875;-0.066009521484375;-1.00250244140625;0.008476043120026588;-0.005907690152525902;-0.0009384979493916035
0.0729827880859375;-0.0672607421875;-1.0057373046875;0.007466438226401806;2.5832661776803434e-05;-0.00239151855930686
0.0729827880859375;-0.0672607421875;-1.0057373046875;0.007466438226401806;2.5832661776803434e-05;-0.00239151855930686
0.0729827880859375;-0.0672607421875;-1.0057373046875;0.007466438226401806;2.5832661776803434e-05;-0.00239151855930686
0.0729827880859375;-0.0672607421875;-1.0057373046875;0.007466438226401806;2.5832661776803434e-05;-0.00239151855930686
0.0729827880859375;-0.0672607421875;-1.0057373046875;0.007466438226401806;2.5832661776803434e-05;-0.00239151855930686
0.0736083984375;-0.067901611328125;-1.00677490234375;0.00890960544347763;0.008682438172399998;-0.0019409117521718144
0.0736083984375;-0.067901611328125;-1.00677490234375;0.00890960544347763;0.008682438172399998;-0.0019409117521718144
0.0736083984375;-0.067901611328125;-1.00677490234375;0.00890960544347763;0.008682438172399998;-0.0019409117521718144
0.0736083984375;-0.067901611328125;-1.00677490234375;0.00890960544347763;0.008682438172399998;-0.0019409117521718144
0.0736083984375;-0.067901611328125;-1.00677490234375;0.00890960544347763;0.008682438172399998;-0.0019409117521718144
0.074676513671875;-0.068145751953125;-1.0032958984375;0.005511678289622068;0.011289405636489391;-0.004234692547470331
0.074676513671875;-0.068145751953125;-1.0032958984375;0.005511678289622068;0.011289405636489391;-0.004234692547470331
0.074676513671875;-0.068145751953125;-1.0032958984375;0.005511678289622068;0.011289405636489391;-0.004234692547470331
0.074676513671875;-0.068145751953125;-1.0032958984375;0.005511678289622068;0.011289405636489391;-0.004234692547470331
0.074676513671875;-0.068145751953125;-1.0032958984375;0.005511678289622068;0.011289405636489391;-0.004234692547470331
0.07586669921875;-0.0695037841796875;-1.00445556640625;0.0026908579748123884;0.013973605819046497;-0.0004519384237937629
0.07586669921875;-0.0695037841796875;-1.00445556640625;0.0026908579748123884;0.013973605819046497;-0.0004519384237937629
0.07586669921875;-0.0695037841796875;-1.00445556640625;0.0026908579748123884;0.013973605819046497;-0.0004519384237937629
0.07586669921875;-0.0695037841796875;-1.00445556640625;0.0026908579748123884;0.013973605819046497;-0.0004519384237937629
0.07586669921875;-0.0695037841796875;-1.00445556640625;0.0026908579748123884;0.013973605819046497;-0.0004519384237937629
0.076141357421875;-0.071075439453125;-1.00860595703125;0.0037521275226026773;0.01381301786750555;-0.0001579254458192736
0.076141357421875;-0.071075439453125;-1.00860595703125;0.0037521275226026773;0.01381301786750555;-0.0001579254458192736
0.076141357421875;-0.071075439453125;-1.00860595703125;0.0037521275226026773;0.01381301786750555;-0.0001579254458192736
0.076141357421875;-0.071075439453125;-1.00860595703125;0.0037521275226026773;0.01381301786750555;-0.0001579254458192736
0.076141357421875;-0.071075439453125;-1.00860595703125;0.0037521275226026773;0.01381301786750555;-0.0001579254458192736
0.0754852294921875;-0.0712738037109375;-1.0103912353515625;0.00498170917853713;0.01450091227889061;0.0014804512029513717
0.0754852294921875;-0.0712738037109375;-1.0103912353515625;0.00498170917853713;0.01450091227889061;0.0014804512029513717
0.0754852294921875;-0.0712738037109375;-1.0103912353515625;0.00498170917853713;0.01450091227889061;0.0014804512029513717
0.0754852294921875;-0.0712738037109375;-1.0103912353515625;0.00498170917853713;0.01450091227889061;0.0014804512029513717
0.0754852294921875;-0.0712738037109375;-1.0103912353515625;0.00498170917853713;0.01450091227889061;0.0014804512029513717
0.074127197265625;-0.072784423828125;-1.01348876953125;0.004854676313698292;0.0111045828089118;-6.6579027588886674e-06
0.074127197265625;-0.072784423828125;-1.01348876953125;0.004854676313698292;0.0111045828089118;-6.6579027588886674e-06
0.074127197265625;-0.072784423828125;-1.01348876953125;0.004854676313698292;0.0111045828089118;-6.6579027588886674e-06
0.074127197265625;-0.072784423828125;-1.01348876953125;0.004854676313698292;0.0111045828089118;-6.6579027588886674e-06
0.074127197265625;-0.072784423828125;-1.01348876953125;0.004854676313698292;0.0111045828089118;-6.6579027588886674e-06
0.07470703125;-0.0743865966796875;-1.0127716064453125;0.0002210423699580133;0.016464726999402046;0.004792890977114439
0.07470703125;-0.0743865966796875;-1.0127716064453125;0.0002210423699580133;0.016464726999402046;0.004792890977114439
0.07470703125;-0.0743865966796875;-1.0127716064453125;0.0002210423699580133;0.016464726999402046;0.004792890977114439
0.07470703125;-0.0743865966796875;-1.0127716064453125;0.0002210423699580133;0.016464726999402046;0.004792890977114439
0.07470703125;-0.0743865966796875;-1.0127716064453125;0.0002210423699580133;0.016464726999402046;0.004792890977114439
0.0741729736328125;-0.0760955810546875;-1.0101165771484375;-0.0025329324416816235;0.014135260134935379;0.006428071763366461
0.0741729736328125;-0.0760955810546875;-1.0101165771484375;-0.0025329324416816235;0.014135260134935379;0.006428071763366461
0.0741729736328125;-0.0760955810546875;-1.0101165771484375;-0.0025329324416816235;0.014135260134935379;0.006428071763366461
0.0741729736328125;-0.0760955810546875;-1.0101165771484375;-0.0025329324416816235;0.014135260134935379;0.006428071763366461
0.0741729736328125;-0.0760955810546875;-1.0101165771484375;-0.004963865969330072;0.01107715256512165;0.009483516216278076
0.0738983154296875;-0.076202392578125;-1.0092620849609375;-0.004963865969330072;0.01107715256512165;0.009483516216278076
0.0738983154296875;-0.076202392578125;-1.0092620849609375;-0.004963865969330072;0.01107715256512165;0.009483516216278076
0.0738983154296875;-0.076202392578125;-1.0092620849609375;-0.004963865969330072;0.01107715256512165;0.009483516216278076
0.0738983154296875;-0.076202392578125;-1.0092620849609375;-0.004963865969330072;0.01107715256512165;0.009483516216278076
0.0738983154296875;-0.076202392578125;-1.0092620849609375;-0.0008258462767116725;0.005563876125961542;0.008678709156811237
0.0741119384765625;-0.0751953125;-1.0120086669921875;-0.0008258462767116725;0.005563876125961542;0.008678709156811237
0.0741119384765625;-0.0751953125;-1.0120086669921875;-0.0008258462767116725;0.005563876125961542;0.008678709156811237
0.0741119384765625;-0.0751953125;-1.0120086669921875;-0.0008258462767116725;0.005563876125961542;0.008678709156811237
0.0741119384765625;-0.0751953125;-1.0120086669921875;-0.0008258462767116725;0.005563876125961542;0.008678709156811237
0.0741119384765625;-0.0751953125;-1.0120086669921875;0.001734783174470067;0.0062216767109930515;0.007487477269023657
0.07281494140625;-0.0745849609375;-1.0134735107421875;0.001734783174470067;0.0062216767109930515;0.007487477269023657
0.07281494140625;-0.0745849609375;-1.0134735107421875;0.001734783174470067;0.0062216767109930515;0.007487477269023657
0.07281494140625;-0.0745849609375;-1.0134735107421875;0.001734783174470067;0.0062216767109930515;0.007487477269023657
0.07281494140625;-0.0745849609375;-1.0134735107421875;0.001734783174470067;0.0062216767109930515;0.007487477269023657
0.07281494140625;-0.0745849609375;-1.0134735107421875;0.0029060414526611567;-0.00020000340009573847;0.0072869411669671535
0.0719451904296875;-0.0738677978515625;-1.013580322265625;0.0029060414526611567;-0.00020000340009573847;0.0072869411669671535
0.0719451904296875;-0.0738677978515625;-1.013580322265625;0.0029060414526611567;-0.00020000340009573847;0.0072869411669671535
0.0719451904296875;-0.0738677978515625;-1.013580322265625;0.0029060414526611567;-0.00020000340009573847;0.0072869411669671535
0.0719451904296875;-0.0738677978515625;-1.013580322265625;0.0029060414526611567;-0.00020000340009573847;0.0072869411669671535
0.0719451904296875;-0.0738677978515625;-1.013580322265625;0.0029060414526611567;-0.00020000340009573847;0.0072869411669671535
0.0711517333984375;-0.074310302734375;-1.01446533203125;0.0037971350830048323;-0.0037326866295188665;0.007982824929058552
0.0711517333984375;-0.074310302734375;-1.01446533203125;0.0037971350830048323;-0.0037326866295188665;0.007982824929058552
0.0711517333984375;-0.074310302734375;-1.01446533203125;0.0037971350830048323;-0.0037326866295188665;0.007982824929058552
0.0711517333984375;-0.074310302734375;-1.01446533203125;0.0037971350830048323;-0.0037326866295188665;0.007982824929058552
0.0711517333984375;-0.074310302734375;-1.01446533203125;-0.0007507451227866113;-0.007423827890306711;0.0024493092205375433
0.07073974609375;-0.07415771484375;-1.0117950439453125;-0.0007507451227866113;-0.007423827890306711;0.0024493092205375433
0.07073974609375;-0.07415771484375;-1.0117950439453125;-0.0007507451227866113;-0.007423827890306711;0.0024493092205375433
0.07073974609375;-0.07415771484375;-1.0117950439453125;-0.0007507451227866113;-0.007423827890306711;0.0024493092205375433
0.07073974609375;-0.07415771484375;-1.0117950439453125;-0.0007507451227866113;-0.007423827890306711;0.0024493092205375433
0.0688934326171875;-0.0743255615234375;-1.008026123046875;-0.005289037711918354;-0.009091232903301716;-0.00022503710351884365
0.0688934326171875;-0.0743255615234375;-1.008026123046875;-0.005289037711918354;-0.009091232903301716;-0.00022503710351884365
0.0688934326171875;-0.0743255615234375;-1.008026123046875;-0.005289037711918354;-0.009091232903301716;-0.00022503710351884365
0.0688934326171875;-0.0743255615234375;-1.008026123046875;-0.005289037711918354;-0.009091232903301716;-0.00022503710351884365
0.0688934326171875;-0.0743255615234375;-1.008026123046875;-0.005289037711918354;-0.009091232903301716;-0.00022503710351884365
0.0692901611328125;-0.074462890625;-1.0087890625;-0.006972688250243664;-0.0036645096261054277;-0.0011728560784831643
0.0692901611328125;-0.074462890625;-1.0087890625;-0.006972688250243664;-0.0036645096261054277;-0.0011728560784831643
0.0692901611328125;-0.074462890625;-1.0087890625;-0.006972688250243664;-0.0036645096261054277;-0.0011728560784831643
0.0692901611328125;-0.074462890625;-1.0087890625;-0.006972688250243664;-0.0036645096261054277;-0.0011728560784831643
0.0692901611328125;-0.074462890625;-1.0087890625;-0.006972688250243664;-0.0036645096261054277;-0.0011728560784831643
0.0704193115234375;-0.07342529296875;-1.008941650390625;-0.007588943932205439;-0.005921006202697754;-0.0002271676348755136
0.0704193115234375;-0.07342529296875;-1.008941650390625;-0.007588943932205439;-0.005921006202697754;-0.0002271676348755136
0.0704193115234375;-0.07342529296875;-1.008941650390625;-0.007588943932205439;-0.005921006202697754;-0.0002271676348755136
0.0704193115234375;-0.07342529296875;-1.008941650390625;-0.007588943932205439;-0.005921006202697754;-0.0002271676348755136
0.0704193115234375;-0.07342529296875;-1.008941650390625;-0.007588943932205439;-0.005921006202697754;-0.0002271676348755136
0.0704193115234375;-0.07342529296875;-1.008941650390625;-0.00777589762583375;-0.0038962047547101974;-0.0001960086519829929
0.07025146484375;-0.07293701171875;-1.0081329345703125;-0.00777589762583375;-0.0038962047547101974;-0.0001960086519829929
0.07025146484375;-0.07293701171875;-1.0081329345703125;-0.00777589762583375;-0.0038962047547101974;-0.0001960086519829929
0.07025146484375;-0.07293701171875;-1.0081329345703125;-0.00777589762583375;-0.0038962047547101974;-0.0001960086519829929
0.07025146484375;-0.07293701171875;-1.0081329345703125;-0.00777589762583375;-0.0038962047547101974;-0.0001960086519829929
0.0709991455078125;-0.0728302001953125;-1.010528564453125;-0.0013811152894049883;0.0011954930378124118;0.0012639362830668688
0.0709991455078125;-0.0728302001953125;-1.010528564453125;-0.0013811152894049883;0.0011954930378124118;0.0012639362830668688
0.0709991455078125;-0.0728302001953125;-1.010528564453125;-0.0013811152894049883;0.0011954930378124118;0.0012639362830668688
0.0709991455078125;-0.0728302001953125;-1.010528564453125;-0.0013811152894049883;0.0011954930378124118;0.0012639362830668688
0.0709991455078125;-0.0728302001953125;-1.010528564453125;-0.0013811152894049883;0.0011954930378124118;0.0012639362830668688
0.071441650390625;-0.0726776123046875;-1.0107421875;0.0004780374001711607;0.005007808096706867;-0.0010034791193902493
0.071441650390625;-0.0726776123046875;-1.0107421875;0.0004780374001711607;0.005007808096706867;-0.0010034791193902493
0.071441650390625;-0.0726776123046875;-1.0107421875;0.0004780374001711607;0.005007808096706867;-0.0010034791193902493
0.071441650390625;-0.0726776123046875;-1.0107421875;0.0004780374001711607;0.005007808096706867;-0.0010034791193902493
0.071441650390625;-0.0726776123046875;-1.0107421875;0.0004780374001711607;0.005007808096706867;-0.0010034791193902493
0.0706024169921875;-0.0721435546875;-1.00897216796875;-0.0010942928493022919;0.004312989301979542;0.0005624596378766
0.0706024169921875;-0.0721435546875;-1.00897216796875;-0.0010942928493022919;0.004312989301979542;0.0005624596378766
0.0706024169921875;-0.0721435546875;-1.00897216796875;-0.0010942928493022919;0.004312989301979542;0.0005624596378766
0.0706024169921875;-0.0721435546875;-1.00897216796875;-0.0010942928493022919;0.004312989301979542;0.0005624596378766
0.0706024169921875;-0.0721435546875;-1.00897216796875;-0.0010942928493022919;0.004312989301979542;0.0005624596378766
0.0704803466796875;-0.07080078125;-1.009033203125;0.0001573928166180849;0.010125604458153248;0.0038959383964538574
0.0704803466796875;-0.07080078125;-1.009033203125;0.0001573928166180849;0.010125604458153248;0.0038959383964538574
0.0704803466796875;-0.07080078125;-1.009033203125;0.0001573928166180849;0.010125604458153248;0.0038959383964538574
0.0704803466796875;-0.07080078125;-1.009033203125;0.0001573928166180849;0.010125604458153248;0.0038959383964538574
0.0704803466796875;-0.07080078125;-1.009033203125;0.0001573928166180849;0.010125604458153248;0.0038959383964538574
0.0709991455078125;-0.0702056884765625;-1.0084228515625;-0.00027616979787126184;0.013373329304158688;0.004764661658555269
0.0709991455078125;-0.0702056884765625;-1.0084228515625;-0.00027616979787126184;0.013373329304158688;0.004764661658555269
0.0709991455078125;-0.0702056884765625;-1.0084228515625;-0.00027616979787126184;0.013373329304158688;0.004764661658555269
0.0709991455078125;-0.0702056884765625;-1.0084228515625;-0.00027616979787126184;0.013373329304158688;0.004764661658555269
0.0709991455078125;-0.0702056884765625;-1.0084228515625;-0.00027616979787126184;0.013373329304158688;0.004764661658555269
0.072296142578125;-0.0710296630859375;-1.01068115234375;0.0011656655697152019;0.008963934145867825;0.004837099462747574
0.072296142578125;-0.0710296630859375;-1.01068115234375;0.0011656655697152019;0.008963934145867825;0.004837099462747574
0.072296142578125;-0.0710296630859375;-1.01068115234375;0.0011656655697152019;0.008963934145867825;0.004837099462747574
0.072296142578125;-0.0710296630859375;-1.01068115234375;0.0011656655697152019;0.008963934145867825;0.004837099462747574
0.072296142578125;-0.0710296630859375;-1.01068115234375;0.0011656655697152019;0.008963934145867825;0.004837099462747574
0.0733184814453125;-0.070831298828125;-1.013214111328125;0.00754952896386385;0.011903264559805393;0.004246144089847803
0.0733184814453125;-0.070831298828125;-1.013214111328125;0.00754952896386385;0.011903264559805393;0.004246144089847803
0.0733184814453125;-0.070831298828125;-1.013214111328125;0.00754952896386385;0.011903264559805393;0.004246144089847803
0.0733184814453125;-0.070831298828125;-1.013214111328125;0.00754952896386385;0.011903264559805393;0.004246144089847803
0.0733184814453125;-0.070831298828125;-1.013214111328125;0.00754952896386385;0.011903264559805393;0.004246144089847803
0.073455810546875;-0.0714263916015625;-1.0173492431640625;0.007940747775137424;0.006734335329383612;0.0034293525386601686
0.073455810546875;-0.0714263916015625;-1.0173492431640625;0.007940747775137424;0.006734335329383612;0.0034293525386601686
0.073455810546875;-0.0714263916015625;-1.0173492431640625;0.007940747775137424;0.006734335329383612;0.0034293525386601686
0.073455810546875;-0.0714263916015625;-1.0173492431640625;0.007940747775137424;0.006734335329383612;0.0034293525386601686
0.073455810546875;-0.0714263916015625;-1.0173492431640625;0.007940747775137424;0.006734335329383612;0.0034293525386601686
0.0742645263671875;-0.0723876953125;-1.0159454345703125;0.00777536490932107;-0.002672215923666954;0.0037148434203118086
0.0742645263671875;-0.0723876953125;-1.0159454345703125;0.00777536490932107;-0.002672215923666954;0.0037148434203118086
0.0742645263671875;-0.0723876953125;-1.0159454345703125;0.00777536490932107;-0.002672215923666954;0.0037148434203118086
0.0742645263671875;-0.0723876953125;-1.0159454345703125;0.00777536490932107;-0.002672215923666954;0.0037148434203118086
0.0742645263671875;-0.0723876953125;-1.0159454345703125;0.00777536490932107;-0.002672215923666954;0.0037148434203118086
0.073272705078125;-0.07440185546875;-1.0096282958984375;0.00012090751260984689;0.0006287723081186414;0.003602457931265235
0.073272705078125;-0.07440185546875;-1.0096282958984375;0.00012090751260984689;0.0006287723081186414;0.003602457931265235
0.073272705078125;-0.07440185546875;-1.0096282958984375;0.00012090751260984689;0.0006287723081186414;0.003602457931265235
0.073272705078125;-0.07440185546875;-1.0096282958984375;0.00012090751260984689;0.0006287723081186414;0.003602457931265235
0.073272705078125;-0.07440185546875;-1.0096282958984375;0.00012090751260984689;0.0006287723081186414;0.003602457931265235
0.073486328125;-0.0745697021484375;-1.006317138671875;-0.007784153334796429;-0.0037585191894322634;0.0037555897142738104
0.073486328125;-0.0745697021484375;-1.006317138671875;-0.007784153334796429;-0.0037585191894322634;0.0037555897142738104
0.073486328125;-0.0745697021484375;-1.006317138671875;-0.007784153334796429;-0.0037585191894322634;0.0037555897142738104
0.073486328125;-0.0745697021484375;-1.006317138671875;-0.007784153334796429;-0.0037585191894322634;0.0037555897142738104
0.073486328125;-0.0745697021484375;-1.006317138671875;-0.007784153334796429;-0.0037585191894322634;0.0037555897142738104
0.0740203857421875;-0.074188232421875;-1.009490966796875;-0.006137787364423275;-0.007470433134585619;-0.0010522148804739118
0.0740203857421875;-0.074188232421875;-1.009490966796875;-0.006137787364423275;-0.007470433134585619;-0.0010522148804739118
0.0740203857421875;-0.074188232421875;-1.009490966796875;-0.006137787364423275;-0.007470433134585619;-0.0010522148804739118
0.0740203857421875;-0.074188232421875;-1.009490966796875;-0.006137787364423275;-0.007470433134585619;-0.0010522148804739118
0.0740203857421875;-0.074188232421875;-1.009490966796875;-0.006137787364423275;-0.007470433134585619;-0.0010522148804739118
0.07470703125;-0.073272705078125;-1.011322021484375;-0.005790244787931442;-0.0041057956404984;0.0004114583716727793
0.07470703125;-0.073272705078125;-1.011322021484375;-0.005790244787931442;-0.0041057956404984;0.0004114583716727793
0.07470703125;-0.073272705078125;-1.011322021484375;-0.005790244787931442;-0.0041057956404984;0.0004114583716727793
0.07470703125;-0.073272705078125;-1.011322021484375;-0.005790244787931442;-0.0041057956404984;0.0004114583716727793
0.07470703125;-0.073272705078125;-1.011322021484375;-0.005790244787931442;-0.0041057956404984;0.0004114583716727793
0.0753173828125;-0.0737152099609375;-1.005096435546875;-0.006329535041004419;0.010223343037068844;0.003933222498744726
0.0753173828125;-0.0737152099609375;-1.005096435546875;-0.006329535041004419;0.010223343037068844;0.003933222498744726
0.0753173828125;-0.0737152099609375;-1.005096435546875;-0.006329535041004419;0.010223343037068844;0.003933222498744726
0.0753173828125;-0.0737152099609375;-1.005096435546875;-0.006329535041004419;0.010223343037068844;0.003933222498744726
0.0753173828125;-0.0737152099609375;-1.005096435546875;-0.006329535041004419;0.010223343037068844;0.003933222498744726
0.0761871337890625;-0.07330322265625;-0.9934539794921875;-0.01618988811969757;0.03479153662919998;0.0022000374738126993
0.0761871337890625;-0.07330322265625;-0.9934539794921875;-0.01618988811969757;0.03479153662919998;0.0022000374738126993
0.0761871337890625;-0.07330322265625;-0.9934539794921875;-0.01618988811969757;0.03479153662919998;0.0022000374738126993
0.0761871337890625;-0.07330322265625;-0.9934539794921875;-0.01618988811969757;0.03479153662919998;0.0022000374738126993
0.0761871337890625;-0.07330322265625;-0.9934539794921875;-0.01618988811969757;0.03479153662919998;0.0022000374738126993
0.075531005859375;-0.0728759765625;-0.990142822265625;-0.017414409667253494;0.021150292828679085;0.0010367685463279486
0.075531005859375;-0.0728759765625;-0.990142822265625;-0.017414409667253494;0.021150292828679085;0.0010367685463279486
0.075531005859375;-0.0728759765625;-0.990142822265625;-0.017414409667253494;0.021150292828679085;0.0010367685463279486
0.075531005859375;-0.0728759765625;-0.990142822265625;-0.017414409667253494;0.021150292828679085;0.0010367685463279486
0.075531005859375;-0.0728759765625;-0.990142822265625;-0.017414409667253494;0.021150292828679085;0.0010367685463279486
0.07427978515625;-0.067779541015625;-1.0103302001953125;-0.0039044604636728764;-0.0026381274219602346;0.004054396413266659
0.07427978515625;-0.067779541015625;-1.0103302001953125;-0.0039044604636728764;-0.0026381274219602346;0.004054396413266659
0.07427978515625;-0.067779541015625;-1.0103302001953125;-0.0039044604636728764;-0.0026381274219602346;0.004054396413266659
0.07427978515625;-0.067779541015625;-1.0103302001953125;-0.0039044604636728764;-0.0026381274219602346;0.004054396413266659
0.07427978515625;-0.067779541015625;-1.0103302001953125;-0.0039044604636728764;-0.0026381274219602346;0.004054396413266659
0.07342529296875;-0.0673828125;-1.0331878662109375;0.006599046755582094;-0.017776334658265114;0.006935670506209135
0.07342529296875;-0.0673828125;-1.0331878662109375;0.006599046755582094;-0.017776334658265114;0.006935670506209135
0.07342529296875;-0.0673828125;-1.0331878662109375;0.006599046755582094;-0.017776334658265114;0.006935670506209135
0.07342529296875;-0.0673828125;-1.0331878662109375;0.006599046755582094;-0.017776334658265114;0.006935670506209135
0.07342529296875;-0.0673828125;-1.0331878662109375;0.006599046755582094;-0.017776334658265114;0.006935670506209135
0.0720367431640625;-0.0687255859375;-1.0243682861328125;0.007225688546895981;-0.03700755164027214;0.004044010303914547
0.0720367431640625;-0.0687255859375;-1.0243682861328125;0.007225688546895981;-0.03700755164027214;0.004044010303914547
0.0720367431640625;-0.0687255859375;-1.0243682861328125;0.007225688546895981;-0.03700755164027214;0.004044010303914547
0.0720367431640625;-0.0687255859375;-1.0243682861328125;0.007225688546895981;-0.03700755164027214;0.004044010303914547
0.0720367431640625;-0.0687255859375;-1.0243682861328125;0.007225688546895981;-0.03700755164027214;0.004044010303914547
0.0699615478515625;-0.0693817138671875;-1.012939453125;-0.002686064224690199;-0.030279342085123062;0.0014468954177573323
0.0699615478515625;-0.0693817138671875;-1.012939453125;-0.002686064224690199;-0.030279342085123062;0.0014468954177573323
0.0699615478515625;-0.0693817138671875;-1.012939453125;-0.002686064224690199;-0.030279342085123062;0.0014468954177573323
0.0699615478515625;-0.0693817138671875;-1.012939453125;-0.002686064224690199;-0.030279342085123062;0.0014468954177573323
0.0699615478515625;-0.0693817138671875;-1.012939453125;-0.002686064224690199;-0.030279342085123062;0.0014468954177573323
0.0693359375;-0.0732574462890625;-0.9936981201171875;-0.010691792704164982;-0.01816914975643158;0.0020969731267541647
0.0693359375;-0.0732574462890625;-0.9936981201171875;-0.010691792704164982;-0.01816914975643158;0.0020969731267541647
0.0693359375;-0.0732574462890625;-0.9936981201171875;-0.010691792704164982;-0.01816914975643158;0.0020969731267541647
0.0693359375;-0.0732574462890625;-0.9936981201171875;-0.010691792704164982;-0.01816914975643158;0.0020969731267541647
0.0693359375;-0.0732574462890625;-0.9936981201171875;-0.010691792704164982;-0.01816914975643158;0.0020969731267541647
0.072174072265625;-0.0745697021484375;-1.0003662109375;0.007895473390817642;-0.0035260252188891172;0.001657018787227571
0.072174072265625;-0.0745697021484375;-1.0003662109375;0.007895473390817642;-0.0035260252188891172;0.001657018787227571
0.072174072265625;-0.0745697021484375;-1.0003662109375;0.007895473390817642;-0.0035260252188891172;0.001657018787227571
0.072174072265625;-0.0745697021484375;-1.0003662109375;0.007895473390817642;-0.0035260252188891172;0.001657018787227571
0.072174072265625;-0.0745697021484375;-1.0003662109375;0.007895473390817642;-0.0035260252188891172;0.001657018787227571
0.0739898681640625;-0.0732574462890625;-1.0096435546875;0.02353861555457115;0.004322044085711241;0.003463441040366888
0.0739898681640625;-0.0732574462890625;-1.0096435546875;0.02353861555457115;0.004322044085711241;0.003463441040366888
0.0739898681640625;-0.0732574462890625;-1.0096435546875;0.02353861555457115;0.004322044085711241;0.003463441040366888
0.0739898681640625;-0.0732574462890625;-1.0096435546875;0.02353861555457115;0.004322044085711241;0.003463441040366888
0.0739898681640625;-0.0732574462890625;-1.0096435546875;0.02353861555457115;0.004322044085711241;0.003463441040366888
0.0753173828125;-0.073394775390625;-1.0168304443359375;0.03512363135814667;6.072007090551779e-05;0.0038567897863686085
0.0753173828125;-0.073394775390625;-1.0168304443359375;0.03512363135814667;6.072007090551779e-05;0.0038567897863686085
0.0753173828125;-0.073394775390625;-1.0168304443359375;0.03512363135814667;6.072007090551779e-05;0.0038567897863686085
0.0753173828125;-0.073394775390625;-1.0168304443359375;0.03512363135814667;6.072007090551779e-05;0.0038567897863686085
0.0753173828125;-0.073394775390625;-1.0168304443359375;0.03512363135814667;6.072007090551779e-05;0.0038567897863686085
0.076904296875;-0.075469970703125;-1.0220794677734375;0.02756211906671524;-0.013647901825606823;0.002430667169392109
0.076904296875;-0.075469970703125;-1.0220794677734375;0.02756211906671524;-0.013647901825606823;0.002430667169392109
0.076904296875;-0.075469970703125;-1.0220794677734375;0.02756211906671524;-0.013647901825606823;0.002430667169392109
0.076904296875;-0.075469970703125;-1.0220794677734375;0.02756211906671524;-0.013647901825606823;0.002430667169392109
0.076904296875;-0.075469970703125;-1.0220794677734375;0.02756211906671524;-0.013647901825606823;0.002430667169392109
0.0774383544921875;-0.07818603515625;-1.0189208984375;0.01218955498188734;-0.018501779064536095;0.0051843756809830666
0.0774383544921875;-0.07818603515625;-1.0189208984375;0.01218955498188734;-0.018501779064536095;0.0051843756809830666
0.0774383544921875;-0.07818603515625;-1.0189208984375;0.01218955498188734;-0.018501779064536095;0.0051843756809830666
0.0774383544921875;-0.07818603515625;-1.0189208984375;0.01218955498188734;-0.018501779064536095;0.0051843756809830666
0.0774383544921875;-0.07818603515625;-1.0189208984375;-0.006479204632341862;-0.00968831405043602;0.005565740168094635
0.074310302734375;-0.0818634033203125;-1.0087890625;-0.006479204632341862;-0.00968831405043602;0.005565740168094635
0.074310302734375;-0.0818634033203125;-1.0087890625;-0.006479204632341862;-0.00968831405043602;0.005565740168094635
0.074310302734375;-0.0818634033203125;-1.0087890625;-0.006479204632341862;-0.00968831405043602;0.005565740168094635
0.074310302734375;-0.0818634033203125;-1.0087890625;-0.006479204632341862;-0.00968831405043602;0.005565740168094635
0.074310302734375;-0.0818634033203125;-1.0087890625;-0.01528494618833065;-0.007397196255624294;0.008548480458557606
0.07122802734375;-0.0830535888671875;-1.0023345947265625;-0.01528494618833065;-0.007397196255624294;0.008548480458557606
0.07122802734375;-0.0830535888671875;-1.0023345947265625;-0.01528494618833065;-0.007397196255624294;0.008548480458557606
0.07122802734375;-0.0830535888671875;-1.0023345947265625;-0.01528494618833065;-0.007397196255624294;0.008548480458557606
0.07122802734375;-0.0830535888671875;-1.0023345947265625;-0.01528494618833065;-0.007397196255624294;0.008548480458557606
0.07122802734375;-0.0830535888671875;-1.0023345947265625;-0.01558375358581543;-0.006332730874419212;0.008773784153163433
0.0695953369140625;-0.081634521484375;-1.006195068359375;-0.01558375358581543;-0.006332730874419212;0.008773784153163433
0.0695953369140625;-0.081634521484375;-1.006195068359375;-0.01558375358581543;-0.006332730874419212;0.008773784153163433
0.0695953369140625;-0.081634521484375;-1.006195068359375;-0.01558375358581543;-0.006332730874419212;0.008773784153163433
0.0695953369140625;-0.081634521484375;-1.006195068359375;-0.01558375358581543;-0.006332730874419212;0.008773784153163433
0.0695037841796875;-0.077239990234375;-1.010345458984375;-0.009227586910128593;0.0008162588928826153;0.006106894463300705
0.0695037841796875;-0.077239990234375;-1.010345458984375;-0.009227586910128593;0.0008162588928826153;0.006106894463300705
0.0695037841796875;-0.077239990234375;-1.010345458984375;-0.009227586910128593;0.0008162588928826153;0.006106894463300705
0.0695037841796875;-0.077239990234375;-1.010345458984375;-0.009227586910128593;0.0008162588928826153;0.006106894463300705
0.0695037841796875;-0.077239990234375;-1.010345458984375;-0.009227586910128593;0.0008162588928826153;0.006106894463300705
0.06988525390625;-0.0718536376953125;-1.010986328125;0.003828826593235135;0.000853809411637485;0.009674998000264168
0.06988525390625;-0.0718536376953125;-1.010986328125;0.003828826593235135;0.000853809411637485;0.009674998000264168
0.06988525390625;-0.0718536376953125;-1.010986328125;0.003828826593235135;0.000853809411637485;0.009674998000264168
0.06988525390625;-0.0718536376953125;-1.010986328125;0.003828826593235135;0.000853809411637485;0.009674998000264168
0.06988525390625;-0.0718536376953125;-1.010986328125;0.003828826593235135;0.000853809411637485;0.009674998000264168
0.071746826171875;-0.0674896240234375;-1.0107421875;0.007029147353023291;0.0006711165769957006;0.005545233841985464
0.071746826171875;-0.0674896240234375;-1.0107421875;0.007029147353023291;0.0006711165769957006;0.005545233841985464
0.071746826171875;-0.0674896240234375;-1.0107421875;0.007029147353023291;0.0006711165769957006;0.005545233841985464
0.071746826171875;-0.0674896240234375;-1.0107421875;0.007029147353023291;0.0006711165769957006;0.005545233841985464
0.071746826171875;-0.0674896240234375;-1.0107421875;0.007029147353023291;0.0006711165769957006;0.005545233841985464
0.0722503662109375;-0.0674896240234375;-1.0102081298828125;0.01011202298104763;0.00013795174891129136;0.004275971557945013
0.0722503662109375;-0.0674896240234375;-1.0102081298828125;0.01011202298104763;0.00013795174891129136;0.004275971557945013
0.0722503662109375;-0.0674896240234375;-1.0102081298828125;0.01011202298104763;0.00013795174891129136;0.004275971557945013
0.0722503662109375;-0.0674896240234375;-1.0102081298828125;0.01011202298104763;0.00013795174891129136;0.004275971557945013
0.0722503662109375;-0.0674896240234375;-1.0102081298828125;0.01011202298104763;0.00013795174891129136;0.004275971557945013
0.0730438232421875;-0.0667572021484375;-1.0096588134765625;0.0078544607385993;0.0017326525412499905;0.0029880667570978403
0.0730438232421875;-0.0667572021484375;-1.0096588134765625;0.0078544607385993;0.0017326525412499905;0.0029880667570978403
0.0730438232421875;-0.0667572021484375;-1.0096588134765625;0.0078544607385993;0.0017326525412499905;0.0029880667570978403
0.0730438232421875;-0.0667572021484375;-1.0096588134765625;0.0078544607385993;0.0017326525412499905;0.0029880667570978403
0.0730438232421875;-0.0667572021484375;-1.0096588134765625;0.0078544607385993;0.0017326525412499905;0.0029880667570978403
0.0743560791015625;-0.067413330078125;-1.0116119384765625;0.010134926065802574;0.006731938570737839;0.0037774275988340378
0.0743560791015625;-0.067413330078125;-1.0116119384765625;0.010134926065802574;0.006731938570737839;0.0037774275988340378
0.0743560791015625;-0.067413330078125;-1.0116119384765625;0.010134926065802574;0.006731938570737839;0.0037774275988340378
0.0743560791015625;-0.067413330078125;-1.0116119384765625;0.010134926065802574;0.006731938570737839;0.0037774275988340378
0.0743560791015625;-0.067413330078125;-1.0116119384765625;0.010134926065802574;0.006731938570737839;0.0037774275988340378
0.0741119384765625;-0.0704345703125;-1.012908935546875;0.008491489104926586;0.00714765815064311;0.003284742822870612
0.0741119384765625;-0.0704345703125;-1.012908935546875;0.008491489104926586;0.00714765815064311;0.003284742822870612
0.0741119384765625;-0.0704345703125;-1.012908935546875;0.008491489104926586;0.00714765815064311;0.003284742822870612
0.0741119384765625;-0.0704345703125;-1.012908935546875;0.008491489104926586;0.00714765815064311;0.003284742822870612
0.0741119384765625;-0.0704345703125;-1.012908935546875;0.008491489104926586;0.00714765815064311;0.003284742822870612
0.0749664306640625;-0.0711669921875;-1.00823974609375;0.0028474517166614532;0.008550611324608326;-0.002183792181313038
0.0749664306640625;-0.0711669921875;-1.00823974609375;0.0028474517166614532;0.008550611324608326;-0.002183792181313038
0.0749664306640625;-0.0711669921875;-1.00823974609375;0.0028474517166614532;0.008550611324608326;-0.002183792181313038
0.0749664306640625;-0.0711669921875;-1.00823974609375;0.0028474517166614532;0.008550611324608326;-0.002183792181313038
0.0749664306640625;-0.0711669921875;-1.00823974609375;0.0028474517166614532;0.008550611324608326;-0.002183792181313038
0.075469970703125;-0.0730743408203125;-1.0061492919921875;-0.004281564150005579;0.010604973882436752;-0.0003813646617345512
0.075469970703125;-0.0730743408203125;-1.0061492919921875;-0.004281564150005579;0.010604973882436752;-0.0003813646617345512
0.075469970703125;-0.0730743408203125;-1.0061492919921875;-0.004281564150005579;0.010604973882436752;-0.0003813646617345512
0.075469970703125;-0.0730743408203125;-1.0061492919921875;-0.004281564150005579;0.010604973882436752;-0.0003813646617345512
0.075469970703125;-0.0730743408203125;-1.0061492919921875;-0.004281564150005579;0.010604973882436752;-0.0003813646617345512
0.0749664306640625;-0.07305908203125;-1.0054473876953125;-0.006509830709546804;0.008768457919359207;0.003983556292951107
0.0749664306640625;-0.07305908203125;-1.0054473876953125;-0.006509830709546804;0.008768457919359207;0.003983556292951107
0.0749664306640625;-0.07305908203125;-1.0054473876953125;-0.006509830709546804;0.008768457919359207;0.003983556292951107
0.0749664306640625;-0.07305908203125;-1.0054473876953125;-0.006509830709546804;0.008768457919359207;0.003983556292951107
0.0749664306640625;-0.07305908203125;-1.0054473876953125;-0.006509830709546804;0.008768457919359207;0.003983556292951107
0.074127197265625;-0.0740509033203125;-1.00604248046875;-0.007014233618974686;0.007526892237365246;0.000592020689509809
0.074127197265625;-0.0740509033203125;-1.00604248046875;-0.007014233618974686;0.007526892237365246;0.000592020689509809
0.074127197265625;-0.0740509033203125;-1.00604248046875;-0.007014233618974686;0.007526892237365246;0.000592020689509809
0.074127197265625;-0.0740509033203125;-1.00604248046875;-0.007014233618974686;0.007526892237365246;0.000592020689509809
0.074127197265625;-0.0740509033203125;-1.00604248046875;-0.007014233618974686;0.007526892237365246;0.000592020689509809
0.0752410888671875;-0.0736846923828125;-1.0077362060546875;-0.007799866143614054;0.011414574459195137;0.0012639362830668688
0.0752410888671875;-0.0736846923828125;-1.0077362060546875;-0.007799866143614054;0.011414574459195137;0.0012639362830668688
0.0752410888671875;-0.0736846923828125;-1.0077362060546875;-0.007799866143614054;0.011414574459195137;0.0012639362830668688
0.0752410888671875;-0.0736846923828125;-1.0077362060546875;-0.007799866143614054;0.011414574459195137;0.0012639362830668688
0.0752410888671875;-0.0736846923828125;-1.0077362060546875;-0.007799866143614054;0.011414574459195137;0.0012639362830668688
0.07562255859375;-0.0750274658203125;-1.007965087890625;-0.00586747657507658;0.011112572625279427;-0.002371811307966709
0.07562255859375;-0.0750274658203125;-1.007965087890625;-0.00586747657507658;0.011112572625279427;-0.002371811307966709
0.07562255859375;-0.0750274658203125;-1.007965087890625;-0.00586747657507658;0.011112572625279427;-0.002371811307966709
0.07562255859375;-0.0750274658203125;-1.007965087890625;-0.00586747657507658;0.011112572625279427;-0.002371811307966709
0.07562255859375;-0.0750274658203125;-1.007965087890625;-0.00586747657507658;0.011112572625279427;-0.002371811307966709
0.0767059326171875;-0.07373046875;-1.008514404296875;-0.006190517917275429;0.00902465358376503;0.003353186184540391
0.0767059326171875;-0.07373046875;-1.008514404296875;-0.006190517917275429;0.00902465358376503;0.003353186184540391
0.0767059326171875;-0.07373046875;-1.008514404296875;-0.006190517917275429;0.00902465358376503;0.003353186184540391
0.0767059326171875;-0.07373046875;-1.008514404296875;-0.006190517917275429;0.00902465358376503;0.003353186184540391
0.0767059326171875;-0.07373046875;-1.008514404296875;-0.006190517917275429;0.00902465358376503;0.003353186184540391
0.0767822265625;-0.074981689453125;-1.009979248046875;-0.007751662749797106;0.012115518562495708;-0.0007755124825052917
0.0767822265625;-0.074981689453125;-1.009979248046875;-0.007751662749797106;0.012115518562495708;-0.0007755124825052917
0.0767822265625;-0.074981689453125;-1.009979248046875;-0.007751662749797106;0.012115518562495708;-0.0007755124825052917
0.0767822265625;-0.074981689453125;-1.009979248046875;-0.007751662749797106;0.012115518562495708;-0.0007755124825052917
0.0767822265625;-0.074981689453125;-1.009979248046875;-0.007751662749797106;0.012115518562495708;-0.0007755124825052917
0.077056884765625;-0.0760498046875;-1.01123046875;-0.0065194182097911835;0.0041063278913497925;0.004626177251338959
0.077056884765625;-0.0760498046875;-1.01123046875;-0.0065194182097911835;0.0041063278913497925;0.004626177251338959
0.077056884765625;-0.0760498046875;-1.01123046875;-0.0065194182097911835;0.0041063278913497925;0.004626177251338959
0.077056884765625;-0.0760498046875;-1.01123046875;-0.0065194182097911835;0.0041063278913497925;0.004626177251338959
0.077056884765625;-0.0760498046875;-1.01123046875;-0.0065194182097911835;0.0041063278913497925;0.004626177251338959
0.07763671875;-0.0775604248046875;-1.016204833984375;-0.010403105989098549;-0.014153636060655117;-0.00010972223390126601
0.07763671875;-0.0775604248046875;-1.016204833984375;-0.010403105989098549;-0.014153636060655117;-0.00010972223390126601
0.07763671875;-0.0775604248046875;-1.016204833984375;-0.010403105989098549;-0.014153636060655117;-0.00010972223390126601
0.07763671875;-0.0775604248046875;-1.016204833984375;-0.010403105989098549;-0.014153636060655117;-0.00010972223390126601
0.07763671875;-0.0775604248046875;-1.016204833984375;-0.010403105989098549;-0.014153636060655117;-0.00010972223390126601
0.0765380859375;-0.0786590576171875;-1.017578125;-0.02672002837061882;-0.029691316187381744;0.003644536016508937
0.0765380859375;-0.0786590576171875;-1.017578125;-0.02672002837061882;-0.029691316187381744;0.003644536016508937
0.0765380859375;-0.0786590576171875;-1.017578125;-0.02672002837061882;-0.029691316187381744;0.003644536016508937
0.0765380859375;-0.0786590576171875;-1.017578125;-0.02672002837061882;-0.029691316187381744;0.003644536016508937
0.0765380859375;-0.0786590576171875;-1.017578125;-0.02672002837061882;-0.029691316187381744;0.003644536016508937
0.076629638671875;-0.0798187255859375;-1.0078582763671875;-0.0398414209485054;-0.01152829173952341;0.005067729391157627
0.076629638671875;-0.0798187255859375;-1.0078582763671875;-0.0398414209485054;-0.01152829173952341;0.005067729391157627
0.076629638671875;-0.0798187255859375;-1.0078582763671875;-0.0398414209485054;-0.01152829173952341;0.005067729391157627
0.076629638671875;-0.0798187255859375;-1.0078582763671875;-0.0398414209485054;-0.01152829173952341;0.005067729391157627
0.076629638671875;-0.0798187255859375;-1.0078582763671875;-0.0398414209485054;-0.01152829173952341;0.005067729391157627
0.073394775390625;-0.07672119140625;-1.0028839111328125;-0.0420670248568058;-0.011562912724912167;0.006610498297959566
0.073394775390625;-0.07672119140625;-1.0028839111328125;-0.0420670248568058;-0.011562912724912167;0.006610498297959566
0.073394775390625;-0.07672119140625;-1.0028839111328125;-0.0420670248568058;-0.011562912724912167;0.006610498297959566
0.073394775390625;-0.07672119140625;-1.0028839111328125;-0.0420670248568058;-0.011562912724912167;0.006610498297959566
0.073394775390625;-0.07672119140625;-1.0028839111328125;-0.0420670248568058;-0.011562912724912167;0.006610498297959566
0.0716552734375;-0.072174072265625;-1.010406494140625;-0.029714485630393028;-0.017241304740309715;0.005562278442084789
0.0716552734375;-0.072174072265625;-1.010406494140625;-0.029714485630393028;-0.017241304740309715;0.005562278442084789
0.0716552734375;-0.072174072265625;-1.010406494140625;-0.029714485630393028;-0.017241304740309715;0.005562278442084789
0.0716552734375;-0.072174072265625;-1.010406494140625;-0.029714485630393028;-0.017241304740309715;0.005562278442084789
0.0716552734375;-0.072174072265625;-1.010406494140625;-0.029714485630393028;-0.017241304740309715;0.005562278442084789
0.070892333984375;-0.0692291259765625;-1.0123443603515625;-0.021085310727357864;-0.01122176181524992;0.00293347192928195
0.070892333984375;-0.0692291259765625;-1.0123443603515625;-0.021085310727357864;-0.01122176181524992;0.00293347192928195
0.070892333984375;-0.0692291259765625;-1.0123443603515625;-0.021085310727357864;-0.01122176181524992;0.00293347192928195
0.070892333984375;-0.0692291259765625;-1.0123443603515625;-0.021085310727357864;-0.01122176181524992;0.00293347192928195
0.070892333984375;-0.0692291259765625;-1.0123443603515625;-0.021085310727357864;-0.01122176181524992;0.00293347192928195
0.0701141357421875;-0.068023681640625;-1.0026092529296875;-0.017642376944422722;-0.013339507393538952;-0.0015717976493760943
0.0701141357421875;-0.068023681640625;-1.0026092529296875;-0.017642376944422722;-0.013339507393538952;-0.0015717976493760943
0.0701141357421875;-0.068023681640625;-1.0026092529296875;-0.017642376944422722;-0.013339507393538952;-0.0015717976493760943
0.0701141357421875;-0.068023681640625;-1.0026092529296875;-0.017642376944422722;-0.013339507393538952;-0.0015717976493760943
0.0701141357421875;-0.068023681640625;-1.0026092529296875;-0.017642376944422722;-0.013339507393538952;-0.0015717976493760943
0.071136474609375;-0.06695556640625;-1.005340576171875;-0.0026288062799721956;-0.022109828889369965;-0.0004588626616168767
0.071136474609375;-0.06695556640625;-1.005340576171875;-0.0026288062799721956;-0.022109828889369965;-0.0004588626616168767
0.071136474609375;-0.06695556640625;-1.005340576171875;-0.0026288062799721956;-0.022109828889369965;-0.0004588626616168767
0.071136474609375;-0.06695556640625;-1.005340576171875;-0.0026288062799721956;-0.022109828889369965;-0.0004588626616168767
0.071136474609375;-0.06695556640625;-1.005340576171875;-0.0026288062799721956;-0.022109828889369965;-0.0004588626616168767
0.07159423828125;-0.0659332275390625;-1.016143798828125;0.014184528030455112;-0.024114124476909637;0.0022397185675799847
0.07159423828125;-0.0659332275390625;-1.016143798828125;0.014184528030455112;-0.024114124476909637;0.0022397185675799847
0.07159423828125;-0.0659332275390625;-1.016143798828125;0.014184528030455112;-0.024114124476909637;0.0022397185675799847
0.07159423828125;-0.0659332275390625;-1.016143798828125;0.014184528030455112;-0.024114124476909637;0.0022397185675799847
0.07159423828125;-0.0659332275390625;-1.016143798828125;0.014184528030455112;-0.024114124476909637;0.0022397185675799847
0.0709075927734375;-0.0667266845703125;-1.010986328125;0.01890072040259838;-0.023802800104022026;0.003938016481697559
0.0709075927734375;-0.0667266845703125;-1.010986328125;0.01890072040259838;-0.023802800104022026;0.003938016481697559
0.0709075927734375;-0.0667266845703125;-1.010986328125;0.01890072040259838;-0.023802800104022026;0.003938016481697559
0.0709075927734375;-0.0667266845703125;-1.010986328125;0.01890072040259838;-0.023802800104022026;0.003938016481697559
0.0709075927734375;-0.0667266845703125;-1.010986328125;0.01890072040259838;-0.023802800104022026;0.003938016481697559
0.069122314453125;-0.071044921875;-1.0053253173828125;0.01888340897858143;-0.024451812729239464;0.0017502295086160302
0.069122314453125;-0.071044921875;-1.0053253173828125;0.01888340897858143;-0.024451812729239464;0.0017502295086160302
0.069122314453125;-0.071044921875;-1.0053253173828125;0.01888340897858143;-0.024451812729239464;0.0017502295086160302
0.069122314453125;-0.071044921875;-1.0053253173828125;0.01888340897858143;-0.024451812729239464;0.0017502295086160302
0.069122314453125;-0.071044921875;-1.0053253173828125;0.01888340897858143;-0.024451812729239464;0.0017502295086160302
0.0679168701171875;-0.0746307373046875;-1.0090789794921875;0.023962058126926422;-0.01944294013082981;0.005760417319834232
0.0679168701171875;-0.0746307373046875;-1.0090789794921875;0.023962058126926422;-0.01944294013082981;0.005760417319834232
0.0679168701171875;-0.0746307373046875;-1.0090789794921875;0.023962058126926422;-0.01944294013082981;0.005760417319834232
0.0679168701171875;-0.0746307373046875;-1.0090789794921875;0.023962058126926422;-0.01944294013082981;0.005760417319834232
0.0679168701171875;-0.0746307373046875;-1.0090789794921875;0.023962058126926422;-0.01944294013082981;0.005760417319834232
0.0695037841796875;-0.077117919921875;-1.013336181640625;0.02539111115038395;-0.014916365034878254;0.004171575419604778
0.0695037841796875;-0.077117919921875;-1.013336181640625;0.02539111115038395;-0.014916365034878254;0.004171575419604778
0.0695037841796875;-0.077117919921875;-1.013336181640625;0.02539111115038395;-0.014916365034878254;0.004171575419604778
0.0695037841796875;-0.077117919921875;-1.013336181640625;0.02539111115038395;-0.014916365034878254;0.004171575419604778
0.0695037841796875;-0.077117919921875;-1.013336181640625;0.02539111115038395;-0.014916365034878254;0.004171575419604778
0.07110595703125;-0.076904296875;-1.014434814453125;0.02636422961950302;-0.008823851123452187;0.0033744913525879383
0.07110595703125;-0.076904296875;-1.014434814453125;0.02636422961950302;-0.008823851123452187;0.0033744913525879383
0.07110595703125;-0.076904296875;-1.014434814453125;0.02636422961950302;-0.008823851123452187;0.0033744913525879383
0.07110595703125;-0.076904296875;-1.014434814453125;0.02636422961950302;-0.008823851123452187;0.0033744913525879383
0.07110595703125;-0.076904296875;-1.014434814453125;0.02636422961950302;-0.008823851123452187;0.0033744913525879383
0.0723419189453125;-0.0768890380859375;-1.012481689453125;0.02400067448616028;-0.007394000422209501;0.003921238239854574
0.0723419189453125;-0.0768890380859375;-1.012481689453125;0.02400067448616028;-0.007394000422209501;0.003921238239854574
0.0723419189453125;-0.0768890380859375;-1.012481689453125;0.02400067448616028;-0.007394000422209501;0.003921238239854574
0.0723419189453125;-0.0768890380859375;-1.012481689453125;0.02400067448616028;-0.007394000422209501;0.003921238239854574
0.0723419189453125;-0.0768890380859375;-1.012481689453125;0.02400067448616028;-0.007394000422209501;0.003921238239854574
0.0730438232421875;-0.07659912109375;-1.0099029541015625;0.018998725339770317;-0.013130716048181057;0.005327919963747263
0.0730438232421875;-0.07659912109375;-1.0099029541015625;0.018998725339770317;-0.013130716048181057;0.005327919963747263
0.0730438232421875;-0.07659912109375;-1.0099029541015625;0.018998725339770317;-0.013130716048181057;0.005327919963747263
0.0730438232421875;-0.07659912109375;-1.0099029541015625;0.018998725339770317;-0.013130716048181057;0.005327919963747263
0.0730438232421875;-0.07659912109375;-1.0099029541015625;0.018998725339770317;-0.013130716048181057;0.005327919963747263
0.0745697021484375;-0.07586669921875;-1.01068115234375;0.015538745559751987;-0.018253039568662643;0.0025843314360827208
0.0745697021484375;-0.07586669921875;-1.01068115234375;0.015538745559751987;-0.018253039568662643;0.0025843314360827208
0.0745697021484375;-0.07586669921875;-1.01068115234375;0.015538745559751987;-0.018253039568662643;0.0025843314360827208
0.0745697021484375;-0.07586669921875;-1.01068115234375;0.015538745559751987;-0.018253039568662643;0.0025843314360827208
0.0745697021484375;-0.07586669921875;-1.01068115234375;0.015538745559751987;-0.018253039568662643;0.0025843314360827208
0.0749664306640625;-0.0743255615234375;-1.010955810546875;0.014909440651535988;-0.020238958299160004;0.0015363775892183185
0.0749664306640625;-0.0743255615234375;-1.010955810546875;0.014909440651535988;-0.020238958299160004;0.0015363775892183185
0.0749664306640625;-0.0743255615234375;-1.010955810546875;0.014909440651535988;-0.020238958299160004;0.0015363775892183185
0.0749664306640625;-0.0743255615234375;-1.010955810546875;0.014909440651535988;-0.020238958299160004;0.0015363775892183185
0.0749664306640625;-0.0743255615234375;-1.010955810546875;0.014909440651535988;-0.020238958299160004;0.0015363775892183185
0.0731964111328125;-0.0723876953125;-1.0098114013671875;0.015792544931173325;-0.017769675701856613;0.0018370485631749034
0.0731964111328125;-0.0723876953125;-1.0098114013671875;0.015792544931173325;-0.017769675701856613;0.0018370485631749034
0.0731964111328125;-0.0723876953125;-1.0098114013671875;0.015792544931173325;-0.017769675701856613;0.0018370485631749034
0.0731964111328125;-0.0723876953125;-1.0098114013671875;0.015792544931173325;-0.017769675701856613;0.0018370485631749034
0.0731964111328125;-0.0723876953125;-1.0098114013671875;0.015792544931173325;-0.017769675701856613;0.0018370485631749034
0.07318115234375;-0.07171630859375;-1.0077362060546875;0.01008219551295042;-0.02124030701816082;-0.00040240364614874125
0.07318115234375;-0.07171630859375;-1.0077362060546875;0.01008219551295042;-0.02124030701816082;-0.00040240364614874125
0.07318115234375;-0.07171630859375;-1.0077362060546875;0.01008219551295042;-0.02124030701816082;-0.00040240364614874125
0.07318115234375;-0.07171630859375;-1.0077362060546875;0.01008219551295042;-0.02124030701816082;-0.00040240364614874125
0.07318115234375;-0.07171630859375;-1.0077362060546875;0.01008219551295042;-0.02124030701816082;-0.00040240364614874125
0.0731964111328125;-0.070892333984375;-1.0022735595703125;0.0011936287628486753;-0.020415259525179863;4.76705827168189e-05
0.0731964111328125;-0.070892333984375;-1.0022735595703125;0.0011936287628486753;-0.020415259525179863;4.76705827168189e-05
0.0731964111328125;-0.070892333984375;-1.0022735595703125;0.0011936287628486753;-0.020415259525179863;4.76705827168189e-05
0.0731964111328125;-0.070892333984375;-1.0022735595703125;0.0011936287628486753;-0.020415259525179863;4.76705827168189e-05
0.0731964111328125;-0.070892333984375;-1.0022735595703125;-0.006399043370038271;-0.017413876950740814;-0.002238120650872588
0.0729217529296875;-0.07122802734375;-0.998931884765625;-0.006399043370038271;-0.017413876950740814;-0.002238120650872588
0.0729217529296875;-0.07122802734375;-0.998931884765625;-0.006399043370038271;-0.017413876950740814;-0.002238120650872588
0.0729217529296875;-0.07122802734375;-0.998931884765625;-0.006399043370038271;-0.017413876950740814;-0.002238120650872588
0.0729217529296875;-0.07122802734375;-0.998931884765625;-0.006399043370038271;-0.017413876950740814;-0.002238120650872588
0.0729217529296875;-0.07122802734375;-0.998931884765625;-0.006399043370038271;-0.017413876950740814;-0.002238120650872588
0.0725860595703125;-0.07110595703125;-1.003387451171875;-0.005252552684396505;-0.013680391944944859;-0.0030186930671334267
0.0725860595703125;-0.07110595703125;-1.003387451171875;-0.005252552684396505;-0.013680391944944859;-0.0030186930671334267
0.0725860595703125;-0.07110595703125;-1.003387451171875;-0.005252552684396505;-0.013680391944944859;-0.0030186930671334267
0.0725860595703125;-0.07110595703125;-1.003387451171875;-0.005252552684396505;-0.013680391944944859;-0.0030186930671334267
0.0741119384765625;-0.0716552734375;-1.0070953369140625;-0.0063007730059325695;-0.005304484162479639;4.6339002437889576e-05
0.0741119384765625;-0.0716552734375;-1.0070953369140625;-0.0063007730059325695;-0.005304484162479639;4.6339002437889576e-05
0.0741119384765625;-0.0716552734375;-1.0070953369140625;-0.0063007730059325695;-0.005304484162479639;4.6339002437889576e-05
0.0741119384765625;-0.0716552734375;-1.0070953369140625;-0.0063007730059325695;-0.005304484162479639;4.6339002437889576e-05
0.0741119384765625;-0.0716552734375;-1.0070953369140625;-0.0063007730059325695;-0.005304484162479639;4.6339002437889576e-05
0.0744171142578125;-0.0726318359375;-1.005462646484375;-0.013233247213065624;0.0014711301773786545;0.0003062635369133204
0.0744171142578125;-0.0726318359375;-1.005462646484375;-0.013233247213065624;0.0014711301773786545;0.0003062635369133204
0.0744171142578125;-0.0726318359375;-1.005462646484375;-0.013233247213065624;0.0014711301773786545;0.0003062635369133204
0.0744171142578125;-0.0726318359375;-1.005462646484375;-0.013233247213065624;0.0014711301773786545;0.0003062635369133204
0.0744171142578125;-0.0726318359375;-1.005462646484375;-0.013233247213065624;0.0014711301773786545;0.0003062635369133204
0.074859619140625;-0.0740509033203125;-1.0044097900390625;-0.01417467463761568;0.005720470100641251;0.00446798512712121
0.074859619140625;-0.0740509033203125;-1.0044097900390625;-0.01417467463761568;0.005720470100641251;0.00446798512712121
0.074859619140625;-0.0740509033203125;-1.0044097900390625;-0.01417467463761568;0.005720470100641251;0.00446798512712121
0.074859619140625;-0.0740509033203125;-1.0044097900390625;-0.01417467463761568;0.005720470100641251;0.00446798512712121
0.074859619140625;-0.0740509033203125;-1.0044097900390625;-0.01417467463761568;0.005720470100641251;0.00446798512712121
0.07415771484375;-0.0747833251953125;-1.0078887939453125;-0.017585651949048042;0.0031944618094712496;0.0006202502408996224
0.07415771484375;-0.0747833251953125;-1.0078887939453125;-0.017585651949048042;0.0031944618094712496;0.0006202502408996224
0.07415771484375;-0.0747833251953125;-1.0078887939453125;-0.017585651949048042;0.0031944618094712496;0.0006202502408996224
0.07415771484375;-0.0747833251953125;-1.0078887939453125;-0.017585651949048042;0.0031944618094712496;0.0006202502408996224
0.07415771484375;-0.0747833251953125;-1.0078887939453125;-0.017585651949048042;0.0031944618094712496;0.0006202502408996224
0.0729217529296875;-0.0752410888671875;-1.011016845703125;-0.020564664155244827;0.003918575122952461;0.004009655211120844
0.0729217529296875;-0.0752410888671875;-1.011016845703125;-0.020564664155244827;0.003918575122952461;0.004009655211120844
0.0729217529296875;-0.0752410888671875;-1.011016845703125;-0.020564664155244827;0.003918575122952461;0.004009655211120844
0.0729217529296875;-0.0752410888671875;-1.011016845703125;-0.020564664155244827;0.003918575122952461;0.004009655211120844
0.0729217529296875;-0.0752410888671875;-1.011016845703125;-0.020564664155244827;0.003918575122952461;0.004009655211120844
0.0732574462890625;-0.0756988525390625;-1.011077880859375;-0.023073626682162285;0.0070248860865831375;0.004584631882607937
0.0732574462890625;-0.0756988525390625;-1.011077880859375;-0.023073626682162285;0.0070248860865831375;0.004584631882607937
0.0732574462890625;-0.0756988525390625;-1.011077880859375;-0.023073626682162285;0.0070248860865831375;0.004584631882607937
0.0732574462890625;-0.0756988525390625;-1.011077880859375;-0.023073626682162285;0.0070248860865831375;0.004584631882607937
0.0732574462890625;-0.0756988525390625;-1.011077880859375;-0.023073626682162285;0.0070248860865831375;0.004584631882607937
0.072723388671875;-0.0757904052734375;-1.0088653564453125;-0.027332821860909462;0.0121866250410676;0.004156395327299833
0.072723388671875;-0.0757904052734375;-1.0088653564453125;-0.027332821860909462;0.0121866250410676;0.004156395327299833
0.072723388671875;-0.0757904052734375;-1.0088653564453125;-0.027332821860909462;0.0121866250410676;0.004156395327299833
0.072723388671875;-0.0757904052734375;-1.0088653564453125;-0.027332821860909462;0.0121866250410676;0.004156395327299833
0.072723388671875;-0.0757904052734375;-1.0088653564453125;-0.027332821860909462;0.0121866250410676;0.004156395327299833
0.0731964111328125;-0.0770416259765625;-1.007568359375;-0.037768684327602386;0.009822270832955837;0.0038360171020030975
0.0731964111328125;-0.0770416259765625;-1.007568359375;-0.037768684327602386;0.009822270832955837;0.0038360171020030975
0.0731964111328125;-0.0770416259765625;-1.007568359375;-0.037768684327602386;0.009822270832955837;0.0038360171020030975
0.0731964111328125;-0.0770416259765625;-1.007568359375;-0.037768684327602386;0.009822270832955837;0.0038360171020030975
0.0731964111328125;-0.0770416259765625;-1.007568359375;-0.037768684327602386;0.009822270832955837;0.0038360171020030975
0.0738525390625;-0.0764923095703125;-1.0074005126953125;-0.04158099740743637;0.007455519400537014;0.0059779975563287735
0.0738525390625;-0.0764923095703125;-1.0074005126953125;-0.04158099740743637;0.007455519400537014;0.0059779975563287735
0.0738525390625;-0.0764923095703125;-1.0074005126953125;-0.04158099740743637;0.007455519400537014;0.0059779975563287735
0.0738525390625;-0.0764923095703125;-1.0074005126953125;-0.04158099740743637;0.007455519400537014;0.0059779975563287735
0.0738525390625;-0.0764923095703125;-1.0074005126953125;-0.04158099740743637;0.007455519400537014;0.0059779975563287735
0.0730133056640625;-0.075408935546875;-1.005615234375;-0.04577361419796944;0.010220413096249104;0.006443251855671406
0.0730133056640625;-0.075408935546875;-1.005615234375;-0.04577361419796944;0.010220413096249104;0.006443251855671406
0.0730133056640625;-0.075408935546875;-1.005615234375;-0.04577361419796944;0.010220413096249104;0.006443251855671406
0.0730133056640625;-0.075408935546875;-1.005615234375;-0.04577361419796944;0.010220413096249104;0.006443251855671406
0.0730133056640625;-0.075408935546875;-1.005615234375;-0.04577361419796944;0.010220413096249104;0.006443251855671406
0.072113037109375;-0.0733184814453125;-1.004791259765625;-0.04911534860730171;0.004205397795885801;0.002916427794843912
0.072113037109375;-0.0733184814453125;-1.004791259765625;-0.04911534860730171;0.004205397795885801;0.002916427794843912
0.072113037109375;-0.0733184814453125;-1.004791259765625;-0.04911534860730171;0.004205397795885801;0.002916427794843912
0.072113037109375;-0.0733184814453125;-1.004791259765625;-0.04911534860730171;0.004205397795885801;0.002916427794843912
0.072113037109375;-0.0733184814453125;-1.004791259765625;-0.04911534860730171;0.004205397795885801;0.002916427794843912
0.0705413818359375;-0.0719146728515625;-1.008026123046875;-0.04836859926581383;0.0070432620123028755;0.004002198576927185
0.0705413818359375;-0.0719146728515625;-1.008026123046875;-0.04836859926581383;0.0070432620123028755;0.004002198576927185
0.0705413818359375;-0.0719146728515625;-1.008026123046875;-0.04836859926581383;0.0070432620123028755;0.004002198576927185
0.0705413818359375;-0.0719146728515625;-1.008026123046875;-0.04836859926581383;0.0070432620123028755;0.004002198576927185
0.0705413818359375;-0.0719146728515625;-1.008026123046875;-0.04836859926581383;0.0070432620123028755;0.004002198576927185
0.0691680908203125;-0.0704345703125;-1.008392333984375;-0.04803037643432617;0.0028391960076987743;0.0008466189028695226
0.0691680908203125;-0.0704345703125;-1.008392333984375;-0.04803037643432617;0.0028391960076987743;0.0008466189028695226
0.0691680908203125;-0.0704345703125;-1.008392333984375;-0.04803037643432617;0.0028391960076987743;0.0008466189028695226
0.0691680908203125;-0.0704345703125;-1.008392333984375;-0.04803037643432617;0.0028391960076987743;0.0008466189028695226
0.0691680908203125;-0.0704345703125;-1.008392333984375;-0.04803037643432617;0.0028391960076987743;0.0008466189028695226
0.0697784423828125;-0.0697174072265625;-1.00811767578125;-0.0451538972556591;-0.002108957152813673;0.00013395700079854578
0.0697784423828125;-0.0697174072265625;-1.00811767578125;-0.0451538972556591;-0.002108957152813673;0.00013395700079854578
0.0697784423828125;-0.0697174072265625;-1.00811767578125;-0.0451538972556591;-0.002108957152813673;0.00013395700079854578
0.0697784423828125;-0.0697174072265625;-1.00811767578125;-0.0451538972556591;-0.002108957152813673;0.00013395700079854578
0.0697784423828125;-0.0697174072265625;-1.00811767578125;-0.0451538972556591;-0.002108957152813673;0.00013395700079854578
0.06982421875;-0.0680084228515625;-1.010528564453125;-0.03311214596033096;-0.008150071837008;5.9921123465755954e-05
0.06982421875;-0.0680084228515625;-1.010528564453125;-0.03311214596033096;-0.008150071837008;5.9921123465755954e-05
0.06982421875;-0.0680084228515625;-1.010528564453125;-0.03311214596033096;-0.008150071837008;5.9921123465755954e-05
0.06982421875;-0.0680084228515625;-1.010528564453125;-0.03311214596033096;-0.008150071837008;5.9921123465755954e-05
0.06982421875;-0.0680084228515625;-1.010528564453125;-0.03311214596033096;-0.008150071837008;5.9921123465755954e-05
0.0706024169921875;-0.0668792724609375;-1.013031005859375;-0.021169466897845268;-0.003790477057918906;-0.002528671408072114
0.0706024169921875;-0.0668792724609375;-1.013031005859375;-0.021169466897845268;-0.003790477057918906;-0.002528671408072114
0.0706024169921875;-0.0668792724609375;-1.013031005859375;-0.021169466897845268;-0.003790477057918906;-0.002528671408072114
0.0706024169921875;-0.0668792724609375;-1.013031005859375;-0.021169466897845268;-0.003790477057918906;-0.002528671408072114
0.0706024169921875;-0.0668792724609375;-1.013031005859375;-0.021169466897845268;-0.003790477057918906;-0.002528671408072114
0.071746826171875;-0.066986083984375;-1.0106353759765625;-0.022177208214998245;-0.00424188282340765;-0.004217382054775953
0.071746826171875;-0.066986083984375;-1.0106353759765625;-0.022177208214998245;-0.00424188282340765;-0.004217382054775953
0.071746826171875;-0.066986083984375;-1.0106353759765625;-0.022177208214998245;-0.00424188282340765;-0.004217382054775953
0.071746826171875;-0.066986083984375;-1.0106353759765625;-0.022177208214998245;-0.00424188282340765;-0.004217382054775953
0.071746826171875;-0.066986083984375;-1.0106353759765625;-0.022177208214998245;-0.00424188282340765;-0.004217382054775953
0.0729217529296875;-0.0678253173828125;-1.0085601806640625;-0.01901417039334774;-0.005049886181950569;-0.0019166769925504923
0.0729217529296875;-0.0678253173828125;-1.0085601806640625;-0.01901417039334774;-0.005049886181950569;-0.0019166769925504923
0.0729217529296875;-0.0678253173828125;-1.0085601806640625;-0.01901417039334774;-0.005049886181950569;-0.0019166769925504923
0.0729217529296875;-0.0678253173828125;-1.0085601806640625;-0.01901417039334774;-0.005049886181950569;-0.0019166769925504923
0.0729217529296875;-0.0678253173828125;-1.0085601806640625;-0.01901417039334774;-0.005049886181950569;-0.0019166769925504923
0.073577880859375;-0.0676116943359375;-1.010101318359375;-0.019110843539237976;-0.0035137746017426252;-0.0006785734440200031
0.073577880859375;-0.0676116943359375;-1.010101318359375;-0.019110843539237976;-0.0035137746017426252;-0.0006785734440200031
0.073577880859375;-0.0676116943359375;-1.010101318359375;-0.019110843539237976;-0.0035137746017426252;-0.0006785734440200031
0.073577880859375;-0.0676116943359375;-1.010101318359375;-0.019110843539237976;-0.0035137746017426252;-0.0006785734440200031
0.073577880859375;-0.0676116943359375;-1.010101318359375;-0.019110843539237976;-0.0035137746017426252;-0.0006785734440200031
0.0737152099609375;-0.067840576171875;-1.0110015869140625;-0.02430613897740841;-0.009943710640072823;-0.0001448759576305747
0.0737152099609375;-0.067840576171875;-1.0110015869140625;-0.02430613897740841;-0.009943710640072823;-0.0001448759576305747
0.0737152099609375;-0.067840576171875;-1.0110015869140625;-0.02430613897740841;-0.009943710640072823;-0.0001448759576305747
0.0737152099609375;-0.067840576171875;-1.0110015869140625;-0.02430613897740841;-0.009943710640072823;-0.0001448759576305747
0.0737152099609375;-0.067840576171875;-1.0110015869140625;-0.02430613897740841;-0.009943710640072823;-0.0001448759576305747
0.0744476318359375;-0.0687713623046875;-1.0102996826171875;-0.023310914635658264;-0.014897456392645836;0.0019494339358061552
0.0744476318359375;-0.0687713623046875;-1.0102996826171875;-0.023310914635658264;-0.014897456392645836;0.0019494339358061552
0.0744476318359375;-0.0687713623046875;-1.0102996826171875;-0.023310914635658264;-0.014897456392645836;0.0019494339358061552
0.0744476318359375;-0.0687713623046875;-1.0102996826171875;-0.023310914635658264;-0.014897456392645836;0.0019494339358061552
0.0744476318359375;-0.0687713623046875;-1.0102996826171875;-0.023310914635658264;-0.014897456392645836;0.0019494339358061552
0.07330322265625;-0.0692138671875;-1.0121917724609375;-0.027992751449346542;-0.0189001876860857;0.002659432590007782
0.07330322265625;-0.0692138671875;-1.0121917724609375;-0.027992751449346542;-0.0189001876860857;0.002659432590007782
0.07330322265625;-0.0692138671875;-1.0121917724609375;-0.027992751449346542;-0.0189001876860857;0.002659432590007782
0.07330322265625;-0.0692138671875;-1.0121917724609375;-0.027992751449346542;-0.0189001876860857;0.002659432590007782
0.07330322265625;-0.0692138671875;-1.0121917724609375;-0.027992751449346542;-0.0189001876860857;0.002659432590007782
0.07269287109375;-0.06976318359375;-1.011016845703125;-0.03231719508767128;-0.016223179176449776;0.0008578042034059763
0.07269287109375;-0.06976318359375;-1.011016845703125;-0.03231719508767128;-0.016223179176449776;0.0008578042034059763
0.07269287109375;-0.06976318359375;-1.011016845703125;-0.03231719508767128;-0.016223179176449776;0.0008578042034059763
0.07269287109375;-0.06976318359375;-1.011016845703125;-0.03231719508767128;-0.016223179176449776;0.0008578042034059763
0.07269287109375;-0.06976318359375;-1.011016845703125;-0.03231719508767128;-0.016223179176449776;0.0008578042034059763
0.0724945068359375;-0.0702362060546875;-1.0054779052734375;-0.0336141511797905;-0.01555152889341116;0.003309244057163596
0.0724945068359375;-0.0702362060546875;-1.0054779052734375;-0.0336141511797905;-0.01555152889341116;0.003309244057163596
0.0724945068359375;-0.0702362060546875;-1.0054779052734375;-0.0336141511797905;-0.01555152889341116;0.003309244057163596
0.0724945068359375;-0.0702362060546875;-1.0054779052734375;-0.0336141511797905;-0.01555152889341116;0.003309244057163596
0.0724945068359375;-0.0702362060546875;-1.0054779052734375;-0.0336141511797905;-0.01555152889341116;0.003309244057163596
0.073699951171875;-0.070587158203125;-1.0063629150390625;-0.035418711602687836;-0.015064170584082603;0.002989931032061577
0.073699951171875;-0.070587158203125;-1.0063629150390625;-0.035418711602687836;-0.015064170584082603;0.002989931032061577
0.073699951171875;-0.070587158203125;-1.0063629150390625;-0.035418711602687836;-0.015064170584082603;0.002989931032061577
0.073699951171875;-0.070587158203125;-1.0063629150390625;-0.035418711602687836;-0.015064170584082603;0.002989931032061577
0.073699951171875;-0.070587158203125;-1.0063629150390625;-0.035418711602687836;-0.015064170584082603;0.002989931032061577
0.0742645263671875;-0.070281982421875;-1.009368896484375;-0.03269403055310249;-0.016565660014748573;0.003885285696014762
0.0742645263671875;-0.070281982421875;-1.009368896484375;-0.03269403055310249;-0.016565660014748573;0.003885285696014762
0.0742645263671875;-0.070281982421875;-1.009368896484375;-0.03269403055310249;-0.016565660014748573;0.003885285696014762
0.0742645263671875;-0.070281982421875;-1.009368896484375;-0.03269403055310249;-0.016565660014748573;0.003885285696014762
0.0742645263671875;-0.070281982421875;-1.009368896484375;-0.03269403055310249;-0.016565660014748573;0.003885285696014762
0.07452392578125;-0.068939208984375;-1.006805419921875;-0.03271746635437012;-0.009424926713109016;0.004343615844845772
0.07452392578125;-0.068939208984375;-1.006805419921875;-0.03271746635437012;-0.009424926713109016;0.004343615844845772
0.07452392578125;-0.068939208984375;-1.006805419921875;-0.03271746635437012;-0.009424926713109016;0.004343615844845772
0.07452392578125;-0.068939208984375;-1.006805419921875;-0.03271746635437012;-0.009424926713109016;0.004343615844845772
0.07452392578125;-0.068939208984375;-1.006805419921875;-0.03271746635437012;-0.009424926713109016;0.004343615844845772
0.0743408203125;-0.0685577392578125;-1.0001678466796875;-0.03148229047656059;0.02027943916618824;0.0025534387677907944
0.0743408203125;-0.0685577392578125;-1.0001678466796875;-0.03148229047656059;0.02027943916618824;0.0025534387677907944
0.0743408203125;-0.0685577392578125;-1.0001678466796875;-0.03148229047656059;0.02027943916618824;0.0025534387677907944
0.0743408203125;-0.0685577392578125;-1.0001678466796875;-0.03148229047656059;0.02027943916618824;0.0025534387677907944
0.0743408203125;-0.0685577392578125;-1.0001678466796875;-0.03148229047656059;0.02027943916618824;0.0025534387677907944
0.0730133056640625;-0.0677642822265625;-0.9889678955078125;-0.02671496756374836;0.024052871391177177;0.003995274193584919
0.0730133056640625;-0.0677642822265625;-0.9889678955078125;-0.02671496756374836;0.024052871391177177;0.003995274193584919
0.0730133056640625;-0.0677642822265625;-0.9889678955078125;-0.02671496756374836;0.024052871391177177;0.003995274193584919
0.0730133056640625;-0.0677642822265625;-0.9889678955078125;-0.02671496756374836;0.024052871391177177;0.003995274193584919
0.0730133056640625;-0.0677642822265625;-0.9889678955078125;-0.02671496756374836;0.024052871391177177;0.003995274193584919
0.0724029541015625;-0.0645751953125;-1.0091705322265625;-0.010597516782581806;-0.0026764769572764635;0.0027499801944941282
0.0724029541015625;-0.0645751953125;-1.0091705322265625;-0.010597516782581806;-0.0026764769572764635;0.0027499801944941282
0.0724029541015625;-0.0645751953125;-1.0091705322265625;-0.010597516782581806;-0.0026764769572764635;0.0027499801944941282
0.0724029541015625;-0.0645751953125;-1.0091705322265625;-0.010597516782581806;-0.0026764769572764635;0.0027499801944941282
0.0724029541015625;-0.0645751953125;-1.0091705322265625;-0.010597516782581806;-0.0026764769572764635;0.0027499801944941282
0.071563720703125;-0.0617523193359375;-1.0337677001953125;-0.0024596955627202988;-0.02154284343123436;0.0049026133492589
0.071563720703125;-0.0617523193359375;-1.0337677001953125;-0.0024596955627202988;-0.02154284343123436;0.0049026133492589
0.071563720703125;-0.0617523193359375;-1.0337677001953125;-0.0024596955627202988;-0.02154284343123436;0.0049026133492589
0.071563720703125;-0.0617523193359375;-1.0337677001953125;-0.0024596955627202988;-0.02154284343123436;0.0049026133492589
0.071563720703125;-0.0617523193359375;-1.0337677001953125;-0.0024596955627202988;-0.02154284343123436;0.0049026133492589
0.0695343017578125;-0.06341552734375;-1.023712158203125;-0.010541857220232487;-0.04392804205417633;0.006340187508612871
0.0695343017578125;-0.06341552734375;-1.023712158203125;-0.010541857220232487;-0.04392804205417633;0.006340187508612871
0.0695343017578125;-0.06341552734375;-1.023712158203125;-0.010541857220232487;-0.04392804205417633;0.006340187508612871
0.0695343017578125;-0.06341552734375;-1.023712158203125;-0.010541857220232487;-0.04392804205417633;0.006340187508612871
0.0695343017578125;-0.06341552734375;-1.023712158203125;-0.010541857220232487;-0.04392804205417633;0.006340187508612871
0.06805419921875;-0.064666748046875;-1.0189971923828125;-0.01774304360151291;-0.05242139473557472;0.002109489869326353
0.06805419921875;-0.064666748046875;-1.0189971923828125;-0.01774304360151291;-0.05242139473557472;0.002109489869326353
0.06805419921875;-0.064666748046875;-1.0189971923828125;-0.01774304360151291;-0.05242139473557472;0.002109489869326353
0.06805419921875;-0.064666748046875;-1.0189971923828125;-0.01774304360151291;-0.05242139473557472;0.002109489869326353
0.06805419921875;-0.064666748046875;-1.0189971923828125;-0.01774304360151291;-0.05242139473557472;0.002109489869326353
0.0677642822265625;-0.0655975341796875;-1.002777099609375;-0.025786057114601135;-0.03585626929998398;0.0026764769572764635
0.0677642822265625;-0.0655975341796875;-1.002777099609375;-0.025786057114601135;-0.03585626929998398;0.0026764769572764635
0.0677642822265625;-0.0655975341796875;-1.002777099609375;-0.025786057114601135;-0.03585626929998398;0.0026764769572764635
0.0677642822265625;-0.0655975341796875;-1.002777099609375;-0.025786057114601135;-0.03585626929998398;0.0026764769572764635
0.0677642822265625;-0.0655975341796875;-1.002777099609375;-0.025786057114601135;-0.03585626929998398;0.0026764769572764635
0.067230224609375;-0.066558837890625;-0.9964752197265625;-0.016762735322117805;-0.026694728061556816;0.0017805894603952765
0.067230224609375;-0.066558837890625;-0.9964752197265625;-0.016762735322117805;-0.026694728061556816;0.0017805894603952765
0.067230224609375;-0.066558837890625;-0.9964752197265625;-0.016762735322117805;-0.026694728061556816;0.0017805894603952765
0.067230224609375;-0.066558837890625;-0.9964752197265625;-0.016762735322117805;-0.026694728061556816;0.0017805894603952765
0.067230224609375;-0.066558837890625;-0.9964752197265625;-0.016762735322117805;-0.026694728061556816;0.0017805894603952765
0.0687713623046875;-0.0646820068359375;-1.010101318359375;0.009807889349758625;-0.018579542636871338;0.0015315839555114508
0.0687713623046875;-0.0646820068359375;-1.010101318359375;0.009807889349758625;-0.018579542636871338;0.0015315839555114508
0.0687713623046875;-0.0646820068359375;-1.010101318359375;0.009807889349758625;-0.018579542636871338;0.0015315839555114508
0.0687713623046875;-0.0646820068359375;-1.010101318359375;0.009807889349758625;-0.018579542636871338;0.0015315839555114508
0.0687713623046875;-0.0646820068359375;-1.010101318359375;0.009807889349758625;-0.018579542636871338;0.0015315839555114508
0.0682373046875;-0.0626678466796875;-1.01300048828125;0.02664892189204693;-0.017365673556923866;-0.0005731122801080346
0.0682373046875;-0.0626678466796875;-1.01300048828125;0.02664892189204693;-0.017365673556923866;-0.0005731122801080346
0.0682373046875;-0.0626678466796875;-1.01300048828125;0.02664892189204693;-0.017365673556923866;-0.0005731122801080346
0.0682373046875;-0.0626678466796875;-1.01300048828125;0.02664892189204693;-0.017365673556923866;-0.0005731122801080346
0.0682373046875;-0.0626678466796875;-1.01300048828125;0.02664892189204693;-0.017365673556923866;-0.0005731122801080346
0.0690460205078125;-0.06451416015625;-1.0160675048828125;0.027157850563526154;-0.021273329854011536;0.0006745787104591727
0.0690460205078125;-0.06451416015625;-1.0160675048828125;0.027157850563526154;-0.021273329854011536;0.0006745787104591727
0.0690460205078125;-0.06451416015625;-1.0160675048828125;0.027157850563526154;-0.021273329854011536;0.0006745787104591727
0.0690460205078125;-0.06451416015625;-1.0160675048828125;0.027157850563526154;-0.021273329854011536;0.0006745787104591727
