Acell X;Acell Y;Acell Z;Gyro X;Gyro Y;Gyro Z

-0.09002685546875;-0.1727752685546875;-1.0028228759765625;-0.037093039602041245;0.006304767448455095;-0.0018261295044794679
-0.0909271240234375;-0.1706390380859375;-1.0007171630859375;-0.037093039602041245;0.006304767448455095;-0.0018261295044794679
-0.0909271240234375;-0.1706390380859375;-1.0007171630859375;-0.037093039602041245;0.006304767448455095;-0.0018261295044794679
-0.0909271240234375;-0.1706390380859375;-1.0007171630859375;-0.037093039602041245;0.006304767448455095;-0.0018261295044794679
-0.0909271240234375;-0.1706390380859375;-1.0007171630859375;-0.037093039602041245;0.006304767448455095;-0.0018261295044794679
-0.0909271240234375;-0.1706390380859375;-1.0007171630859375;-0.02654372714459896;0.009290703572332859;-0.0006870955694466829
-0.0909271240234375;-0.1706390380859375;-1.0007171630859375;-0.02654372714459896;0.009290703572332859;-0.0006870955694466829
-0.091217041015625;-0.1678314208984375;-0.996490478515625;-0.02654372714459896;0.009290703572332859;-0.0006870955694466829
-0.091217041015625;-0.1678314208984375;-0.996490478515625;-0.02654372714459896;0.009290703572332859;-0.0006870955694466829
-0.091217041015625;-0.1678314208984375;-0.996490478515625;-0.02654372714459896;0.009290703572332859;-0.0006870955694466829
-0.091217041015625;-0.1678314208984375;-0.996490478515625;-0.024291491135954857;0.008802279829978943;5.326322207110934e-05
-0.090606689453125;-0.1652069091796875;-0.9915924072265625;-0.024291491135954857;0.008802279829978943;5.326322207110934e-05
-0.090606689453125;-0.1652069091796875;-0.9915924072265625;-0.024291491135954857;0.008802279829978943;5.326322207110934e-05
-0.090606689453125;-0.1652069091796875;-0.9915924072265625;-0.024291491135954857;0.008802279829978943;5.326322207110934e-05
-0.090606689453125;-0.1652069091796875;-0.9915924072265625;-0.024291491135954857;0.008802279829978943;5.326322207110934e-05
-0.090606689453125;-0.1652069091796875;-0.9915924072265625;-0.02834535576403141;0.004799016285687685;0.003641340183094144
-0.089447021484375;-0.16351318359375;-0.9878692626953125;-0.02834535576403141;0.004799016285687685;0.003641340183094144
-0.089447021484375;-0.16351318359375;-0.9878692626953125;-0.02834535576403141;0.004799016285687685;0.003641340183094144
-0.089447021484375;-0.16351318359375;-0.9878692626953125;-0.02834535576403141;0.004799016285687685;0.003641340183094144
-0.089447021484375;-0.16351318359375;-0.9878692626953125;-0.02834535576403141;0.004799016285687685;0.003641340183094144
-0.089447021484375;-0.16351318359375;-0.9878692626953125;-0.030550451949238777;-0.0032780850306153297;0.004848817363381386
-0.0882568359375;-0.163055419921875;-0.99005126953125;-0.030550451949238777;-0.0032780850306153297;0.004848817363381386
-0.0882568359375;-0.163055419921875;-0.99005126953125;-0.030550451949238777;-0.0032780850306153297;0.004848817363381386
-0.0882568359375;-0.163055419921875;-0.99005126953125;-0.030550451949238777;-0.0032780850306153297;0.004848817363381386
-0.0882568359375;-0.163055419921875;-0.99005126953125;-0.030550451949238777;-0.0032780850306153297;0.004848817363381386
-0.0882568359375;-0.163055419921875;-0.99005126953125;-0.04027258977293968;-0.007586014457046986;0.007446464616805315
-0.0874176025390625;-0.1630859375;-0.99066162109375;-0.04027258977293968;-0.007586014457046986;0.007446464616805315
-0.0874176025390625;-0.1630859375;-0.99066162109375;-0.04027258977293968;-0.007586014457046986;0.007446464616805315
-0.0874176025390625;-0.1630859375;-0.99066162109375;-0.04027258977293968;-0.007586014457046986;0.007446464616805315
-0.0874176025390625;-0.1630859375;-0.99066162109375;-0.04027258977293968;-0.007586014457046986;0.007446464616805315
-0.0874176025390625;-0.1630859375;-0.99066162109375;-0.04692409932613373;-0.00971601065248251;0.005919408053159714
-0.08709716796875;-0.1626129150390625;-0.9903717041015625;-0.04692409932613373;-0.00971601065248251;0.005919408053159714
-0.08709716796875;-0.1626129150390625;-0.9903717041015625;-0.04692409932613373;-0.00971601065248251;0.005919408053159714
-0.08709716796875;-0.1626129150390625;-0.9903717041015625;-0.04692409932613373;-0.00971601065248251;0.005919408053159714
-0.08709716796875;-0.1626129150390625;-0.9903717041015625;-0.04692409932613373;-0.00971601065248251;0.005919408053159714
-0.08709716796875;-0.1626129150390625;-0.9903717041015625;-0.04555550217628479;-0.00800572894513607;0.0073388731107115746
-0.0880889892578125;-0.1613006591796875;-0.9925079345703125;-0.04555550217628479;-0.00800572894513607;0.0073388731107115746
-0.0880889892578125;-0.1613006591796875;-0.9925079345703125;-0.04555550217628479;-0.00800572894513607;0.0073388731107115746
-0.0880889892578125;-0.1613006591796875;-0.9925079345703125;-0.04555550217628479;-0.00800572894513607;0.0073388731107115746
-0.0880889892578125;-0.1613006591796875;-0.9925079345703125;-0.04555550217628479;-0.00800572894513607;0.0073388731107115746
-0.0880889892578125;-0.1613006591796875;-0.9925079345703125;-0.037390515208244324;-0.006780141964554787;0.004667456261813641
-0.08978271484375;-0.162933349609375;-0.998138427734375;-0.037390515208244324;-0.006780141964554787;0.004667456261813641
-0.08978271484375;-0.162933349609375;-0.998138427734375;-0.037390515208244324;-0.006780141964554787;0.004667456261813641
-0.08978271484375;-0.162933349609375;-0.998138427734375;-0.037390515208244324;-0.006780141964554787;0.004667456261813641
-0.08978271484375;-0.162933349609375;-0.998138427734375;-0.037390515208244324;-0.006780141964554787;0.004667456261813641
-0.08978271484375;-0.162933349609375;-0.998138427734375;-0.021695176139473915;-0.01769563928246498;0.002326803747564554
-0.0902099609375;-0.1654815673828125;-1.0101165771484375;-0.021695176139473915;-0.01769563928246498;0.002326803747564554
-0.0902099609375;-0.1654815673828125;-1.0101165771484375;-0.021695176139473915;-0.01769563928246498;0.002326803747564554
-0.0902099609375;-0.1654815673828125;-1.0101165771484375;-0.021695176139473915;-0.01769563928246498;0.002326803747564554
-0.0902099609375;-0.1654815673828125;-1.0101165771484375;-0.021695176139473915;-0.01769563928246498;0.002326803747564554
-0.0902099609375;-0.1654815673828125;-1.0101165771484375;-0.002915628720074892;-0.02755626104772091;-0.00010279801790602505
-0.0889739990234375;-0.168182373046875;-1.022003173828125;-0.002915628720074892;-0.02755626104772091;-0.00010279801790602505
-0.0889739990234375;-0.168182373046875;-1.022003173828125;-0.002915628720074892;-0.02755626104772091;-0.00010279801790602505
-0.0889739990234375;-0.168182373046875;-1.022003173828125;-0.002915628720074892;-0.02755626104772091;-0.00010279801790602505
-0.0889739990234375;-0.168182373046875;-1.022003173828125;-0.002915628720074892;-0.02755626104772091;-0.00010279801790602505
-0.0889739990234375;-0.168182373046875;-1.022003173828125;0.0018053569365292788;-0.016765929758548737;-2.8495824153651483e-05
-0.0890655517578125;-0.17034912109375;-1.018402099609375;0.0018053569365292788;-0.016765929758548737;-2.8495824153651483e-05
-0.0890655517578125;-0.17034912109375;-1.018402099609375;0.0018053569365292788;-0.016765929758548737;-2.8495824153651483e-05
-0.0890655517578125;-0.17034912109375;-1.018402099609375;0.0018053569365292788;-0.016765929758548737;-2.8495824153651483e-05
-0.0890655517578125;-0.17034912109375;-1.018402099609375;0.0018053569365292788;-0.016765929758548737;-2.8495824153651483e-05
-0.0890655517578125;-0.17034912109375;-1.018402099609375;-0.012160525657236576;0.011716310866177082;0.0033041839487850666
-0.0894927978515625;-0.1743621826171875;-1.002349853515625;-0.012160525657236576;0.011716310866177082;0.0033041839487850666
-0.0894927978515625;-0.1743621826171875;-1.002349853515625;-0.012160525657236576;0.011716310866177082;0.0033041839487850666
-0.0894927978515625;-0.1743621826171875;-1.002349853515625;-0.012160525657236576;0.011716310866177082;0.0033041839487850666
-0.0894927978515625;-0.1743621826171875;-1.002349853515625;-0.012160525657236576;0.011716310866177082;0.0033041839487850666
-0.0894927978515625;-0.1743621826171875;-1.002349853515625;-0.03443280979990959;0.05167198181152344;0.0017907095607370138
-0.0894927978515625;-0.1751861572265625;-0.991424560546875;-0.03443280979990959;0.05167198181152344;0.0017907095607370138
-0.0894927978515625;-0.1751861572265625;-0.991424560546875;-0.03443280979990959;0.05167198181152344;0.0017907095607370138
-0.0894927978515625;-0.1751861572265625;-0.991424560546875;-0.03443280979990959;0.05167198181152344;0.0017907095607370138
-0.0894927978515625;-0.1751861572265625;-0.991424560546875;-0.03443280979990959;0.05167198181152344;0.0017907095607370138
-0.0894927978515625;-0.1751861572265625;-0.991424560546875;-0.057376474142074585;0.06988747417926788;0.005372394807636738
-0.08782958984375;-0.17645263671875;-0.9898529052734375;-0.057376474142074585;0.06988747417926788;0.005372394807636738
-0.08782958984375;-0.17645263671875;-0.9898529052734375;-0.057376474142074585;0.06988747417926788;0.005372394807636738
-0.08782958984375;-0.17645263671875;-0.9898529052734375;-0.057376474142074585;0.06988747417926788;0.005372394807636738
-0.08782958984375;-0.17645263671875;-0.9898529052734375;-0.057376474142074585;0.06988747417926788;0.005372394807636738
-0.08782958984375;-0.17645263671875;-0.9898529052734375;-0.057376474142074585;0.06988747417926788;0.005372394807636738
-0.08782958984375;-0.17645263671875;-0.9898529052734375;-0.07807908952236176;0.07489421218633652;0.011975702829658985
-0.0868377685546875;-0.1754302978515625;-0.993499755859375;-0.07807908952236176;0.07489421218633652;0.011975702829658985
-0.0868377685546875;-0.1754302978515625;-0.993499755859375;-0.07807908952236176;0.07489421218633652;0.011975702829658985
-0.0868377685546875;-0.1754302978515625;-0.993499755859375;-0.07807908952236176;0.07489421218633652;0.011975702829658985
-0.0868377685546875;-0.1754302978515625;-0.993499755859375;-0.09775905311107635;0.07203345000743866;0.011746404692530632
-0.0875244140625;-0.1724853515625;-0.995361328125;-0.09775905311107635;0.07203345000743866;0.011746404692530632
-0.0875244140625;-0.1724853515625;-0.995361328125;-0.09775905311107635;0.07203345000743866;0.011746404692530632
-0.0875244140625;-0.1724853515625;-0.995361328125;-0.09775905311107635;0.07203345000743866;0.011746404692530632
-0.0875244140625;-0.1724853515625;-0.995361328125;-0.09775905311107635;0.07203345000743866;0.011746404692530632
-0.0875244140625;-0.1724853515625;-0.995361328125;-0.10826361924409866;0.0802285298705101;0.010034524835646152
-0.0894317626953125;-0.16961669921875;-0.995758056640625;-0.10826361924409866;0.0802285298705101;0.010034524835646152
-0.0894317626953125;-0.16961669921875;-0.995758056640625;-0.10826361924409866;0.0802285298705101;0.010034524835646152
-0.0894317626953125;-0.16961669921875;-0.995758056640625;-0.10826361924409866;0.0802285298705101;0.010034524835646152
-0.0894317626953125;-0.16961669921875;-0.995758056640625;-0.10826361924409866;0.0802285298705101;0.010034524835646152
-0.0894317626953125;-0.16961669921875;-0.995758056640625;-0.117951400578022;0.09731137007474899;0.012259862385690212
-0.0898895263671875;-0.16644287109375;-1.0010528564453125;-0.117951400578022;0.09731137007474899;0.012259862385690212
-0.0898895263671875;-0.16644287109375;-1.0010528564453125;-0.117951400578022;0.09731137007474899;0.012259862385690212
-0.0898895263671875;-0.16644287109375;-1.0010528564453125;-0.117951400578022;0.09731137007474899;0.012259862385690212
-0.0898895263671875;-0.16644287109375;-1.0010528564453125;-0.117951400578022;0.09731137007474899;0.012259862385690212
-0.0898895263671875;-0.16644287109375;-1.0010528564453125;-0.127409890294075;0.1293763667345047;0.00714792450889945
-0.08953857421875;-0.1656494140625;-0.99755859375;-0.127409890294075;0.1293763667345047;0.00714792450889945
-0.08953857421875;-0.1656494140625;-0.99755859375;-0.127409890294075;0.1293763667345047;0.00714792450889945
-0.08953857421875;-0.1656494140625;-0.99755859375;-0.127409890294075;0.1293763667345047;0.00714792450889945
-0.08953857421875;-0.1656494140625;-0.99755859375;-0.127409890294075;0.1293763667345047;0.00714792450889945
-0.08953857421875;-0.1656494140625;-0.99755859375;-0.12684635818004608;0.14671434462070465;-0.00041012681322172284
-0.089599609375;-0.164642333984375;-0.9914703369140625;-0.12684635818004608;0.14671434462070465;-0.00041012681322172284
-0.089599609375;-0.164642333984375;-0.9914703369140625;-0.12684635818004608;0.14671434462070465;-0.00041012681322172284
-0.089599609375;-0.164642333984375;-0.9914703369140625;-0.12684635818004608;0.14671434462070465;-0.00041012681322172284
-0.089599609375;-0.164642333984375;-0.9914703369140625;-0.12684635818004608;0.14671434462070465;-0.00041012681322172284
-0.089599609375;-0.164642333984375;-0.9914703369140625;-0.11146234720945358;0.14240774512290955;-0.0034818167332559824
-0.0887451171875;-0.1627044677734375;-0.9976348876953125;-0.11146234720945358;0.14240774512290955;-0.0034818167332559824
-0.0887451171875;-0.1627044677734375;-0.9976348876953125;-0.11146234720945358;0.14240774512290955;-0.0034818167332559824
-0.0887451171875;-0.1627044677734375;-0.9976348876953125;-0.11146234720945358;0.14240774512290955;-0.0034818167332559824
-0.0887451171875;-0.1627044677734375;-0.9976348876953125;-0.11146234720945358;0.14240774512290955;-0.0034818167332559824
-0.0887451171875;-0.1627044677734375;-0.9976348876953125;-0.0845566987991333;0.10618662089109421;-0.00939110480248928
-0.0852203369140625;-0.1612701416015625;-1.0108642578125;-0.0845566987991333;0.10618662089109421;-0.00939110480248928
-0.0852203369140625;-0.1612701416015625;-1.0108642578125;-0.0845566987991333;0.10618662089109421;-0.00939110480248928
-0.0852203369140625;-0.1612701416015625;-1.0108642578125;-0.0845566987991333;0.10618662089109421;-0.00939110480248928
-0.0852203369140625;-0.1612701416015625;-1.0108642578125;-0.0845566987991333;0.10618662089109421;-0.00939110480248928
-0.0852203369140625;-0.1612701416015625;-1.0108642578125;-0.04674699902534485;0.05266374349594116;-0.009353820234537125
-0.0798492431640625;-0.1587066650390625;-1.0238494873046875;-0.04674699902534485;0.05266374349594116;-0.009353820234537125
-0.0798492431640625;-0.1587066650390625;-1.0238494873046875;-0.04674699902534485;0.05266374349594116;-0.009353820234537125
-0.0798492431640625;-0.1587066650390625;-1.0238494873046875;-0.04674699902534485;0.05266374349594116;-0.009353820234537125
-0.0798492431640625;-0.1587066650390625;-1.0238494873046875;-0.04674699902534485;0.05266374349594116;-0.009353820234537125
-0.0798492431640625;-0.1587066650390625;-1.0238494873046875;-0.008591890335083008;0.0030125677585601807;-0.002401372417807579
-0.075164794921875;-0.1598663330078125;-1.0313262939453125;-0.008591890335083008;0.0030125677585601807;-0.002401372417807579
-0.075164794921875;-0.1598663330078125;-1.0313262939453125;-0.008591890335083008;0.0030125677585601807;-0.002401372417807579
-0.075164794921875;-0.1598663330078125;-1.0313262939453125;-0.008591890335083008;0.0030125677585601807;-0.002401372417807579
-0.075164794921875;-0.1598663330078125;-1.0313262939453125;-0.008591890335083008;0.0030125677585601807;-0.002401372417807579
-0.075164794921875;-0.1598663330078125;-1.0313262939453125;0.021396102383732796;-0.023126091808080673;0.007283479440957308
-0.0741119384765625;-0.1648712158203125;-1.02862548828125;0.021396102383732796;-0.023126091808080673;0.007283479440957308
-0.0741119384765625;-0.1648712158203125;-1.02862548828125;0.021396102383732796;-0.023126091808080673;0.007283479440957308
-0.0741119384765625;-0.1648712158203125;-1.02862548828125;0.021396102383732796;-0.023126091808080673;0.007283479440957308
-0.0741119384765625;-0.1648712158203125;-1.02862548828125;0.021396102383732796;-0.023126091808080673;0.007283479440957308
-0.0741119384765625;-0.1648712158203125;-1.02862548828125;0.040114130824804306;-0.02053004316985607;0.009558351710438728
-0.0764617919921875;-0.170318603515625;-1.0227203369140625;0.040114130824804306;-0.02053004316985607;0.009558351710438728
-0.0764617919921875;-0.170318603515625;-1.0227203369140625;0.040114130824804306;-0.02053004316985607;0.009558351710438728
-0.0764617919921875;-0.170318603515625;-1.0227203369140625;0.040114130824804306;-0.02053004316985607;0.009558351710438728
-0.0764617919921875;-0.170318603515625;-1.0227203369140625;0.040114130824804306;-0.02053004316985607;0.009558351710438728
-0.0764617919921875;-0.170318603515625;-1.0227203369140625;0.04183213412761688;-0.002781938062980771;0.012222844175994396
-0.0785369873046875;-0.1728668212890625;-1.0146484375;0.04183213412761688;-0.002781938062980771;0.012222844175994396
-0.0785369873046875;-0.1728668212890625;-1.0146484375;0.04183213412761688;-0.002781938062980771;0.012222844175994396
-0.0785369873046875;-0.1728668212890625;-1.0146484375;0.04183213412761688;-0.002781938062980771;0.012222844175994396
-0.0785369873046875;-0.1728668212890625;-1.0146484375;0.04183213412761688;-0.002781938062980771;0.012222844175994396
-0.0785369873046875;-0.1728668212890625;-1.0146484375;0.027306988835334778;0.02244512178003788;0.011751997284591198
-0.079071044921875;-0.172698974609375;-1.0058746337890625;0.027306988835334778;0.02244512178003788;0.011751997284591198
-0.079071044921875;-0.172698974609375;-1.0058746337890625;0.027306988835334778;0.02244512178003788;0.011751997284591198
-0.079071044921875;-0.172698974609375;-1.0058746337890625;0.027306988835334778;0.02244512178003788;0.011751997284591198
-0.079071044921875;-0.172698974609375;-1.0058746337890625;0.027306988835334778;0.02244512178003788;0.011751997284591198
-0.079071044921875;-0.172698974609375;-1.0058746337890625;-0.0002724413643591106;0.05186000093817711;0.009209210984408855
-0.079803466796875;-0.168731689453125;-0.9977264404296875;-0.0002724413643591106;0.05186000093817711;0.009209210984408855
-0.079803466796875;-0.168731689453125;-0.9977264404296875;-0.0002724413643591106;0.05186000093817711;0.009209210984408855
-0.079803466796875;-0.168731689453125;-0.9977264404296875;-0.0002724413643591106;0.05186000093817711;0.009209210984408855
-0.079803466796875;-0.168731689453125;-0.9977264404296875;-0.0002724413643591106;0.05186000093817711;0.009209210984408855
-0.079803466796875;-0.168731689453125;-0.9977264404296875;-0.03822062164545059;0.06497100740671158;0.010121876373887062
-0.0804901123046875;-0.1636199951171875;-0.988677978515625;-0.03822062164545059;0.06497100740671158;0.010121876373887062
-0.0804901123046875;-0.1636199951171875;-0.988677978515625;-0.03822062164545059;0.06497100740671158;0.010121876373887062
-0.0804901123046875;-0.1636199951171875;-0.988677978515625;-0.03822062164545059;0.06497100740671158;0.010121876373887062
-0.0804901123046875;-0.1636199951171875;-0.988677978515625;-0.03822062164545059;0.06497100740671158;0.010121876373887062
-0.0804901123046875;-0.1636199951171875;-0.988677978515625;-0.08835942298173904;0.0765690729022026;0.010207629762589931
-0.0808258056640625;-0.1598968505859375;-0.9777374267578125;-0.08835942298173904;0.0765690729022026;0.010207629762589931
-0.0808258056640625;-0.1598968505859375;-0.9777374267578125;-0.08835942298173904;0.0765690729022026;0.010207629762589931
-0.0808258056640625;-0.1598968505859375;-0.9777374267578125;-0.08835942298173904;0.0765690729022026;0.010207629762589931
-0.0808258056640625;-0.1598968505859375;-0.9777374267578125;-0.08835942298173904;0.0765690729022026;0.010207629762589931
-0.0808258056640625;-0.1598968505859375;-0.9777374267578125;-0.13944578170776367;0.06778011471033096;0.007855792529881
-0.0813140869140625;-0.1558074951171875;-0.9683990478515625;-0.13944578170776367;0.06778011471033096;0.007855792529881
-0.0813140869140625;-0.1558074951171875;-0.9683990478515625;-0.13944578170776367;0.06778011471033096;0.007855792529881
-0.0813140869140625;-0.1558074951171875;-0.9683990478515625;-0.13944578170776367;0.06778011471033096;0.007855792529881
-0.0813140869140625;-0.1558074951171875;-0.9683990478515625;-0.13944578170776367;0.06778011471033096;0.007855792529881
-0.0813140869140625;-0.1558074951171875;-0.9683990478515625;-0.17731645703315735;0.04573819413781166;0.007138070650398731
-0.0819854736328125;-0.1525421142578125;-0.9674835205078125;-0.17731645703315735;0.04573819413781166;0.007138070650398731
-0.0819854736328125;-0.1525421142578125;-0.9674835205078125;-0.17731645703315735;0.04573819413781166;0.007138070650398731
-0.0819854736328125;-0.1525421142578125;-0.9674835205078125;-0.17731645703315735;0.04573819413781166;0.007138070650398731
-0.0819854736328125;-0.1525421142578125;-0.9674835205078125;-0.17731645703315735;0.04573819413781166;0.007138070650398731
-0.0819854736328125;-0.1525421142578125;-0.9674835205078125;-0.1923137903213501;0.016035690903663635;0.0093919038772583
-0.080780029296875;-0.1491241455078125;-0.9781036376953125;-0.1923137903213501;0.016035690903663635;0.0093919038772583
-0.080780029296875;-0.1491241455078125;-0.9781036376953125;-0.1923137903213501;0.016035690903663635;0.0093919038772583
-0.080780029296875;-0.1491241455078125;-0.9781036376953125;-0.1923137903213501;0.016035690903663635;0.0093919038772583
-0.080780029296875;-0.1491241455078125;-0.9781036376953125;-0.1923137903213501;0.016035690903663635;0.0093919038772583
-0.080780029296875;-0.1491241455078125;-0.9781036376953125;-0.17808212339878082;-0.017764616757631302;0.010792993009090424
-0.0785675048828125;-0.1429290771484375;-0.9973907470703125;-0.17808212339878082;-0.017764616757631302;0.010792993009090424
-0.0785675048828125;-0.1429290771484375;-0.9973907470703125;-0.17808212339878082;-0.017764616757631302;0.010792993009090424
-0.0785675048828125;-0.1429290771484375;-0.9973907470703125;-0.17808212339878082;-0.017764616757631302;0.010792993009090424
-0.0785675048828125;-0.1429290771484375;-0.9973907470703125;-0.17808212339878082;-0.017764616757631302;0.010792993009090424
-0.0785675048828125;-0.1429290771484375;-0.9973907470703125;-0.1360265463590622;-0.038492798805236816;0.007159642409533262
-0.0792694091796875;-0.13751220703125;-1.0206146240234375;-0.1360265463590622;-0.038492798805236816;0.007159642409533262
-0.0792694091796875;-0.13751220703125;-1.0206146240234375;-0.1360265463590622;-0.038492798805236816;0.007159642409533262
-0.0792694091796875;-0.13751220703125;-1.0206146240234375;-0.1360265463590622;-0.038492798805236816;0.007159642409533262
-0.0792694091796875;-0.13751220703125;-1.0206146240234375;-0.1360265463590622;-0.038492798805236816;0.007159642409533262
-0.0792694091796875;-0.13751220703125;-1.0206146240234375;-0.07839600741863251;-0.04668388143181801;0.005919141694903374
-0.0822601318359375;-0.13653564453125;-1.037506103515625;-0.07839600741863251;-0.04668388143181801;0.005919141694903374
-0.0822601318359375;-0.13653564453125;-1.037506103515625;-0.07839600741863251;-0.04668388143181801;0.005919141694903374
-0.0822601318359375;-0.13653564453125;-1.037506103515625;-0.07839600741863251;-0.04668388143181801;0.005919141694903374
-0.0822601318359375;-0.13653564453125;-1.037506103515625;-0.07839600741863251;-0.04668388143181801;0.005919141694903374
-0.0822601318359375;-0.13653564453125;-1.037506103515625;-0.01558455266058445;-0.03056509979069233;0.008199873380362988
-0.083770751953125;-0.1382598876953125;-1.0457916259765625;-0.01558455266058445;-0.03056509979069233;0.008199873380362988
-0.083770751953125;-0.1382598876953125;-1.0457916259765625;-0.01558455266058445;-0.03056509979069233;0.008199873380362988
-0.083770751953125;-0.1382598876953125;-1.0457916259765625;-0.01558455266058445;-0.03056509979069233;0.008199873380362988
-0.083770751953125;-0.1382598876953125;-1.0457916259765625;-0.01558455266058445;-0.03056509979069233;0.008199873380362988
-0.083770751953125;-0.1382598876953125;-1.0457916259765625;0.026910176500678062;-0.007998271845281124;0.005372394807636738
-0.083953857421875;-0.1422882080078125;-1.040618896484375;0.026910176500678062;-0.007998271845281124;0.005372394807636738
-0.083953857421875;-0.1422882080078125;-1.040618896484375;0.026910176500678062;-0.007998271845281124;0.005372394807636738
-0.083953857421875;-0.1422882080078125;-1.040618896484375;0.026910176500678062;-0.007998271845281124;0.005372394807636738
-0.083953857421875;-0.1422882080078125;-1.040618896484375;0.026910176500678062;-0.007998271845281124;0.005372394807636738
-0.083953857421875;-0.1422882080078125;-1.040618896484375;0.04066593572497368;0.026730680838227272;0.004791026934981346
-0.0823974609375;-0.1490020751953125;-1.0251922607421875;0.04066593572497368;0.026730680838227272;0.004791026934981346
-0.0823974609375;-0.1490020751953125;-1.0251922607421875;0.04066593572497368;0.026730680838227272;0.004791026934981346
-0.0823974609375;-0.1490020751953125;-1.0251922607421875;0.04066593572497368;0.026730680838227272;0.004791026934981346
-0.0823974609375;-0.1490020751953125;-1.0251922607421875;0.04066593572497368;0.026730680838227272;0.004791026934981346
-0.0823974609375;-0.1490020751953125;-1.0251922607421875;0.026803119108080864;0.05732747167348862;0.005350290797650814
-0.0800628662109375;-0.1545257568359375;-1.003875732421875;0.026803119108080864;0.05732747167348862;0.005350290797650814
-0.0800628662109375;-0.1545257568359375;-1.003875732421875;0.026803119108080864;0.05732747167348862;0.005350290797650814
-0.0800628662109375;-0.1545257568359375;-1.003875732421875;0.026803119108080864;0.05732747167348862;0.005350290797650814
-0.0800628662109375;-0.1545257568359375;-1.003875732421875;-0.01170352753251791;0.07152105122804642;0.007977765053510666
-0.0800628662109375;-0.1545257568359375;-1.003875732421875;-0.01170352753251791;0.07152105122804642;0.007977765053510666
-0.0792694091796875;-0.157470703125;-0.98736572265625;-0.01170352753251791;0.07152105122804642;0.007977765053510666
-0.0792694091796875;-0.157470703125;-0.98736572265625;-0.01170352753251791;0.07152105122804642;0.007977765053510666
-0.0792694091796875;-0.157470703125;-0.98736572265625;-0.01170352753251791;0.07152105122804642;0.007977765053510666
-0.0792694091796875;-0.157470703125;-0.98736572265625;-0.06343649327754974;0.07001210749149323;0.00878230668604374
-0.0792694091796875;-0.157470703125;-0.98736572265625;-0.06343649327754974;0.07001210749149323;0.00878230668604374
-0.0776214599609375;-0.1602630615234375;-0.975128173828125;-0.06343649327754974;0.07001210749149323;0.00878230668604374
-0.0776214599609375;-0.1602630615234375;-0.975128173828125;-0.06343649327754974;0.07001210749149323;0.00878230668604374
-0.0776214599609375;-0.1602630615234375;-0.975128173828125;-0.06343649327754974;0.07001210749149323;0.00878230668604374
-0.0776214599609375;-0.1602630615234375;-0.975128173828125;-0.06343649327754974;0.07001210749149323;0.00878230668604374
-0.0776214599609375;-0.1602630615234375;-0.975128173828125;-0.11468157172203064;0.05092789605259895;0.009355951100587845
-0.0778656005859375;-0.1607208251953125;-0.96771240234375;-0.11468157172203064;0.05092789605259895;0.009355951100587845
-0.0778656005859375;-0.1607208251953125;-0.96771240234375;-0.11468157172203064;0.05092789605259895;0.009355951100587845
-0.0778656005859375;-0.1607208251953125;-0.96771240234375;-0.11468157172203064;0.05092789605259895;0.009355951100587845
-0.0778656005859375;-0.1607208251953125;-0.96771240234375;-0.11468157172203064;0.05092789605259895;0.009355951100587845
-0.0778656005859375;-0.1607208251953125;-0.96771240234375;-0.15472060441970825;0.03093767538666725;0.00962839275598526
-0.0785980224609375;-0.156982421875;-0.970794677734375;-0.15472060441970825;0.03093767538666725;0.00962839275598526
-0.0785980224609375;-0.156982421875;-0.970794677734375;-0.15472060441970825;0.03093767538666725;0.00962839275598526
-0.0785980224609375;-0.156982421875;-0.970794677734375;-0.15472060441970825;0.03093767538666725;0.00962839275598526
-0.0785980224609375;-0.156982421875;-0.970794677734375;-0.16920366883277893;0.001600559800863266;0.008472314104437828
-0.0787353515625;-0.1516571044921875;-0.981170654296875;-0.16920366883277893;0.001600559800863266;0.008472314104437828
-0.0787353515625;-0.1516571044921875;-0.981170654296875;-0.16920366883277893;0.001600559800863266;0.008472314104437828
-0.0787353515625;-0.1516571044921875;-0.981170654296875;-0.16920366883277893;0.001600559800863266;0.008472314104437828
-0.0787353515625;-0.1516571044921875;-0.981170654296875;-0.16920366883277893;0.001600559800863266;0.008472314104437828
-0.0787353515625;-0.1516571044921875;-0.981170654296875;-0.15551503002643585;-0.02352609857916832;0.010963968001306057
-0.078765869140625;-0.1472015380859375;-0.9954833984375;-0.15551503002643585;-0.02352609857916832;0.010963968001306057
-0.078765869140625;-0.1472015380859375;-0.9954833984375;-0.15551503002643585;-0.02352609857916832;0.010963968001306057
-0.078765869140625;-0.1472015380859375;-0.9954833984375;-0.15551503002643585;-0.02352609857916832;0.010963968001306057
-0.078765869140625;-0.1472015380859375;-0.9954833984375;-0.15551503002643585;-0.02352609857916832;0.010963968001306057
-0.078765869140625;-0.1472015380859375;-0.9954833984375;-0.1215280294418335;-0.04338795319199562;0.011569570749998093
-0.0782012939453125;-0.142425537109375;-1.00970458984375;-0.1215280294418335;-0.04338795319199562;0.011569570749998093
-0.0782012939453125;-0.142425537109375;-1.00970458984375;-0.1215280294418335;-0.04338795319199562;0.011569570749998093
-0.0782012939453125;-0.142425537109375;-1.00970458984375;-0.1215280294418335;-0.04338795319199562;0.011569570749998093
-0.0782012939453125;-0.142425537109375;-1.00970458984375;-0.1215280294418335;-0.04338795319199562;0.011569570749998093
-0.0782012939453125;-0.142425537109375;-1.00970458984375;-0.06908079981803894;-0.050992611795663834;0.0070485882461071014
-0.078399658203125;-0.138885498046875;-1.0222930908203125;-0.06908079981803894;-0.050992611795663834;0.0070485882461071014
-0.078399658203125;-0.138885498046875;-1.0222930908203125;-0.06908079981803894;-0.050992611795663834;0.0070485882461071014
-0.078399658203125;-0.138885498046875;-1.0222930908203125;-0.06908079981803894;-0.050992611795663834;0.0070485882461071014
-0.078399658203125;-0.138885498046875;-1.0222930908203125;-0.06908079981803894;-0.050992611795663834;0.0070485882461071014
-0.078399658203125;-0.138885498046875;-1.0222930908203125;-0.06908079981803894;-0.050992611795663834;0.0070485882461071014
-0.0792999267578125;-0.1370697021484375;-1.0258636474609375;-0.01865384541451931;-0.04223906621336937;0.004898352082818747
-0.0792999267578125;-0.1370697021484375;-1.0258636474609375;-0.01865384541451931;-0.04223906621336937;0.004898352082818747
-0.0792999267578125;-0.1370697021484375;-1.0258636474609375;-0.01865384541451931;-0.04223906621336937;0.004898352082818747
-0.0792999267578125;-0.1370697021484375;-1.0258636474609375;-0.01865384541451931;-0.04223906621336937;0.004898352082818747
-0.0792999267578125;-0.1370697021484375;-1.0258636474609375;0.0262430552393198;-0.031097466126084328;0.0017984326696023345
-0.0814666748046875;-0.1385955810546875;-1.022674560546875;0.0262430552393198;-0.031097466126084328;0.0017984326696023345
-0.0814666748046875;-0.1385955810546875;-1.022674560546875;0.0262430552393198;-0.031097466126084328;0.0017984326696023345
-0.0814666748046875;-0.1385955810546875;-1.022674560546875;0.0262430552393198;-0.031097466126084328;0.0017984326696023345
-0.0814666748046875;-0.1385955810546875;-1.022674560546875;0.0262430552393198;-0.031097466126084328;0.0017984326696023345
-0.0814666748046875;-0.1385955810546875;-1.022674560546875;0.05265868455171585;-0.01913907378911972;0.0023646207991987467
-0.081939697265625;-0.141387939453125;-1.0157623291015625;0.05265868455171585;-0.01913907378911972;0.0023646207991987467
-0.081939697265625;-0.141387939453125;-1.0157623291015625;0.05265868455171585;-0.01913907378911972;0.0023646207991987467
-0.081939697265625;-0.141387939453125;-1.0157623291015625;0.05265868455171585;-0.01913907378911972;0.0023646207991987467
-0.081939697265625;-0.141387939453125;-1.0157623291015625;0.05265868455171585;-0.01913907378911972;0.0023646207991987467
-0.081939697265625;-0.141387939453125;-1.0157623291015625;0.06794576346874237;-0.012790895998477936;0.0029614351224154234
-0.081329345703125;-0.1433868408203125;-1.009185791015625;0.06794576346874237;-0.012790895998477936;0.0029614351224154234
-0.081329345703125;-0.1433868408203125;-1.009185791015625;0.06794576346874237;-0.012790895998477936;0.0029614351224154234
-0.081329345703125;-0.1433868408203125;-1.009185791015625;0.06794576346874237;-0.012790895998477936;0.0029614351224154234
-0.081329345703125;-0.1433868408203125;-1.009185791015625;0.06794576346874237;-0.012790895998477936;0.0029614351224154234
-0.081329345703125;-0.1433868408203125;-1.009185791015625;0.0655214861035347;-0.017774203792214394;0.0
-0.07928466796875;-0.14666748046875;-1.005096435546875;0.0655214861035347;-0.017774203792214394;0.0
-0.07928466796875;-0.14666748046875;-1.005096435546875;0.0655214861035347;-0.017774203792214394;0.0
-0.07928466796875;-0.14666748046875;-1.005096435546875;0.0655214861035347;-0.017774203792214394;0.0
-0.07928466796875;-0.14666748046875;-1.005096435546875;0.0655214861035347;-0.017774203792214394;0.0
-0.07928466796875;-0.14666748046875;-1.005096435546875;0.06539365649223328;-0.0313483364880085;0.0013353090034797788
-0.0767822265625;-0.1479339599609375;-1.004547119140625;0.06539365649223328;-0.0313483364880085;0.0013353090034797788
-0.0767822265625;-0.1479339599609375;-1.004547119140625;0.06539365649223328;-0.0313483364880085;0.0013353090034797788
-0.0767822265625;-0.1479339599609375;-1.004547119140625;0.06539365649223328;-0.0313483364880085;0.0013353090034797788
-0.0767822265625;-0.1479339599609375;-1.004547119140625;0.06539365649223328;-0.0313483364880085;0.0013353090034797788
-0.0767822265625;-0.1479339599609375;-1.004547119140625;0.05734771117568016;-0.04843863844871521;0.003626692807301879
-0.075408935546875;-0.149444580078125;-1.0063629150390625;0.05734771117568016;-0.04843863844871521;0.003626692807301879
-0.075408935546875;-0.149444580078125;-1.0063629150390625;0.05734771117568016;-0.04843863844871521;0.003626692807301879
-0.075408935546875;-0.149444580078125;-1.0063629150390625;0.05734771117568016;-0.04843863844871521;0.003626692807301879
-0.075408935546875;-0.149444580078125;-1.0063629150390625;0.05734771117568016;-0.04843863844871521;0.003626692807301879
-0.075408935546875;-0.149444580078125;-1.0063629150390625;0.053652308881282806;-0.055143680423498154;0.0033816818613559008
-0.0743865966796875;-0.1502838134765625;-1.00616455078125;0.053652308881282806;-0.055143680423498154;0.0033816818613559008
-0.0743865966796875;-0.1502838134765625;-1.00616455078125;0.053652308881282806;-0.055143680423498154;0.0033816818613559008
-0.0743865966796875;-0.1502838134765625;-1.00616455078125;0.053652308881282806;-0.055143680423498154;0.0033816818613559008
-0.0743865966796875;-0.1502838134765625;-1.00616455078125;0.053652308881282806;-0.055143680423498154;0.0033816818613559008
-0.0743865966796875;-0.1502838134765625;-1.00616455078125;0.0518576055765152;-0.05563769489526749;0.003973170183598995
-0.0758056640625;-0.1495513916015625;-1.00616455078125;0.0518576055765152;-0.05563769489526749;0.003973170183598995
-0.0758056640625;-0.1495513916015625;-1.00616455078125;0.0518576055765152;-0.05563769489526749;0.003973170183598995
-0.0758056640625;-0.1495513916015625;-1.00616455078125;0.0518576055765152;-0.05563769489526749;0.003973170183598995
-0.0758056640625;-0.1495513916015625;-1.00616455078125;0.0518576055765152;-0.05563769489526749;0.003973170183598995
-0.0758056640625;-0.1495513916015625;-1.00616455078125;0.048218660056591034;-0.05106904357671738;0.004196609370410442
-0.0775604248046875;-0.1493377685546875;-1.00640869140625;0.048218660056591034;-0.05106904357671738;0.004196609370410442
-0.0775604248046875;-0.1493377685546875;-1.00640869140625;0.048218660056591034;-0.05106904357671738;0.004196609370410442
-0.0775604248046875;-0.1493377685546875;-1.00640869140625;0.048218660056591034;-0.05106904357671738;0.004196609370410442
-0.0775604248046875;-0.1493377685546875;-1.00640869140625;0.048218660056591034;-0.05106904357671738;0.004196609370410442
-0.0775604248046875;-0.1493377685546875;-1.00640869140625;0.052866674959659576;-0.04278900846838951;0.0016074840677902102
-0.0790252685546875;-0.1485595703125;-1.0058746337890625;0.052866674959659576;-0.04278900846838951;0.0016074840677902102
-0.0790252685546875;-0.1485595703125;-1.0058746337890625;0.052866674959659576;-0.04278900846838951;0.0016074840677902102
-0.0790252685546875;-0.1485595703125;-1.0058746337890625;0.052866674959659576;-0.04278900846838951;0.0016074840677902102
-0.0790252685546875;-0.1485595703125;-1.0058746337890625;0.052866674959659576;-0.04278900846838951;0.0016074840677902102
-0.0790252685546875;-0.1485595703125;-1.0058746337890625;0.054669104516506195;-0.039745014160871506;-0.0008410262526012957
-0.081207275390625;-0.1468048095703125;-1.004302978515625;0.054669104516506195;-0.039745014160871506;-0.0008410262526012957
-0.081207275390625;-0.1468048095703125;-1.004302978515625;0.054669104516506195;-0.039745014160871506;-0.0008410262526012957
-0.081207275390625;-0.1468048095703125;-1.004302978515625;0.054669104516506195;-0.039745014160871506;-0.0008410262526012957
-0.081207275390625;-0.1468048095703125;-1.004302978515625;0.054669104516506195;-0.039745014160871506;-0.0008410262526012957
-0.081207275390625;-0.1468048095703125;-1.004302978515625;0.05627552419900894;-0.038011033087968826;-0.002523078816011548
-0.0821075439453125;-0.1456756591796875;-1.0037384033203125;0.05627552419900894;-0.038011033087968826;-0.002523078816011548
-0.0821075439453125;-0.1456756591796875;-1.0037384033203125;0.05627552419900894;-0.038011033087968826;-0.002523078816011548
-0.0821075439453125;-0.1456756591796875;-1.0037384033203125;0.05627552419900894;-0.038011033087968826;-0.002523078816011548
-0.0821075439453125;-0.1456756591796875;-1.0037384033203125;0.05627552419900894;-0.038011033087968826;-0.002523078816011548
-0.0821075439453125;-0.1456756591796875;-1.0037384033203125;0.05994003266096115;-0.04614512622356415;-7.110639853635803e-05
-0.0824127197265625;-0.1441802978515625;-1.005706787109375;0.05994003266096115;-0.04614512622356415;-7.110639853635803e-05
-0.0824127197265625;-0.1441802978515625;-1.005706787109375;0.05994003266096115;-0.04614512622356415;-7.110639853635803e-05
-0.0824127197265625;-0.1441802978515625;-1.005706787109375;0.05994003266096115;-0.04614512622356415;-7.110639853635803e-05
-0.0824127197265625;-0.1441802978515625;-1.005706787109375;0.05994003266096115;-0.04614512622356415;-7.110639853635803e-05
-0.0824127197265625;-0.1441802978515625;-1.005706787109375;0.056533582508563995;-0.05776263028383255;-0.002984072081744671
-0.0819854736328125;-0.142669677734375;-1.0040435791015625;0.056533582508563995;-0.05776263028383255;-0.002984072081744671
-0.0819854736328125;-0.142669677734375;-1.0040435791015625;0.056533582508563995;-0.05776263028383255;-0.002984072081744671
-0.0819854736328125;-0.142669677734375;-1.0040435791015625;0.056533582508563995;-0.05776263028383255;-0.002984072081744671
-0.0819854736328125;-0.142669677734375;-1.0040435791015625;0.056533582508563995;-0.05776263028383255;-0.002984072081744671
-0.0819854736328125;-0.142669677734375;-1.0040435791015625;0.053315419703722;-0.06349269300699234;0.0008559399866499007
-0.0811920166015625;-0.1446380615234375;-1.0010528564453125;0.053315419703722;-0.06349269300699234;0.0008559399866499007
-0.0811920166015625;-0.1446380615234375;-1.0010528564453125;0.053315419703722;-0.06349269300699234;0.0008559399866499007
-0.0811920166015625;-0.1446380615234375;-1.0010528564453125;0.053315419703722;-0.06349269300699234;0.0008559399866499007
-0.0811920166015625;-0.1446380615234375;-1.0010528564453125;0.053315419703722;-0.06349269300699234;0.0008559399866499007
-0.0811920166015625;-0.1446380615234375;-1.0010528564453125;0.05642599239945412;-0.06722750514745712;0.0017867147689685225
-0.0807647705078125;-0.1451263427734375;-0.999908447265625;0.05642599239945412;-0.06722750514745712;0.0017867147689685225
-0.0807647705078125;-0.1451263427734375;-0.999908447265625;0.05642599239945412;-0.06722750514745712;0.0017867147689685225
-0.0807647705078125;-0.1451263427734375;-0.999908447265625;0.05642599239945412;-0.06722750514745712;0.0017867147689685225
-0.0807647705078125;-0.1451263427734375;-0.999908447265625;0.05642599239945412;-0.06722750514745712;0.0017867147689685225
-0.0807647705078125;-0.1451263427734375;-0.999908447265625;0.04843064770102501;-0.06052779033780098;0.0046695866622030735
-0.0797882080078125;-0.147125244140625;-0.99591064453125;0.04843064770102501;-0.06052779033780098;0.0046695866622030735
-0.0797882080078125;-0.147125244140625;-0.99591064453125;0.04843064770102501;-0.06052779033780098;0.0046695866622030735
-0.0797882080078125;-0.147125244140625;-0.99591064453125;0.04843064770102501;-0.06052779033780098;0.0046695866622030735
-0.0797882080078125;-0.147125244140625;-0.99591064453125;0.04843064770102501;-0.06052779033780098;0.0046695866622030735
-0.0797882080078125;-0.147125244140625;-0.99591064453125;0.04839310050010681;-0.052872270345687866;0.006479204632341862
-0.0791015625;-0.14703369140625;-0.9940032958984375;0.04839310050010681;-0.052872270345687866;0.006479204632341862
-0.0791015625;-0.14703369140625;-0.9940032958984375;0.04839310050010681;-0.052872270345687866;0.006479204632341862
-0.0791015625;-0.14703369140625;-0.9940032958984375;0.04839310050010681;-0.052872270345687866;0.006479204632341862
-0.0791015625;-0.14703369140625;-0.9940032958984375;0.04839310050010681;-0.052872270345687866;0.006479204632341862
-0.0791015625;-0.14703369140625;-0.9940032958984375;0.04626762866973877;-0.03936338424682617;0.008771653287112713
-0.079132080078125;-0.148345947265625;-0.9920806884765625;0.04626762866973877;-0.03936338424682617;0.008771653287112713
-0.079132080078125;-0.148345947265625;-0.9920806884765625;0.04626762866973877;-0.03936338424682617;0.008771653287112713
-0.079132080078125;-0.148345947265625;-0.9920806884765625;0.04626762866973877;-0.03936338424682617;0.008771653287112713
-0.079132080078125;-0.148345947265625;-0.9920806884765625;0.04626762866973877;-0.03936338424682617;0.008771653287112713
-0.079132080078125;-0.148345947265625;-0.9920806884765625;0.045526739209890366;-0.02780153788626194;0.007112504448741674
-0.081207275390625;-0.150604248046875;-0.993438720703125;0.045526739209890366;-0.02780153788626194;0.007112504448741674
-0.081207275390625;-0.150604248046875;-0.993438720703125;0.045526739209890366;-0.02780153788626194;0.007112504448741674
-0.081207275390625;-0.150604248046875;-0.993438720703125;0.045526739209890366;-0.02780153788626194;0.007112504448741674
-0.081207275390625;-0.150604248046875;-0.993438720703125;0.045526739209890366;-0.02780153788626194;0.007112504448741674
-0.081207275390625;-0.150604248046875;-0.993438720703125;0.04785753786563873;-0.027051057666540146;0.004983040504157543
-0.084075927734375;-0.15118408203125;-0.9941253662109375;0.04785753786563873;-0.027051057666540146;0.004983040504157543
-0.084075927734375;-0.15118408203125;-0.9941253662109375;0.04785753786563873;-0.027051057666540146;0.004983040504157543
-0.084075927734375;-0.15118408203125;-0.9941253662109375;0.04785753786563873;-0.027051057666540146;0.004983040504157543
-0.084075927734375;-0.15118408203125;-0.9941253662109375;0.04785753786563873;-0.027051057666540146;0.004983040504157543
-0.084075927734375;-0.15118408203125;-0.9941253662109375;0.06089397519826889;-0.043834034353494644;0.0001882854849100113
-0.08758544921875;-0.1531219482421875;-1.0013427734375;0.06089397519826889;-0.043834034353494644;0.0001882854849100113
-0.08758544921875;-0.1531219482421875;-1.0013427734375;0.06089397519826889;-0.043834034353494644;0.0001882854849100113
-0.08758544921875;-0.1531219482421875;-1.0013427734375;0.06089397519826889;-0.043834034353494644;0.0001882854849100113
-0.08758544921875;-0.1531219482421875;-1.0013427734375;0.06089397519826889;-0.043834034353494644;0.0001882854849100113
-0.08758544921875;-0.1531219482421875;-1.0013427734375;0.07392695546150208;-0.07277380675077438;0.0010042780777439475
-0.0875396728515625;-0.1548919677734375;-1.0122833251953125;0.07392695546150208;-0.07277380675077438;0.0010042780777439475
-0.0875396728515625;-0.1548919677734375;-1.0122833251953125;0.07392695546150208;-0.07277380675077438;0.0010042780777439475
-0.0875396728515625;-0.1548919677734375;-1.0122833251953125;0.07392695546150208;-0.07277380675077438;0.0010042780777439475
-0.0875396728515625;-0.1548919677734375;-1.0122833251953125;0.07392695546150208;-0.07277380675077438;0.0010042780777439475
-0.0875396728515625;-0.1548919677734375;-1.0122833251953125;0.08610958606004715;-0.09509509056806564;0.0004796353168785572
-0.0859527587890625;-0.157073974609375;-1.01812744140625;0.08610958606004715;-0.09509509056806564;0.0004796353168785572
-0.0859527587890625;-0.157073974609375;-1.01812744140625;0.08610958606004715;-0.09509509056806564;0.0004796353168785572
-0.0859527587890625;-0.157073974609375;-1.01812744140625;0.08610958606004715;-0.09509509056806564;0.0004796353168785572
-0.0859527587890625;-0.157073974609375;-1.01812744140625;0.08610958606004715;-0.09509509056806564;0.0004796353168785572
-0.0859527587890625;-0.157073974609375;-1.01812744140625;0.07779919356107712;-0.08194040507078171;0.0024282701779156923
-0.0859527587890625;-0.15802001953125;-1.008819580078125;0.07779919356107712;-0.08194040507078171;0.0024282701779156923
-0.0859527587890625;-0.15802001953125;-1.008819580078125;0.07779919356107712;-0.08194040507078171;0.0024282701779156923
-0.0859527587890625;-0.15802001953125;-1.008819580078125;0.07779919356107712;-0.08194040507078171;0.0024282701779156923
-0.0859527587890625;-0.15802001953125;-1.008819580078125;0.07779919356107712;-0.08194040507078171;0.0024282701779156923
-0.0859527587890625;-0.15802001953125;-1.008819580078125;0.06120476871728897;-0.03891117870807648;0.003434146288782358
-0.0879364013671875;-0.1583404541015625;-0.990325927734375;0.06120476871728897;-0.03891117870807648;0.003434146288782358
-0.0879364013671875;-0.1583404541015625;-0.990325927734375;0.06120476871728897;-0.03891117870807648;0.003434146288782358
-0.0879364013671875;-0.1583404541015625;-0.990325927734375;0.06120476871728897;-0.03891117870807648;0.003434146288782358
-0.0879364013671875;-0.1583404541015625;-0.990325927734375;0.06120476871728897;-0.03891117870807648;0.003434146288782358
-0.0879364013671875;-0.1583404541015625;-0.990325927734375;0.034634675830602646;-0.008615592494606972;0.00509995361790061
-0.0882415771484375;-0.1600799560546875;-0.9814300537109375;0.034634675830602646;-0.008615592494606972;0.00509995361790061
-0.0882415771484375;-0.1600799560546875;-0.9814300537109375;0.034634675830602646;-0.008615592494606972;0.00509995361790061
-0.0882415771484375;-0.1600799560546875;-0.9814300537109375;0.034634675830602646;-0.008615592494606972;0.00509995361790061
-0.0882415771484375;-0.1600799560546875;-0.9814300537109375;0.034634675830602646;-0.008615592494606972;0.00509995361790061
-0.0882415771484375;-0.1600799560546875;-0.9814300537109375;0.008991098031401634;-0.006047239992767572;0.00999084860086441
-0.0868377685546875;-0.159576416015625;-0.9851226806640625;0.008991098031401634;-0.006047239992767572;0.00999084860086441
-0.0868377685546875;-0.159576416015625;-0.9851226806640625;0.008991098031401634;-0.006047239992767572;0.00999084860086441
-0.0868377685546875;-0.159576416015625;-0.9851226806640625;0.008991098031401634;-0.006047239992767572;0.00999084860086441
-0.0868377685546875;-0.159576416015625;-0.9851226806640625;0.008991098031401634;-0.006047239992767572;0.00999084860086441
-0.0868377685546875;-0.159576416015625;-0.9851226806640625;-0.005005144979804754;-0.02208026871085167;0.01398852001875639
-0.083984375;-0.157928466796875;-0.9942169189453125;-0.005005144979804754;-0.02208026871085167;0.01398852001875639
-0.083984375;-0.157928466796875;-0.9942169189453125;-0.005005144979804754;-0.02208026871085167;0.01398852001875639
-0.083984375;-0.157928466796875;-0.9942169189453125;-0.005005144979804754;-0.02208026871085167;0.01398852001875639
-0.083984375;-0.157928466796875;-0.9942169189453125;-0.005005144979804754;-0.02208026871085167;0.01398852001875639
-0.083984375;-0.157928466796875;-0.9942169189453125;-0.014138721860945225;-0.0252760611474514;0.010524545796215534
-0.08428955078125;-0.155364990234375;-0.9996185302734375;-0.014138721860945225;-0.0252760611474514;0.010524545796215534
-0.08428955078125;-0.155364990234375;-0.9996185302734375;-0.014138721860945225;-0.0252760611474514;0.010524545796215534
-0.08428955078125;-0.155364990234375;-0.9996185302734375;-0.014138721860945225;-0.0252760611474514;0.010524545796215534
-0.08428955078125;-0.155364990234375;-0.9996185302734375;-0.014138721860945225;-0.0252760611474514;0.010524545796215534
-0.08428955078125;-0.155364990234375;-0.9996185302734375;-0.011004980653524399;-0.00953598041087389;0.007561246864497662
-0.08941650390625;-0.153289794921875;-1.005096435546875;-0.011004980653524399;-0.00953598041087389;0.007561246864497662
-0.08941650390625;-0.153289794921875;-1.005096435546875;-0.011004980653524399;-0.00953598041087389;0.007561246864497662
-0.08941650390625;-0.153289794921875;-1.005096435546875;-0.011004980653524399;-0.00953598041087389;0.007561246864497662
-0.08941650390625;-0.153289794921875;-1.005096435546875;-0.011004980653524399;-0.00953598041087389;0.007561246864497662
-0.08941650390625;-0.153289794921875;-1.005096435546875;-0.000523843802511692;0.011965849436819553;0.002094309777021408
-0.0960693359375;-0.152862548828125;-1.0113525390625;-0.000523843802511692;0.011965849436819553;0.002094309777021408
-0.0960693359375;-0.152862548828125;-1.0113525390625;-0.000523843802511692;0.011965849436819553;0.002094309777021408
-0.0960693359375;-0.152862548828125;-1.0113525390625;-0.000523843802511692;0.011965849436819553;0.002094309777021408
-0.0960693359375;-0.152862548828125;-1.0113525390625;0.012396748177707195;0.030236732214689255;0.0005020058597438037
-0.0960693359375;-0.152862548828125;-1.0113525390625;0.012396748177707195;0.030236732214689255;0.0005020058597438037
-0.0994110107421875;-0.15484619140625;-1.0138702392578125;0.012396748177707195;0.030236732214689255;0.0005020058597438037
-0.0994110107421875;-0.15484619140625;-1.0138702392578125;0.012396748177707195;0.030236732214689255;0.0005020058597438037
-0.0994110107421875;-0.15484619140625;-1.0138702392578125;0.012396748177707195;0.030236732214689255;0.0005020058597438037
-0.0994110107421875;-0.15484619140625;-1.0138702392578125;0.034332405775785446;0.03452708572149277;-0.005685849115252495
-0.0994110107421875;-0.15484619140625;-1.0138702392578125;0.034332405775785446;0.03452708572149277;-0.005685849115252495
-0.096405029296875;-0.1566314697265625;-1.015106201171875;0.034332405775785446;0.03452708572149277;-0.005685849115252495
-0.096405029296875;-0.1566314697265625;-1.015106201171875;0.034332405775785446;0.03452708572149277;-0.005685849115252495
-0.096405029296875;-0.1566314697265625;-1.015106201171875;0.034332405775785446;0.03452708572149277;-0.005685849115252495
-0.096405029296875;-0.1566314697265625;-1.015106201171875;0.034332405775785446;0.03452708572149277;-0.005685849115252495
-0.096405029296875;-0.1566314697265625;-1.015106201171875;0.05193563550710678;0.025802303105592728;-0.007139934692531824
-0.090545654296875;-0.1599884033203125;-1.0180816650390625;0.05193563550710678;0.025802303105592728;-0.007139934692531824
-0.090545654296875;-0.1599884033203125;-1.0180816650390625;0.05193563550710678;0.025802303105592728;-0.007139934692531824
-0.090545654296875;-0.1599884033203125;-1.0180816650390625;0.05193563550710678;0.025802303105592728;-0.007139934692531824
-0.090545654296875;-0.1599884033203125;-1.0180816650390625;0.0668589249253273;0.008888300508260727;-0.004670385736972094
-0.0844573974609375;-0.1625518798828125;-1.017791748046875;0.0668589249253273;0.008888300508260727;-0.004670385736972094
-0.0844573974609375;-0.1625518798828125;-1.017791748046875;0.0668589249253273;0.008888300508260727;-0.004670385736972094
-0.0844573974609375;-0.1625518798828125;-1.017791748046875;0.0668589249253273;0.008888300508260727;-0.004670385736972094
-0.0844573974609375;-0.1625518798828125;-1.017791748046875;0.0668589249253273;0.008888300508260727;-0.004670385736972094
-0.0844573974609375;-0.1625518798828125;-1.017791748046875;0.06936363130807877;-0.004829376470297575;-4.6871635277057067e-05
-0.0844573974609375;-0.1625518798828125;-1.017791748046875;0.06936363130807877;-0.004829376470297575;-4.6871635277057067e-05
-0.081512451171875;-0.1645965576171875;-1.0106658935546875;0.06936363130807877;-0.004829376470297575;-4.6871635277057067e-05
-0.081512451171875;-0.1645965576171875;-1.0106658935546875;0.06936363130807877;-0.004829376470297575;-4.6871635277057067e-05
-0.081512451171875;-0.1645965576171875;-1.0106658935546875;0.06936363130807877;-0.004829376470297575;-4.6871635277057067e-05
-0.081512451171875;-0.1645965576171875;-1.0106658935546875;0.05348080024123192;-0.0006444850005209446;0.0014178669080138206
-0.082427978515625;-0.1656341552734375;-0.998565673828125;0.05348080024123192;-0.0006444850005209446;0.0014178669080138206
-0.082427978515625;-0.1656341552734375;-0.998565673828125;0.05348080024123192;-0.0006444850005209446;0.0014178669080138206
-0.082427978515625;-0.1656341552734375;-0.998565673828125;0.05348080024123192;-0.0006444850005209446;0.0014178669080138206
-0.082427978515625;-0.1656341552734375;-0.998565673828125;0.05348080024123192;-0.0006444850005209446;0.0014178669080138206
-0.082427978515625;-0.1656341552734375;-0.998565673828125;0.038788408041000366;-0.0003350256592966616;0.00264824740588665
-0.0843505859375;-0.1674957275390625;-0.988555908203125;0.038788408041000366;-0.0003350256592966616;0.00264824740588665
-0.0843505859375;-0.1674957275390625;-0.988555908203125;0.038788408041000366;-0.0003350256592966616;0.00264824740588665
-0.0843505859375;-0.1674957275390625;-0.988555908203125;0.038788408041000366;-0.0003350256592966616;0.00264824740588665
-0.0843505859375;-0.1674957275390625;-0.988555908203125;0.038788408041000366;-0.0003350256592966616;0.00264824740588665
-0.0843505859375;-0.1674957275390625;-0.988555908203125;0.018604043871164322;-0.0014884406700730324;0.0038067223504185677
-0.0854034423828125;-0.1662750244140625;-0.9853363037109375;0.018604043871164322;-0.0014884406700730324;0.0038067223504185677
-0.0854034423828125;-0.1662750244140625;-0.9853363037109375;0.018604043871164322;-0.0014884406700730324;0.0038067223504185677
-0.0854034423828125;-0.1662750244140625;-0.9853363037109375;0.018604043871164322;-0.0014884406700730324;0.0038067223504185677
-0.0854034423828125;-0.1662750244140625;-0.9853363037109375;0.018604043871164322;-0.0014884406700730324;0.0038067223504185677
-0.0854034423828125;-0.1662750244140625;-0.9853363037109375;0.005372661165893078;-0.012040683999657631;0.003610979998484254
-0.08660888671875;-0.163909912109375;-0.98809814453125;0.005372661165893078;-0.012040683999657631;0.003610979998484254
-0.08660888671875;-0.163909912109375;-0.98809814453125;0.005372661165893078;-0.012040683999657631;0.003610979998484254
-0.08660888671875;-0.163909912109375;-0.98809814453125;0.005372661165893078;-0.012040683999657631;0.003610979998484254
-0.08660888671875;-0.163909912109375;-0.98809814453125;0.005372661165893078;-0.012040683999657631;0.003610979998484254
-0.08660888671875;-0.163909912109375;-0.98809814453125;-0.004127100575715303;-0.025543443858623505;0.003951864782720804
-0.087005615234375;-0.16168212890625;-0.994171142578125;-0.004127100575715303;-0.025543443858623505;0.003951864782720804
-0.087005615234375;-0.16168212890625;-0.994171142578125;-0.004127100575715303;-0.025543443858623505;0.003951864782720804
-0.087005615234375;-0.16168212890625;-0.994171142578125;-0.004127100575715303;-0.025543443858623505;0.003951864782720804
-0.087005615234375;-0.16168212890625;-0.994171142578125;-0.004127100575715303;-0.025543443858623505;0.003951864782720804
-0.087005615234375;-0.16168212890625;-0.994171142578125;-0.0014516890514642;-0.03705256059765816;0.0046421559527516365
-0.087921142578125;-0.1586761474609375;-1.00030517578125;-0.0014516890514642;-0.03705256059765816;0.0046421559527516365
-0.087921142578125;-0.1586761474609375;-1.00030517578125;-0.0014516890514642;-0.03705256059765816;0.0046421559527516365
-0.087921142578125;-0.1586761474609375;-1.00030517578125;-0.0014516890514642;-0.03705256059765816;0.0046421559527516365
-0.087921142578125;-0.1586761474609375;-1.00030517578125;-0.0014516890514642;-0.03705256059765816;0.0046421559527516365
-0.087921142578125;-0.1586761474609375;-1.00030517578125;0.007835818454623222;-0.038952991366386414;0.0033771544694900513
-0.089630126953125;-0.1549835205078125;-1.0032196044921875;0.007835818454623222;-0.038952991366386414;0.0033771544694900513
-0.089630126953125;-0.1549835205078125;-1.0032196044921875;0.007835818454623222;-0.038952991366386414;0.0033771544694900513
-0.089630126953125;-0.1549835205078125;-1.0032196044921875;0.007835818454623222;-0.038952991366386414;0.0033771544694900513
-0.089630126953125;-0.1549835205078125;-1.0032196044921875;0.007835818454623222;-0.038952991366386414;0.0033771544694900513
-0.089630126953125;-0.1549835205078125;-1.0032196044921875;0.021509818732738495;-0.030309703201055527;0.003126284806057811
-0.090667724609375;-0.1522979736328125;-1.003509521484375;0.021509818732738495;-0.030309703201055527;0.003126284806057811
-0.090667724609375;-0.1522979736328125;-1.003509521484375;0.021509818732738495;-0.030309703201055527;0.003126284806057811
-0.090667724609375;-0.1522979736328125;-1.003509521484375;0.021509818732738495;-0.030309703201055527;0.003126284806057811
-0.090667724609375;-0.1522979736328125;-1.003509521484375;0.021509818732738495;-0.030309703201055527;0.003126284806057811
-0.090667724609375;-0.1522979736328125;-1.003509521484375;0.028176510706543922;-0.017249027267098427;0.000604004948399961
-0.091888427734375;-0.15093994140625;-1.0034332275390625;0.028176510706543922;-0.017249027267098427;0.000604004948399961
-0.091888427734375;-0.15093994140625;-1.0034332275390625;0.028176510706543922;-0.017249027267098427;0.000604004948399961
-0.091888427734375;-0.15093994140625;-1.0034332275390625;0.03202904015779495;-0.00643659383058548;0.002382996492087841
-0.092132568359375;-0.150115966796875;-1.0030975341796875;0.03202904015779495;-0.00643659383058548;0.002382996492087841
-0.092132568359375;-0.150115966796875;-1.0030975341796875;0.03202904015779495;-0.00643659383058548;0.002382996492087841
-0.092132568359375;-0.150115966796875;-1.0030975341796875;0.03202904015779495;-0.00643659383058548;0.002382996492087841
-0.092132568359375;-0.150115966796875;-1.0030975341796875;0.03202904015779495;-0.00643659383058548;0.002382996492087841
-0.092132568359375;-0.150115966796875;-1.0030975341796875;0.030765369534492493;-0.002538258908316493;0.0017457021167501807
-0.0919952392578125;-0.15191650390625;-1.0014801025390625;0.030765369534492493;-0.002538258908316493;0.0017457021167501807
-0.0919952392578125;-0.15191650390625;-1.0014801025390625;0.030765369534492493;-0.002538258908316493;0.0017457021167501807
-0.0919952392578125;-0.15191650390625;-1.0014801025390625;0.030765369534492493;-0.002538258908316493;0.0017457021167501807
-0.0919952392578125;-0.15191650390625;-1.0014801025390625;0.030765369534492493;-0.002538258908316493;0.0017457021167501807
-0.0919952392578125;-0.15191650390625;-1.0014801025390625;0.02430294267833233;-0.003936418332159519;-0.00045540055725723505
-0.0909881591796875;-0.153717041015625;-1.00238037109375;0.02430294267833233;-0.003936418332159519;-0.00045540055725723505
-0.0909881591796875;-0.153717041015625;-1.00238037109375;0.02430294267833233;-0.003936418332159519;-0.00045540055725723505
-0.0909881591796875;-0.153717041015625;-1.00238037109375;0.02430294267833233;-0.003936418332159519;-0.00045540055725723505
-0.0909881591796875;-0.153717041015625;-1.00238037109375;0.02430294267833233;-0.003936418332159519;-0.00045540055725723505
-0.0909881591796875;-0.153717041015625;-1.00238037109375;0.01914386637508869;-0.011057977564632893;-0.002659166231751442
-0.09228515625;-0.15545654296875;-1.00262451171875;0.01914386637508869;-0.011057977564632893;-0.002659166231751442
-0.09228515625;-0.15545654296875;-1.00262451171875;0.01914386637508869;-0.011057977564632893;-0.002659166231751442
-0.09228515625;-0.15545654296875;-1.00262451171875;0.01914386637508869;-0.011057977564632893;-0.002659166231751442
-0.09228515625;-0.15545654296875;-1.00262451171875;0.01914386637508869;-0.011057977564632893;-0.002659166231751442
-0.09228515625;-0.15545654296875;-1.00262451171875;0.01372033916413784;-0.01525565143674612;-0.0017923073610290885
-0.09100341796875;-0.1573486328125;-1.00299072265625;0.01372033916413784;-0.01525565143674612;-0.0017923073610290885
-0.09100341796875;-0.1573486328125;-1.00299072265625;0.01372033916413784;-0.01525565143674612;-0.0017923073610290885
-0.09100341796875;-0.1573486328125;-1.00299072265625;0.01372033916413784;-0.01525565143674612;-0.0017923073610290885
-0.09100341796875;-0.1573486328125;-1.00299072265625;0.01372033916413784;-0.01525565143674612;-0.0017923073610290885
-0.09100341796875;-0.1573486328125;-1.00299072265625;0.009549296461045742;-0.016102803871035576;-0.0024490428622812033
-0.0909271240234375;-0.16009521484375;-1.0014801025390625;0.009549296461045742;-0.016102803871035576;-0.0024490428622812033
-0.0909271240234375;-0.16009521484375;-1.0014801025390625;0.009549296461045742;-0.016102803871035576;-0.0024490428622812033
-0.0909271240234375;-0.16009521484375;-1.0014801025390625;0.009549296461045742;-0.016102803871035576;-0.0024490428622812033
-0.0909271240234375;-0.16009521484375;-1.0014801025390625;0.009549296461045742;-0.016102803871035576;-0.0024490428622812033
-0.0909271240234375;-0.16009521484375;-1.0014801025390625;0.0023672839161008596;-0.01040656864643097;-0.0005283711361698806
-0.09002685546875;-0.1618499755859375;-0.997650146484375;0.0023672839161008596;-0.01040656864643097;-0.0005283711361698806
-0.09002685546875;-0.1618499755859375;-0.997650146484375;0.0023672839161008596;-0.01040656864643097;-0.0005283711361698806
-0.09002685546875;-0.1618499755859375;-0.997650146484375;0.0023672839161008596;-0.01040656864643097;-0.0005283711361698806
-0.09002685546875;-0.1618499755859375;-0.997650146484375;0.0023672839161008596;-0.01040656864643097;-0.0005283711361698806
-0.09002685546875;-0.1618499755859375;-0.997650146484375;-0.006333263125270605;-0.0028391960076987743;0.0009480853332206607
-0.0888824462890625;-0.1617279052734375;-0.9944000244140625;-0.006333263125270605;-0.0028391960076987743;0.0009480853332206607
-0.0888824462890625;-0.1617279052734375;-0.9944000244140625;-0.006333263125270605;-0.0028391960076987743;0.0009480853332206607
-0.0888824462890625;-0.1617279052734375;-0.9944000244140625;-0.006333263125270605;-0.0028391960076987743;0.0009480853332206607
-0.0888824462890625;-0.1617279052734375;-0.9944000244140625;-0.006333263125270605;-0.0028391960076987743;0.0009480853332206607
-0.0888824462890625;-0.1617279052734375;-0.9944000244140625;-0.016403207555413246;0.003908189013600349;0.003242664970457554
-0.08856201171875;-0.1630706787109375;-0.9942169189453125;-0.016403207555413246;0.003908189013600349;0.003242664970457554
-0.08856201171875;-0.1630706787109375;-0.9942169189453125;-0.016403207555413246;0.003908189013600349;0.003242664970457554
-0.08856201171875;-0.1630706787109375;-0.9942169189453125;-0.016403207555413246;0.003908189013600349;0.003242664970457554
-0.08856201171875;-0.1630706787109375;-0.9942169189453125;-0.016403207555413246;0.003908189013600349;0.003242664970457554
-0.08856201171875;-0.1630706787109375;-0.9942169189453125;-0.024659806862473488;0.014457236044108868;0.003838680451735854
-0.090118408203125;-0.16461181640625;-0.9952392578125;-0.024659806862473488;0.014457236044108868;0.003838680451735854
-0.090118408203125;-0.16461181640625;-0.9952392578125;-0.024659806862473488;0.014457236044108868;0.003838680451735854
-0.090118408203125;-0.16461181640625;-0.9952392578125;-0.024659806862473488;0.014457236044108868;0.003838680451735854
-0.090118408203125;-0.16461181640625;-0.9952392578125;-0.024659806862473488;0.014457236044108868;0.003838680451735854
-0.090118408203125;-0.16461181640625;-0.9952392578125;-0.03167324140667915;0.01666046865284443;0.003695135936141014
-0.091064453125;-0.1658782958984375;-0.999267578125;-0.03167324140667915;0.01666046865284443;0.003695135936141014
-0.091064453125;-0.1658782958984375;-0.999267578125;-0.03167324140667915;0.01666046865284443;0.003695135936141014
-0.091064453125;-0.1658782958984375;-0.999267578125;-0.03167324140667915;0.01666046865284443;0.003695135936141014
-0.091064453125;-0.1658782958984375;-0.999267578125;-0.03167324140667915;0.01666046865284443;0.003695135936141014
-0.091064453125;-0.1658782958984375;-0.999267578125;-0.030397852882742882;0.017831994220614433;0.002820287598297
-0.0919036865234375;-0.1658782958984375;-1.003875732421875;-0.030397852882742882;0.017831994220614433;0.002820287598297
-0.0919036865234375;-0.1658782958984375;-1.003875732421875;-0.030397852882742882;0.017831994220614433;0.002820287598297
-0.0919036865234375;-0.1658782958984375;-1.003875732421875;-0.030397852882742882;0.017831994220614433;0.002820287598297
-0.0919036865234375;-0.1658782958984375;-1.003875732421875;-0.030397852882742882;0.017831994220614433;0.002820287598297
-0.0919036865234375;-0.1658782958984375;-1.003875732421875;-0.03086177632212639;0.01906850002706051;0.004145210143178701
-0.0908660888671875;-0.165740966796875;-1.007415771484375;-0.03086177632212639;0.01906850002706051;0.004145210143178701
-0.0908660888671875;-0.165740966796875;-1.007415771484375;-0.03086177632212639;0.01906850002706051;0.004145210143178701
-0.0908660888671875;-0.165740966796875;-1.007415771484375;-0.03086177632212639;0.01906850002706051;0.004145210143178701
-0.0908660888671875;-0.165740966796875;-1.007415771484375;-0.03086177632212639;0.01906850002706051;0.004145210143178701
-0.0908660888671875;-0.165740966796875;-1.007415771484375;-0.03516145050525665;0.022216355428099632;0.0033244239166378975
-0.090911865234375;-0.16552734375;-1.0070343017578125;-0.03516145050525665;0.022216355428099632;0.0033244239166378975
-0.090911865234375;-0.16552734375;-1.0070343017578125;-0.03516145050525665;0.022216355428099632;0.0033244239166378975
-0.090911865234375;-0.16552734375;-1.0070343017578125;-0.03516145050525665;0.022216355428099632;0.0033244239166378975
-0.090911865234375;-0.16552734375;-1.0070343017578125;-0.03516145050525665;0.022216355428099632;0.0033244239166378975
-0.090911865234375;-0.16552734375;-1.0070343017578125;-0.03310815244913101;0.025105886161327362;0.0033936661202460527
-0.0909881591796875;-0.1649627685546875;-1.0030059814453125;-0.03310815244913101;0.025105886161327362;0.0033936661202460527
-0.0909881591796875;-0.1649627685546875;-1.0030059814453125;-0.03310815244913101;0.025105886161327362;0.0033936661202460527
-0.0909881591796875;-0.1649627685546875;-1.0030059814453125;-0.03310815244913101;0.025105886161327362;0.0033936661202460527
-0.0909881591796875;-0.1649627685546875;-1.0030059814453125;-0.03310815244913101;0.025105886161327362;0.0033936661202460527
-0.0909881591796875;-0.1649627685546875;-1.0030059814453125;-0.03773805871605873;0.02654372714459896;0.001891909632831812
-0.0890960693359375;-0.1643524169921875;-1.00079345703125;-0.03773805871605873;0.02654372714459896;0.001891909632831812
-0.0890960693359375;-0.1643524169921875;-1.00079345703125;-0.03773805871605873;0.02654372714459896;0.001891909632831812
-0.0890960693359375;-0.1643524169921875;-1.00079345703125;-0.03773805871605873;0.02654372714459896;0.001891909632831812
-0.0890960693359375;-0.1643524169921875;-1.00079345703125;-0.03773805871605873;0.02654372714459896;0.001891909632831812
-0.0890960693359375;-0.1643524169921875;-1.00079345703125;-0.04473258554935455;0.02497565746307373;0.0021912488155066967
-0.088897705078125;-0.1645355224609375;-0.9977264404296875;-0.04473258554935455;0.02497565746307373;0.0021912488155066967
-0.088897705078125;-0.1645355224609375;-0.9977264404296875;-0.04473258554935455;0.02497565746307373;0.0021912488155066967
-0.088897705078125;-0.1645355224609375;-0.9977264404296875;-0.04473258554935455;0.02497565746307373;0.0021912488155066967
-0.088897705078125;-0.1645355224609375;-0.9977264404296875;-0.04473258554935455;0.02497565746307373;0.0021912488155066967
-0.088897705078125;-0.1645355224609375;-0.9977264404296875;-0.04331684857606888;0.016996294260025024;0.0020160130225121975
-0.08892822265625;-0.164459228515625;-0.9972381591796875;-0.04331684857606888;0.016996294260025024;0.0020160130225121975
-0.08892822265625;-0.164459228515625;-0.9972381591796875;-0.04331684857606888;0.016996294260025024;0.0020160130225121975
-0.08892822265625;-0.164459228515625;-0.9972381591796875;-0.04331684857606888;0.016996294260025024;0.0020160130225121975
-0.08892822265625;-0.164459228515625;-0.9972381591796875;-0.04331684857606888;0.016996294260025024;0.0020160130225121975
-0.08892822265625;-0.164459228515625;-0.9972381591796875;-0.048716939985752106;0.009288573637604713;0.0034999263007193804
-0.0863800048828125;-0.1636505126953125;-0.999542236328125;-0.048716939985752106;0.009288573637604713;0.0034999263007193804
-0.0863800048828125;-0.1636505126953125;-0.999542236328125;-0.048716939985752106;0.009288573637604713;0.0034999263007193804
-0.0863800048828125;-0.1636505126953125;-0.999542236328125;-0.048716939985752106;0.009288573637604713;0.0034999263007193804
-0.0863800048828125;-0.1636505126953125;-0.999542236328125;-0.048716939985752106;0.009288573637604713;0.0034999263007193804
-0.0863800048828125;-0.1636505126953125;-0.999542236328125;-0.04525456205010414;0.004685831721872091;0.0038333539851009846
-0.0863800048828125;-0.16180419921875;-1.00091552734375;-0.04525456205010414;0.004685831721872091;0.0038333539851009846
-0.0863800048828125;-0.16180419921875;-1.00091552734375;-0.04525456205010414;0.004685831721872091;0.0038333539851009846
-0.0863800048828125;-0.16180419921875;-1.00091552734375;-0.04525456205010414;0.004685831721872091;0.0038333539851009846
-0.0863800048828125;-0.16180419921875;-1.00091552734375;-0.04525456205010414;0.004685831721872091;0.0038333539851009846
-0.0863800048828125;-0.16180419921875;-1.00091552734375;-0.039794016629457474;0.004096740856766701;0.006947122048586607
-0.08538818359375;-0.160858154296875;-1.0016326904296875;-0.039794016629457474;0.004096740856766701;0.006947122048586607
-0.08538818359375;-0.160858154296875;-1.0016326904296875;-0.039794016629457474;0.004096740856766701;0.006947122048586607
-0.08538818359375;-0.160858154296875;-1.0016326904296875;-0.039794016629457474;0.004096740856766701;0.006947122048586607
-0.08538818359375;-0.160858154296875;-1.0016326904296875;-0.039794016629457474;0.004096740856766701;0.006947122048586607
-0.08538818359375;-0.160858154296875;-1.0016326904296875;-0.03365489840507507;0.010457701049745083;0.006512227933853865
-0.0860137939453125;-0.15899658203125;-1.00152587890625;-0.03365489840507507;0.010457701049745083;0.006512227933853865
-0.0860137939453125;-0.15899658203125;-1.00152587890625;-0.03365489840507507;0.010457701049745083;0.006512227933853865
-0.0860137939453125;-0.15899658203125;-1.00152587890625;-0.03365489840507507;0.010457701049745083;0.006512227933853865
-0.0860137939453125;-0.15899658203125;-1.00152587890625;-0.03365489840507507;0.010457701049745083;0.006512227933853865
-0.0860137939453125;-0.15899658203125;-1.00152587890625;-0.02846093662083149;0.01685860939323902;0.004424575716257095
-0.0869598388671875;-0.15570068359375;-1.0030059814453125;-0.02846093662083149;0.01685860939323902;0.004424575716257095
-0.0869598388671875;-0.15570068359375;-1.0030059814453125;-0.02846093662083149;0.01685860939323902;0.004424575716257095
-0.0869598388671875;-0.15570068359375;-1.0030059814453125;-0.02846093662083149;0.01685860939323902;0.004424575716257095
-0.0869598388671875;-0.15570068359375;-1.0030059814453125;-0.02846093662083149;0.01685860939323902;0.004424575716257095
-0.0869598388671875;-0.15570068359375;-1.0030059814453125;-0.019604327157139778;0.020384367555379868;0.004060788080096245
-0.087799072265625;-0.154296875;-1.0045318603515625;-0.019604327157139778;0.020384367555379868;0.004060788080096245
-0.087799072265625;-0.154296875;-1.0045318603515625;-0.019604327157139778;0.020384367555379868;0.004060788080096245
-0.087799072265625;-0.154296875;-1.0045318603515625;-0.019604327157139778;0.020384367555379868;0.004060788080096245
-0.087799072265625;-0.154296875;-1.0045318603515625;-0.019604327157139778;0.020384367555379868;0.004060788080096245
-0.087799072265625;-0.154296875;-1.0045318603515625;-0.01625114120543003;0.024943700060248375;0.002129996195435524
-0.086273193359375;-0.1536102294921875;-1.0057830810546875;-0.01625114120543003;0.024943700060248375;0.002129996195435524
-0.086273193359375;-0.1536102294921875;-1.0057830810546875;-0.01625114120543003;0.024943700060248375;0.002129996195435524
-0.086273193359375;-0.1536102294921875;-1.0057830810546875;-0.01625114120543003;0.024943700060248375;0.002129996195435524
-0.086273193359375;-0.1536102294921875;-1.0057830810546875;-0.01625114120543003;0.024943700060248375;0.002129996195435524
-0.086273193359375;-0.1536102294921875;-1.0057830810546875;-0.01587776653468609;0.02196388877928257;-0.00010626012954162434
-0.085418701171875;-0.152801513671875;-1.006317138671875;-0.01587776653468609;0.02196388877928257;-0.00010626012954162434
-0.085418701171875;-0.152801513671875;-1.006317138671875;-0.01587776653468609;0.02196388877928257;-0.00010626012954162434
-0.085418701171875;-0.152801513671875;-1.006317138671875;-0.01587776653468609;0.02196388877928257;-0.00010626012954162434
-0.085418701171875;-0.152801513671875;-1.006317138671875;-0.01587776653468609;0.02196388877928257;-0.00010626012954162434
-0.085418701171875;-0.152801513671875;-1.006317138671875;-0.013554956763982773;0.021519407629966736;-0.001776594785042107
-0.0847930908203125;-0.1527099609375;-1.0040435791015625;-0.013554956763982773;0.021519407629966736;-0.001776594785042107
-0.0847930908203125;-0.1527099609375;-1.0040435791015625;-0.013554956763982773;0.021519407629966736;-0.001776594785042107
-0.0847930908203125;-0.1527099609375;-1.0040435791015625;-0.013554956763982773;0.021519407629966736;-0.001776594785042107
-0.0847930908203125;-0.1527099609375;-1.0040435791015625;-0.013554956763982773;0.021519407629966736;-0.001776594785042107
-0.0847930908203125;-0.1527099609375;-1.0040435791015625;-0.014104100875556469;0.010361027903854847;-0.0014378406340256333
-0.08587646484375;-0.151275634765625;-1.0051422119140625;-0.014104100875556469;0.010361027903854847;-0.0014378406340256333
-0.08587646484375;-0.151275634765625;-1.0051422119140625;-0.014104100875556469;0.010361027903854847;-0.0014378406340256333
-0.08587646484375;-0.151275634765625;-1.0051422119140625;-0.014104100875556469;0.010361027903854847;-0.0014378406340256333
-0.08587646484375;-0.151275634765625;-1.0051422119140625;-0.012001534923911095;0.004848018288612366;-0.0003432814555708319
-0.08587646484375;-0.151275634765625;-1.0051422119140625;-0.012001534923911095;0.004848018288612366;-0.0003432814555708319
-0.0843658447265625;-0.15179443359375;-1.0055389404296875;-0.012001534923911095;0.004848018288612366;-0.0003432814555708319
-0.0843658447265625;-0.15179443359375;-1.0055389404296875;-0.012001534923911095;0.004848018288612366;-0.0003432814555708319
-0.0843658447265625;-0.15179443359375;-1.0055389404296875;-0.012001534923911095;0.004848018288612366;-0.0003432814555708319
-0.0843658447265625;-0.15179443359375;-1.0055389404296875;-0.009140501730144024;-0.001187237212434411;-0.0003534014686010778
-0.0843658447265625;-0.15179443359375;-1.0055389404296875;-0.009140501730144024;-0.001187237212434411;-0.0003534014686010778
-0.0840606689453125;-0.1524505615234375;-1.0041656494140625;-0.009140501730144024;-0.001187237212434411;-0.0003534014686010778
-0.0840606689453125;-0.1524505615234375;-1.0041656494140625;-0.009140501730144024;-0.001187237212434411;-0.0003534014686010778
-0.0840606689453125;-0.1524505615234375;-1.0041656494140625;-0.009140501730144024;-0.001187237212434411;-0.0003534014686010778
-0.0840606689453125;-0.1524505615234375;-1.0041656494140625;-0.01152775902301073;0.00021252025908324867;0.0006143912323750556
-0.0840606689453125;-0.1524505615234375;-1.0041656494140625;-0.01152775902301073;0.00021252025908324867;0.0006143912323750556
-0.0840301513671875;-0.152557373046875;-1.0009918212890625;-0.01152775902301073;0.00021252025908324867;0.0006143912323750556
-0.0840301513671875;-0.152557373046875;-1.0009918212890625;-0.01152775902301073;0.00021252025908324867;0.0006143912323750556
-0.0840301513671875;-0.152557373046875;-1.0009918212890625;-0.01152775902301073;0.00021252025908324867;0.0006143912323750556
-0.0840301513671875;-0.152557373046875;-1.0009918212890625;-0.017968880012631416;0.005025384947657585;0.001276186783798039
-0.0840301513671875;-0.1517181396484375;-0.996734619140625;-0.017968880012631416;0.005025384947657585;0.001276186783798039
-0.0840301513671875;-0.1517181396484375;-0.996734619140625;-0.017968880012631416;0.005025384947657585;0.001276186783798039
-0.0840301513671875;-0.1517181396484375;-0.996734619140625;-0.017968880012631416;0.005025384947657585;0.001276186783798039
-0.0840301513671875;-0.1517181396484375;-0.996734619140625;-0.017968880012631416;0.005025384947657585;0.001276186783798039
-0.0840301513671875;-0.1517181396484375;-0.996734619140625;-0.017968880012631416;0.005025384947657585;0.001276186783798039
-0.0840301513671875;-0.1517181396484375;-0.996734619140625;-0.0170290507376194;0.010175406001508236;-0.0007629956235177815
-0.0843048095703125;-0.15045166015625;-0.9940185546875;-0.0170290507376194;0.010175406001508236;-0.0007629956235177815
-0.0843048095703125;-0.15045166015625;-0.9940185546875;-0.0170290507376194;0.010175406001508236;-0.0007629956235177815
-0.0843048095703125;-0.15045166015625;-0.9940185546875;-0.0170290507376194;0.010175406001508236;-0.0007629956235177815
-0.0843048095703125;-0.15045166015625;-0.9940185546875;-0.02143178880214691;0.014638064429163933;0.0037942056078463793
-0.0830841064453125;-0.150360107421875;-0.9915771484375;-0.02143178880214691;0.014638064429163933;0.0037942056078463793
-0.0830841064453125;-0.150360107421875;-0.9915771484375;-0.02143178880214691;0.014638064429163933;0.0037942056078463793
-0.0830841064453125;-0.150360107421875;-0.9915771484375;-0.02143178880214691;0.014638064429163933;0.0037942056078463793
-0.0830841064453125;-0.150360107421875;-0.9915771484375;-0.02143178880214691;0.014638064429163933;0.0037942056078463793
-0.0830841064453125;-0.150360107421875;-0.9915771484375;-0.030700121074914932;0.01149766519665718;0.005826996639370918
-0.081207275390625;-0.150848388671875;-0.9900970458984375;-0.030700121074914932;0.01149766519665718;0.005826996639370918
-0.081207275390625;-0.150848388671875;-0.9900970458984375;-0.030700121074914932;0.01149766519665718;0.005826996639370918
-0.081207275390625;-0.150848388671875;-0.9900970458984375;-0.030700121074914932;0.01149766519665718;0.005826996639370918
-0.081207275390625;-0.150848388671875;-0.9900970458984375;-0.030700121074914932;0.01149766519665718;0.005826996639370918
-0.081207275390625;-0.150848388671875;-0.9900970458984375;-0.03455265238881111;0.01287665031850338;0.0057279267348349094
-0.0804290771484375;-0.1517486572265625;-0.9891510009765625;-0.03455265238881111;0.01287665031850338;0.0057279267348349094
-0.0804290771484375;-0.1517486572265625;-0.9891510009765625;-0.03455265238881111;0.01287665031850338;0.0057279267348349094
-0.0804290771484375;-0.1517486572265625;-0.9891510009765625;-0.03455265238881111;0.01287665031850338;0.0057279267348349094
-0.0804290771484375;-0.1517486572265625;-0.9891510009765625;-0.03455265238881111;0.01287665031850338;0.0057279267348349094
-0.0804290771484375;-0.1517486572265625;-0.9891510009765625;-0.03483148291707039;0.0164793748408556;0.0051835766062140465
-0.0816802978515625;-0.153106689453125;-0.98779296875;-0.03483148291707039;0.0164793748408556;0.0051835766062140465
-0.0816802978515625;-0.153106689453125;-0.98779296875;-0.03483148291707039;0.0164793748408556;0.0051835766062140465
-0.0816802978515625;-0.153106689453125;-0.98779296875;-0.03483148291707039;0.0164793748408556;0.0051835766062140465
-0.0816802978515625;-0.153106689453125;-0.98779296875;-0.03483148291707039;0.0164793748408556;0.0051835766062140465
-0.0816802978515625;-0.153106689453125;-0.98779296875;-0.021828599274158478;0.007144195958971977;0.0014879080699756742
-0.083709716796875;-0.1529388427734375;-0.996124267578125;-0.021828599274158478;0.007144195958971977;0.0014879080699756742
-0.083709716796875;-0.1529388427734375;-0.996124267578125;-0.021828599274158478;0.007144195958971977;0.0014879080699756742
-0.083709716796875;-0.1529388427734375;-0.996124267578125;-0.021828599274158478;0.007144195958971977;0.0014879080699756742
-0.083709716796875;-0.1529388427734375;-0.996124267578125;-0.021828599274158478;0.007144195958971977;0.0014879080699756742
-0.083709716796875;-0.1529388427734375;-0.996124267578125;0.010076070204377174;-0.011040134355425835;0.0003707120195031166
-0.086273193359375;-0.1536407470703125;-1.0115966796875;0.010076070204377174;-0.011040134355425835;0.0003707120195031166
-0.086273193359375;-0.1536407470703125;-1.0115966796875;0.010076070204377174;-0.011040134355425835;0.0003707120195031166
-0.086273193359375;-0.1536407470703125;-1.0115966796875;0.010076070204377174;-0.011040134355425835;0.0003707120195031166
-0.086273193359375;-0.1536407470703125;-1.0115966796875;0.010076070204377174;-0.011040134355425835;0.0003707120195031166
-0.086273193359375;-0.1536407470703125;-1.0115966796875;0.04914171248674393;-0.02821486070752144;0.002298840554431081
-0.0875244140625;-0.1561431884765625;-1.0272216796875;0.04914171248674393;-0.02821486070752144;0.002298840554431081
-0.0875244140625;-0.1561431884765625;-1.0272216796875;0.04914171248674393;-0.02821486070752144;0.002298840554431081
-0.0875244140625;-0.1561431884765625;-1.0272216796875;0.04914171248674393;-0.02821486070752144;0.002298840554431081
-0.0875244140625;-0.1561431884765625;-1.0272216796875;0.04914171248674393;-0.02821486070752144;0.002298840554431081
-0.0875244140625;-0.1561431884765625;-1.0272216796875;0.06731725484132767;-0.02822098508477211;1.4647385796706658e-05
-0.0854949951171875;-0.1578369140625;-1.031341552734375;0.06731725484132767;-0.02822098508477211;1.4647385796706658e-05
-0.0854949951171875;-0.1578369140625;-1.031341552734375;0.06731725484132767;-0.02822098508477211;1.4647385796706658e-05
-0.0854949951171875;-0.1578369140625;-1.031341552734375;0.06731725484132767;-0.02822098508477211;1.4647385796706658e-05
-0.0854949951171875;-0.1578369140625;-1.031341552734375;0.06731725484132767;-0.02822098508477211;1.4647385796706658e-05
-0.0854949951171875;-0.1578369140625;-1.031341552734375;0.06842806190252304;0.0015361113473773003;-0.00040959418402053416
-0.086395263671875;-0.1593780517578125;-1.01776123046875;0.06842806190252304;0.0015361113473773003;-0.00040959418402053416
-0.086395263671875;-0.1593780517578125;-1.01776123046875;0.06842806190252304;0.0015361113473773003;-0.00040959418402053416
-0.086395263671875;-0.1593780517578125;-1.01776123046875;0.06842806190252304;0.0015361113473773003;-0.00040959418402053416
-0.086395263671875;-0.1593780517578125;-1.01776123046875;0.06842806190252304;0.0015361113473773003;-0.00040959418402053416
-0.086395263671875;-0.1593780517578125;-1.01776123046875;0.039389751851558685;0.04787644371390343;0.0031039142049849033
-0.0865478515625;-0.1608428955078125;-0.9955902099609375;0.039389751851558685;0.04787644371390343;0.0031039142049849033
-0.0865478515625;-0.1608428955078125;-0.9955902099609375;0.039389751851558685;0.04787644371390343;0.0031039142049849033
-0.0865478515625;-0.1608428955078125;-0.9955902099609375;0.039389751851558685;0.04787644371390343;0.0031039142049849033
-0.0865478515625;-0.1608428955078125;-0.9955902099609375;0.039389751851558685;0.04787644371390343;0.0031039142049849033
-0.0865478515625;-0.1608428955078125;-0.9955902099609375;0.004194212146103382;0.07965274900197983;0.0035601137205958366
-0.0859527587890625;-0.1633148193359375;-0.9804534912109375;0.004194212146103382;0.07965274900197983;0.0035601137205958366
-0.0859527587890625;-0.1633148193359375;-0.9804534912109375;0.004194212146103382;0.07965274900197983;0.0035601137205958366
-0.0859527587890625;-0.1633148193359375;-0.9804534912109375;0.004194212146103382;0.07965274900197983;0.0035601137205958366
-0.0859527587890625;-0.1633148193359375;-0.9804534912109375;0.004194212146103382;0.07965274900197983;0.0035601137205958366
-0.0859527587890625;-0.1633148193359375;-0.9804534912109375;-0.03543522208929062;0.07660183310508728;0.005600893869996071
-0.0858306884765625;-0.164215087890625;-0.9809112548828125;-0.03543522208929062;0.07660183310508728;0.005600893869996071
-0.0858306884765625;-0.164215087890625;-0.9809112548828125;-0.03543522208929062;0.07660183310508728;0.005600893869996071
-0.0858306884765625;-0.164215087890625;-0.9809112548828125;-0.03543522208929062;0.07660183310508728;0.005600893869996071
-0.0858306884765625;-0.164215087890625;-0.9809112548828125;-0.03543522208929062;0.07660183310508728;0.005600893869996071
-0.0858306884765625;-0.164215087890625;-0.9809112548828125;-0.06800674647092819;0.05185121297836304;0.003841077210381627
-0.0828094482421875;-0.1597900390625;-0.98468017578125;-0.06800674647092819;0.05185121297836304;0.003841077210381627
-0.0828094482421875;-0.1597900390625;-0.98468017578125;-0.06800674647092819;0.05185121297836304;0.003841077210381627
-0.0828094482421875;-0.1597900390625;-0.98468017578125;-0.06800674647092819;0.05185121297836304;0.003841077210381627
-0.0828094482421875;-0.1597900390625;-0.98468017578125;-0.06800674647092819;0.05185121297836304;0.003841077210381627
-0.0828094482421875;-0.1597900390625;-0.98468017578125;-0.09216534346342087;0.042024947702884674;0.00330311874859035
-0.0805511474609375;-0.153839111328125;-0.9820404052734375;-0.09216534346342087;0.042024947702884674;0.00330311874859035
-0.0805511474609375;-0.153839111328125;-0.9820404052734375;-0.09216534346342087;0.042024947702884674;0.00330311874859035
-0.0805511474609375;-0.153839111328125;-0.9820404052734375;-0.09216534346342087;0.042024947702884674;0.00330311874859035
-0.0805511474609375;-0.153839111328125;-0.9820404052734375;-0.09216534346342087;0.042024947702884674;0.00330311874859035
-0.0805511474609375;-0.153839111328125;-0.9820404052734375;-0.09511639177799225;0.03440750762820244;0.00035739620216190815
-0.0824432373046875;-0.1483306884765625;-0.9857940673828125;-0.09511639177799225;0.03440750762820244;0.00035739620216190815
-0.0824432373046875;-0.1483306884765625;-0.9857940673828125;-0.09511639177799225;0.03440750762820244;0.00035739620216190815
-0.0824432373046875;-0.1483306884765625;-0.9857940673828125;-0.09511639177799225;0.03440750762820244;0.00035739620216190815
-0.0824432373046875;-0.1483306884765625;-0.9857940673828125;-0.09511639177799225;0.03440750762820244;0.00035739620216190815
-0.0824432373046875;-0.1483306884765625;-0.9857940673828125;-0.08416520804166794;0.027946678921580315;-0.001868207473307848
-0.0873870849609375;-0.146575927734375;-0.99749755859375;-0.08416520804166794;0.027946678921580315;-0.001868207473307848
-0.0873870849609375;-0.146575927734375;-0.99749755859375;-0.08416520804166794;0.027946678921580315;-0.001868207473307848
-0.0873870849609375;-0.146575927734375;-0.99749755859375;-0.08416520804166794;0.027946678921580315;-0.001868207473307848
-0.0873870849609375;-0.146575927734375;-0.99749755859375;-0.08416520804166794;0.027946678921580315;-0.001868207473307848
-0.0873870849609375;-0.146575927734375;-0.99749755859375;-0.06324421614408493;0.020505808293819427;0.00036458674003370106
-0.0892333984375;-0.1466217041015625;-1.005157470703125;-0.06324421614408493;0.020505808293819427;0.00036458674003370106
-0.0892333984375;-0.1466217041015625;-1.005157470703125;-0.06324421614408493;0.020505808293819427;0.00036458674003370106
-0.0892333984375;-0.1466217041015625;-1.005157470703125;-0.06324421614408493;0.020505808293819427;0.00036458674003370106
-0.0892333984375;-0.1466217041015625;-1.005157470703125;-0.06324421614408493;0.020505808293819427;0.00036458674003370106
-0.0892333984375;-0.1466217041015625;-1.005157470703125;-0.02972407266497612;0.006347378250211477;0.0006346312584355474
-0.0860137939453125;-0.1465911865234375;-1.008148193359375;-0.02972407266497612;0.006347378250211477;0.0006346312584355474
-0.0860137939453125;-0.1465911865234375;-1.008148193359375;-0.02972407266497612;0.006347378250211477;0.0006346312584355474
-0.0860137939453125;-0.1465911865234375;-1.008148193359375;-0.02972407266497612;0.006347378250211477;0.0006346312584355474
-0.0860137939453125;-0.1465911865234375;-1.008148193359375;-0.02972407266497612;0.006347378250211477;0.0006346312584355474
-0.0860137939453125;-0.1465911865234375;-1.008148193359375;0.006010754499584436;-0.012404737994074821;-0.0010940266074612737
-0.08050537109375;-0.1469268798828125;-1.0123443603515625;0.006010754499584436;-0.012404737994074821;-0.0010940266074612737
-0.08050537109375;-0.1469268798828125;-1.0123443603515625;0.006010754499584436;-0.012404737994074821;-0.0010940266074612737
-0.08050537109375;-0.1469268798828125;-1.0123443603515625;0.006010754499584436;-0.012404737994074821;-0.0010940266074612737
-0.08050537109375;-0.1469268798828125;-1.0123443603515625;0.006010754499584436;-0.012404737994074821;-0.0010940266074612737
-0.08050537109375;-0.1469268798828125;-1.0123443603515625;0.041070204228162766;-0.025735456496477127;0.006308495998382568
-0.0771026611328125;-0.1497344970703125;-1.0148468017578125;0.041070204228162766;-0.025735456496477127;0.006308495998382568
-0.0771026611328125;-0.1497344970703125;-1.0148468017578125;0.041070204228162766;-0.025735456496477127;0.006308495998382568
-0.0771026611328125;-0.1497344970703125;-1.0148468017578125;0.041070204228162766;-0.025735456496477127;0.006308495998382568
-0.0771026611328125;-0.1497344970703125;-1.0148468017578125;0.041070204228162766;-0.025735456496477127;0.006308495998382568
-0.0771026611328125;-0.1497344970703125;-1.0148468017578125;0.0678328424692154;-0.027630029246211052;0.00535348616540432
-0.0760040283203125;-0.15350341796875;-1.01123046875;0.0678328424692154;-0.027630029246211052;0.00535348616540432
-0.0760040283203125;-0.15350341796875;-1.01123046875;0.0678328424692154;-0.027630029246211052;0.00535348616540432
-0.0760040283203125;-0.15350341796875;-1.01123046875;0.0678328424692154;-0.027630029246211052;0.00535348616540432
-0.0760040283203125;-0.15350341796875;-1.01123046875;0.0678328424692154;-0.027630029246211052;0.00535348616540432
-0.0760040283203125;-0.15350341796875;-1.01123046875;0.07296475768089294;-0.012488095089793205;0.004476773552596569
-0.0789947509765625;-0.1591644287109375;-1.0028076171875;0.07296475768089294;-0.012488095089793205;0.004476773552596569
-0.0789947509765625;-0.1591644287109375;-1.0028076171875;0.07296475768089294;-0.012488095089793205;0.004476773552596569
-0.0789947509765625;-0.1591644287109375;-1.0028076171875;0.07296475768089294;-0.012488095089793205;0.004476773552596569
-0.0789947509765625;-0.1591644287109375;-1.0028076171875;0.07296475768089294;-0.012488095089793205;0.004476773552596569
-0.0789947509765625;-0.1591644287109375;-1.0028076171875;0.07390964031219482;0.0020394488237798214;0.00017976337403524667
-0.080596923828125;-0.1629791259765625;-0.99615478515625;0.07390964031219482;0.0020394488237798214;0.00017976337403524667
-0.080596923828125;-0.1629791259765625;-0.99615478515625;0.07390964031219482;0.0020394488237798214;0.00017976337403524667
-0.080596923828125;-0.1629791259765625;-0.99615478515625;0.07390964031219482;0.0020394488237798214;0.00017976337403524667
-0.080596923828125;-0.1629791259765625;-0.99615478515625;0.07390964031219482;0.0020394488237798214;0.00017976337403524667
-0.080596923828125;-0.1629791259765625;-0.99615478515625;0.052913814783096313;0.010614827275276184;0.002079662401229143
-0.080963134765625;-0.1640777587890625;-0.9935455322265625;0.052913814783096313;0.010614827275276184;0.002079662401229143
-0.080963134765625;-0.1640777587890625;-0.9935455322265625;0.052913814783096313;0.010614827275276184;0.002079662401229143
-0.080963134765625;-0.1640777587890625;-0.9935455322265625;0.052913814783096313;0.010614827275276184;0.002079662401229143
-0.080963134765625;-0.1640777587890625;-0.9935455322265625;0.052913814783096313;0.010614827275276184;0.002079662401229143
-0.080963134765625;-0.1640777587890625;-0.9935455322265625;0.03512522950768471;0.015000521205365658;-0.0009440905996598303
-0.0799407958984375;-0.1623992919921875;-0.993011474609375;0.03512522950768471;0.015000521205365658;-0.0009440905996598303
-0.0799407958984375;-0.1623992919921875;-0.993011474609375;0.03512522950768471;0.015000521205365658;-0.0009440905996598303
-0.0799407958984375;-0.1623992919921875;-0.993011474609375;0.03512522950768471;0.015000521205365658;-0.0009440905996598303
-0.0799407958984375;-0.1623992919921875;-0.993011474609375;0.03512522950768471;0.015000521205365658;-0.0009440905996598303
-0.0799407958984375;-0.1623992919921875;-0.993011474609375;0.018338261172175407;0.007417968939989805;0.0007331682136282325
-0.0801544189453125;-0.15972900390625;-0.99383544921875;0.018338261172175407;0.007417968939989805;0.0007331682136282325
-0.0801544189453125;-0.15972900390625;-0.99383544921875;0.018338261172175407;0.007417968939989805;0.0007331682136282325
-0.0801544189453125;-0.15972900390625;-0.99383544921875;0.018338261172175407;0.007417968939989805;0.0007331682136282325
-0.0801544189453125;-0.15972900390625;-0.99383544921875;0.018338261172175407;0.007417968939989805;0.0007331682136282325
-0.0801544189453125;-0.15972900390625;-0.99383544921875;-0.0011837751371785998;-0.005441637244075537;0.0018413095967844129
-0.0783233642578125;-0.1568756103515625;-0.9981231689453125;-0.0011837751371785998;-0.005441637244075537;0.0018413095967844129
-0.0783233642578125;-0.1568756103515625;-0.9981231689453125;-0.0011837751371785998;-0.005441637244075537;0.0018413095967844129
-0.0783233642578125;-0.1568756103515625;-0.9981231689453125;-0.0011837751371785998;-0.005441637244075537;0.0018413095967844129
-0.0783233642578125;-0.1568756103515625;-0.9981231689453125;-0.0011837751371785998;-0.005441637244075537;0.0018413095967844129
-0.0783233642578125;-0.1568756103515625;-0.9981231689453125;-0.008830509148538113;-0.013787184841930866;0.001526523963548243
-0.078582763671875;-0.1534271240234375;-1.0006256103515625;-0.008830509148538113;-0.013787184841930866;0.001526523963548243
-0.078582763671875;-0.1534271240234375;-1.0006256103515625;-0.008830509148538113;-0.013787184841930866;0.001526523963548243
-0.078582763671875;-0.1534271240234375;-1.0006256103515625;-0.008830509148538113;-0.013787184841930866;0.001526523963548243
-0.078582763671875;-0.1534271240234375;-1.0006256103515625;-0.008830509148538113;-0.013787184841930866;0.001526523963548243
-0.078582763671875;-0.1534271240234375;-1.0006256103515625;-0.013598899357020855;-0.01756754145026207;0.007891478948295116
-0.07952880859375;-0.1491851806640625;-1.001861572265625;-0.013598899357020855;-0.01756754145026207;0.007891478948295116
-0.07952880859375;-0.1491851806640625;-1.001861572265625;-0.013598899357020855;-0.01756754145026207;0.007891478948295116
-0.07952880859375;-0.1491851806640625;-1.001861572265625;-0.013598899357020855;-0.01756754145026207;0.007891478948295116
-0.07952880859375;-0.1491851806640625;-1.001861572265625;-0.013598899357020855;-0.01756754145026207;0.007891478948295116
-0.07952880859375;-0.1491851806640625;-1.001861572265625;-0.015078019350767136;-0.023154055699706078;0.0064925202168524265
-0.08087158203125;-0.1450958251953125;-1.004638671875;-0.015078019350767136;-0.023154055699706078;0.0064925202168524265
-0.08087158203125;-0.1450958251953125;-1.004638671875;-0.015078019350767136;-0.023154055699706078;0.0064925202168524265
-0.08087158203125;-0.1450958251953125;-1.004638671875;-0.015078019350767136;-0.023154055699706078;0.0064925202168524265
-0.08087158203125;-0.1450958251953125;-1.004638671875;-0.015078019350767136;-0.023154055699706078;0.0064925202168524265
-0.08087158203125;-0.1450958251953125;-1.004638671875;-0.012889965437352657;-0.017047958448529243;0.006940197665244341
-0.08184814453125;-0.14215087890625;-1.005340576171875;-0.012889965437352657;-0.017047958448529243;0.006940197665244341
-0.08184814453125;-0.14215087890625;-1.005340576171875;-0.012889965437352657;-0.017047958448529243;0.006940197665244341
-0.08184814453125;-0.14215087890625;-1.005340576171875;-0.012889965437352657;-0.017047958448529243;0.006940197665244341
-0.08184814453125;-0.14215087890625;-1.005340576171875;-0.012889965437352657;-0.017047958448529243;0.006940197665244341
-0.08184814453125;-0.14215087890625;-1.005340576171875;-0.009642773307859898;-0.015369635075330734;0.0059750680811703205
-0.0832672119140625;-0.140838623046875;-1.0079345703125;-0.009642773307859898;-0.015369635075330734;0.0059750680811703205
-0.0832672119140625;-0.140838623046875;-1.0079345703125;-0.009642773307859898;-0.015369635075330734;0.0059750680811703205
-0.0832672119140625;-0.140838623046875;-1.0079345703125;-0.009642773307859898;-0.015369635075330734;0.0059750680811703205
-0.0832672119140625;-0.140838623046875;-1.0079345703125;-0.009642773307859898;-0.015369635075330734;0.0059750680811703205
-0.0832672119140625;-0.140838623046875;-1.0079345703125;-0.00033688987605273724;-0.01786208711564541;0.008140218444168568
-0.0831451416015625;-0.143157958984375;-1.0113525390625;-0.00033688987605273724;-0.01786208711564541;0.008140218444168568
-0.0831451416015625;-0.143157958984375;-1.0113525390625;-0.00033688987605273724;-0.01786208711564541;0.008140218444168568
-0.0831451416015625;-0.143157958984375;-1.0113525390625;-0.00033688987605273724;-0.01786208711564541;0.008140218444168568
-0.0831451416015625;-0.143157958984375;-1.0113525390625;-0.00033688987605273724;-0.01786208711564541;0.008140218444168568
-0.0831451416015625;-0.143157958984375;-1.0113525390625;0.011951201595366001;-0.01956251636147499;0.008777778595685959
-0.0835113525390625;-0.1462249755859375;-1.012176513671875;0.011951201595366001;-0.01956251636147499;0.008777778595685959
-0.0835113525390625;-0.1462249755859375;-1.012176513671875;0.011951201595366001;-0.01956251636147499;0.008777778595685959
-0.0835113525390625;-0.1462249755859375;-1.012176513671875;0.011951201595366001;-0.01956251636147499;0.008777778595685959
-0.0835113525390625;-0.1462249755859375;-1.012176513671875;0.011951201595366001;-0.01956251636147499;0.008777778595685959
-0.0835113525390625;-0.1462249755859375;-1.012176513671875;0.025958895683288574;-0.020811006426811218;0.008649148046970367
-0.0833282470703125;-0.1486663818359375;-1.0180511474609375;0.025958895683288574;-0.020811006426811218;0.008649148046970367
-0.0833282470703125;-0.1486663818359375;-1.0180511474609375;0.025958895683288574;-0.020811006426811218;0.008649148046970367
-0.0833282470703125;-0.1486663818359375;-1.0180511474609375;0.025958895683288574;-0.020811006426811218;0.008649148046970367
-0.0833282470703125;-0.1486663818359375;-1.0180511474609375;0.044250551611185074;-0.008309595286846161;0.004035754129290581
-0.0833282470703125;-0.1486663818359375;-1.0180511474609375;0.044250551611185074;-0.008309595286846161;0.004035754129290581
-0.08447265625;-0.1505889892578125;-1.0231170654296875;0.044250551611185074;-0.008309595286846161;0.004035754129290581
-0.08447265625;-0.1505889892578125;-1.0231170654296875;0.044250551611185074;-0.008309595286846161;0.004035754129290581
-0.08447265625;-0.1505889892578125;-1.0231170654296875;0.044250551611185074;-0.008309595286846161;0.004035754129290581
-0.08447265625;-0.1505889892578125;-1.0231170654296875;0.044250551611185074;-0.008309595286846161;0.004035754129290581
-0.08447265625;-0.1505889892578125;-1.0231170654296875;0.05365390703082085;0.022184398025274277;0.005020857788622379
-0.0851593017578125;-0.1530303955078125;-1.020721435546875;0.05365390703082085;0.022184398025274277;0.005020857788622379
-0.0851593017578125;-0.1530303955078125;-1.020721435546875;0.05365390703082085;0.022184398025274277;0.005020857788622379
-0.0851593017578125;-0.1530303955078125;-1.020721435546875;0.05365390703082085;0.022184398025274277;0.005020857788622379
-0.0851593017578125;-0.1530303955078125;-1.020721435546875;0.047931574285030365;0.062486279755830765;0.0027630296535789967
-0.0851593017578125;-0.1530303955078125;-1.020721435546875;0.047931574285030365;0.062486279755830765;0.0027630296535789967
-0.085113525390625;-0.1557769775390625;-1.0101776123046875;0.047931574285030365;0.062486279755830765;0.0027630296535789967
-0.085113525390625;-0.1557769775390625;-1.0101776123046875;0.047931574285030365;0.062486279755830765;0.0027630296535789967
-0.085113525390625;-0.1557769775390625;-1.0101776123046875;0.047931574285030365;0.062486279755830765;0.0027630296535789967
-0.085113525390625;-0.1557769775390625;-1.0101776123046875;0.017248494550585747;0.11476759612560272;0.00021411814668681473
-0.085113525390625;-0.1557769775390625;-1.0101776123046875;0.017248494550585747;0.11476759612560272;0.00021411814668681473
-0.0853729248046875;-0.1575469970703125;-0.9915008544921875;0.017248494550585747;0.11476759612560272;0.00021411814668681473
-0.0853729248046875;-0.1575469970703125;-0.9915008544921875;0.017248494550585747;0.11476759612560272;0.00021411814668681473
-0.0853729248046875;-0.1575469970703125;-0.9915008544921875;0.017248494550585747;0.11476759612560272;0.00021411814668681473
-0.0853729248046875;-0.1575469970703125;-0.9915008544921875;-0.03678464516997337;0.15532727539539337;-0.0011321097845211625
-0.0853729248046875;-0.1575469970703125;-0.9915008544921875;-0.03678464516997337;0.15532727539539337;-0.0011321097845211625
-0.0867919921875;-0.1585235595703125;-0.970947265625;-0.03678464516997337;0.15532727539539337;-0.0011321097845211625
-0.0867919921875;-0.1585235595703125;-0.970947265625;-0.03678464516997337;0.15532727539539337;-0.0011321097845211625
-0.0867919921875;-0.1585235595703125;-0.970947265625;-0.03678464516997337;0.15532727539539337;-0.0011321097845211625
-0.0867919921875;-0.1585235595703125;-0.970947265625;-0.0997132807970047;0.16630002856254578;-0.0006018743733875453
-0.0858612060546875;-0.156585693359375;-0.9569854736328125;-0.0997132807970047;0.16630002856254578;-0.0006018743733875453
-0.0858612060546875;-0.156585693359375;-0.9569854736328125;-0.0997132807970047;0.16630002856254578;-0.0006018743733875453
-0.0858612060546875;-0.156585693359375;-0.9569854736328125;-0.0997132807970047;0.16630002856254578;-0.0006018743733875453
-0.0858612060546875;-0.156585693359375;-0.9569854736328125;-0.0997132807970047;0.16630002856254578;-0.0006018743733875453
-0.0858612060546875;-0.156585693359375;-0.9569854736328125;-0.16177718341350555;0.14152278006076813;0.0012634035665541887
-0.0825653076171875;-0.1546173095703125;-0.953582763671875;-0.16177718341350555;0.14152278006076813;0.0012634035665541887
-0.0825653076171875;-0.1546173095703125;-0.953582763671875;-0.16177718341350555;0.14152278006076813;0.0012634035665541887
-0.0825653076171875;-0.1546173095703125;-0.953582763671875;-0.16177718341350555;0.14152278006076813;0.0012634035665541887
-0.0825653076171875;-0.1546173095703125;-0.953582763671875;-0.16177718341350555;0.14152278006076813;0.0012634035665541887
-0.0825653076171875;-0.1546173095703125;-0.953582763671875;-0.20403888821601868;0.07776989787817001;0.0010365023044869304
-0.076385498046875;-0.153411865234375;-0.96453857421875;-0.20403888821601868;0.07776989787817001;0.0010365023044869304
-0.076385498046875;-0.153411865234375;-0.96453857421875;-0.20403888821601868;0.07776989787817001;0.0010365023044869304
-0.076385498046875;-0.153411865234375;-0.96453857421875;-0.20403888821601868;0.07776989787817001;0.0010365023044869304
-0.076385498046875;-0.153411865234375;-0.96453857421875;-0.20403888821601868;0.07776989787817001;0.0010365023044869304
-0.076385498046875;-0.153411865234375;-0.96453857421875;-0.21203795075416565;0.0024229439441114664;0.0021257351618260145
-0.072021484375;-0.152252197265625;-0.98187255859375;-0.21203795075416565;0.0024229439441114664;0.0021257351618260145
-0.072021484375;-0.152252197265625;-0.98187255859375;-0.21203795075416565;0.0024229439441114664;0.0021257351618260145
-0.072021484375;-0.152252197265625;-0.98187255859375;-0.21203795075416565;0.0024229439441114664;0.0021257351618260145
-0.072021484375;-0.152252197265625;-0.98187255859375;-0.21203795075416565;0.0024229439441114664;0.0021257351618260145
-0.072021484375;-0.152252197265625;-0.98187255859375;-0.193067729473114;-0.05032255873084068;0.0031931300181895494
-0.070526123046875;-0.15087890625;-0.9977569580078125;-0.193067729473114;-0.05032255873084068;0.0031931300181895494
-0.070526123046875;-0.15087890625;-0.9977569580078125;-0.193067729473114;-0.05032255873084068;0.0031931300181895494
-0.070526123046875;-0.15087890625;-0.9977569580078125;-0.193067729473114;-0.05032255873084068;0.0031931300181895494
-0.070526123046875;-0.15087890625;-0.9977569580078125;-0.193067729473114;-0.05032255873084068;0.0031931300181895494
-0.070526123046875;-0.15087890625;-0.9977569580078125;-0.14667625725269318;-0.07108642905950546;0.0030687605030834675
-0.072265625;-0.1482391357421875;-1.0118865966796875;-0.14667625725269318;-0.07108642905950546;0.0030687605030834675
-0.072265625;-0.1482391357421875;-1.0118865966796875;-0.14667625725269318;-0.07108642905950546;0.0030687605030834675
-0.072265625;-0.1482391357421875;-1.0118865966796875;-0.14667625725269318;-0.07108642905950546;0.0030687605030834675
-0.072265625;-0.1482391357421875;-1.0118865966796875;-0.14667625725269318;-0.07108642905950546;0.0030687605030834675
-0.072265625;-0.1482391357421875;-1.0118865966796875;-0.08587709069252014;-0.04695472493767738;0.004289287142455578
-0.07403564453125;-0.1468505859375;-1.0217742919921875;-0.08587709069252014;-0.04695472493767738;0.004289287142455578
-0.07403564453125;-0.1468505859375;-1.0217742919921875;-0.08587709069252014;-0.04695472493767738;0.004289287142455578
-0.07403564453125;-0.1468505859375;-1.0217742919921875;-0.08587709069252014;-0.04695472493767738;0.004289287142455578
-0.07403564453125;-0.1468505859375;-1.0217742919921875;-0.08587709069252014;-0.04695472493767738;0.004289287142455578
-0.07403564453125;-0.1468505859375;-1.0217742919921875;-0.02803376503288746;-0.005402754992246628;0.0004569984448608011
-0.0770111083984375;-0.1459808349609375;-1.0243682861328125;-0.02803376503288746;-0.005402754992246628;0.0004569984448608011
-0.0770111083984375;-0.1459808349609375;-1.0243682861328125;-0.02803376503288746;-0.005402754992246628;0.0004569984448608011
-0.0770111083984375;-0.1459808349609375;-1.0243682861328125;-0.02803376503288746;-0.005402754992246628;0.0004569984448608011
-0.0770111083984375;-0.1459808349609375;-1.0243682861328125;-0.02803376503288746;-0.005402754992246628;0.0004569984448608011
-0.0770111083984375;-0.1459808349609375;-1.0243682861328125;0.011885154992341995;0.05228397622704506;0.0021435783710330725
-0.0785064697265625;-0.1473846435546875;-1.02069091796875;0.011885154992341995;0.05228397622704506;0.0021435783710330725
-0.0785064697265625;-0.1473846435546875;-1.02069091796875;0.011885154992341995;0.05228397622704506;0.0021435783710330725
-0.0785064697265625;-0.1473846435546875;-1.02069091796875;0.011885154992341995;0.05228397622704506;0.0021435783710330725
-0.0785064697265625;-0.1473846435546875;-1.02069091796875;0.011885154992341995;0.05228397622704506;0.0021435783710330725
-0.0785064697265625;-0.1473846435546875;-1.02069091796875;0.028391694650053978;0.09970741719007492;-0.006907973438501358
-0.077880859375;-0.15008544921875;-1.0141143798828125;0.028391694650053978;0.09970741719007492;-0.006907973438501358
-0.077880859375;-0.15008544921875;-1.0141143798828125;0.028391694650053978;0.09970741719007492;-0.006907973438501358
-0.077880859375;-0.15008544921875;-1.0141143798828125;0.028391694650053978;0.09970741719007492;-0.006907973438501358
-0.077880859375;-0.15008544921875;-1.0141143798828125;0.028391694650053978;0.09970741719007492;-0.006907973438501358
-0.077880859375;-0.15008544921875;-1.0141143798828125;0.02159557305276394;0.12875264883041382;-0.003967577591538429
-0.077606201171875;-0.152313232421875;-1.00543212890625;0.02159557305276394;0.12875264883041382;-0.003967577591538429
-0.077606201171875;-0.152313232421875;-1.00543212890625;0.02159557305276394;0.12875264883041382;-0.003967577591538429
-0.077606201171875;-0.152313232421875;-1.00543212890625;0.02159557305276394;0.12875264883041382;-0.003967577591538429
-0.077606201171875;-0.152313232421875;-1.00543212890625;0.02159557305276394;0.12875264883041382;-0.003967577591538429
-0.077606201171875;-0.152313232421875;-1.00543212890625;-0.0038599856197834015;0.1427885740995407;-0.004036819562315941
-0.0745391845703125;-0.1540069580078125;-1.000244140625;-0.0038599856197834015;0.1427885740995407;-0.004036819562315941
-0.0745391845703125;-0.1540069580078125;-1.000244140625;-0.0038599856197834015;0.1427885740995407;-0.004036819562315941
-0.0745391845703125;-0.1540069580078125;-1.000244140625;-0.0038599856197834015;0.1427885740995407;-0.004036819562315941
-0.0745391845703125;-0.1540069580078125;-1.000244140625;-0.0038599856197834015;0.1427885740995407;-0.004036819562315941
-0.0745391845703125;-0.1540069580078125;-1.000244140625;-0.0385199598968029;0.13875095546245575;-0.005206213798373938
-0.071868896484375;-0.1538848876953125;-0.998565673828125;-0.0385199598968029;0.13875095546245575;-0.005206213798373938
-0.071868896484375;-0.1538848876953125;-0.998565673828125;-0.0385199598968029;0.13875095546245575;-0.005206213798373938
-0.071868896484375;-0.1538848876953125;-0.998565673828125;-0.0385199598968029;0.13875095546245575;-0.005206213798373938
-0.071868896484375;-0.1538848876953125;-0.998565673828125;-0.0385199598968029;0.13875095546245575;-0.005206213798373938
-0.071868896484375;-0.1538848876953125;-0.998565673828125;-0.07249097526073456;0.12882402539253235;-0.0032676986884325743
-0.0679168701171875;-0.1525421142578125;-0.9974822998046875;-0.07249097526073456;0.12882402539253235;-0.0032676986884325743
-0.0679168701171875;-0.1525421142578125;-0.9974822998046875;-0.07249097526073456;0.12882402539253235;-0.0032676986884325743
-0.0679168701171875;-0.1525421142578125;-0.9974822998046875;-0.07249097526073456;0.12882402539253235;-0.0032676986884325743
-0.0679168701171875;-0.1525421142578125;-0.9974822998046875;-0.07249097526073456;0.12882402539253235;-0.0032676986884325743
-0.0679168701171875;-0.1525421142578125;-0.9974822998046875;-0.10550325363874435;0.11493297666311264;-0.00042770366417244077
-0.0650787353515625;-0.1512451171875;-0.998779296875;-0.10550325363874435;0.11493297666311264;-0.00042770366417244077
-0.0650787353515625;-0.1512451171875;-0.998779296875;-0.10550325363874435;0.11493297666311264;-0.00042770366417244077
-0.0650787353515625;-0.1512451171875;-0.998779296875;-0.10550325363874435;0.11493297666311264;-0.00042770366417244077
-0.0650787353515625;-0.1512451171875;-0.998779296875;-0.10550325363874435;0.11493297666311264;-0.00042770366417244077
-0.0650787353515625;-0.1512451171875;-0.998779296875;-0.13457219302654266;0.10341320931911469;-0.0026967169251292944
-0.0637664794921875;-0.14813232421875;-0.9979705810546875;-0.13457219302654266;0.10341320931911469;-0.0026967169251292944
-0.0637664794921875;-0.14813232421875;-0.9979705810546875;-0.13457219302654266;0.10341320931911469;-0.0026967169251292944
-0.0637664794921875;-0.14813232421875;-0.9979705810546875;-0.13457219302654266;0.10341320931911469;-0.0026967169251292944
-0.0637664794921875;-0.14813232421875;-0.9979705810546875;-0.13457219302654266;0.10341320931911469;-0.0026967169251292944
-0.0637664794921875;-0.14813232421875;-0.9979705810546875;-0.15409822762012482;0.09501492977142334;-0.0012357067316770554
-0.0635223388671875;-0.1443328857421875;-0.998382568359375;-0.15409822762012482;0.09501492977142334;-0.0012357067316770554
-0.0635223388671875;-0.1443328857421875;-0.998382568359375;-0.15409822762012482;0.09501492977142334;-0.0012357067316770554
-0.0635223388671875;-0.1443328857421875;-0.998382568359375;-0.15409822762012482;0.09501492977142334;-0.0012357067316770554
-0.0635223388671875;-0.1443328857421875;-0.998382568359375;-0.15409822762012482;0.09501492977142334;-0.0012357067316770554
-0.0635223388671875;-0.1443328857421875;-0.998382568359375;-0.16300223767757416;0.08747552335262299;-0.002445314545184374
-0.064117431640625;-0.1402587890625;-0.997802734375;-0.16300223767757416;0.08747552335262299;-0.002445314545184374
-0.064117431640625;-0.1402587890625;-0.997802734375;-0.16300223767757416;0.08747552335262299;-0.002445314545184374
-0.064117431640625;-0.1402587890625;-0.997802734375;-0.16300223767757416;0.08747552335262299;-0.002445314545184374
-0.064117431640625;-0.1402587890625;-0.997802734375;-0.16300223767757416;0.08747552335262299;-0.002445314545184374
-0.064117431640625;-0.1402587890625;-0.997802734375;-0.16997039318084717;0.07577545195817947;-0.0035803536884486675
-0.0634307861328125;-0.135894775390625;-0.9995880126953125;-0.16997039318084717;0.07577545195817947;-0.0035803536884486675
-0.0634307861328125;-0.135894775390625;-0.9995880126953125;-0.16997039318084717;0.07577545195817947;-0.0035803536884486675
-0.0634307861328125;-0.135894775390625;-0.9995880126953125;-0.16997039318084717;0.07577545195817947;-0.0035803536884486675
-0.0634307861328125;-0.135894775390625;-0.9995880126953125;-0.16997039318084717;0.07577545195817947;-0.0035803536884486675
-0.0634307861328125;-0.135894775390625;-0.9995880126953125;-0.16706648468971252;0.06279680877923965;0.0008269115351140499
-0.0631256103515625;-0.1319427490234375;-1.0009765625;-0.16706648468971252;0.06279680877923965;0.0008269115351140499
-0.0631256103515625;-0.1319427490234375;-1.0009765625;-0.16706648468971252;0.06279680877923965;0.0008269115351140499
-0.0631256103515625;-0.1319427490234375;-1.0009765625;-0.16706648468971252;0.06279680877923965;0.0008269115351140499
-0.0631256103515625;-0.1319427490234375;-1.0009765625;-0.16706648468971252;0.06279680877923965;0.0008269115351140499
-0.0631256103515625;-0.1319427490234375;-1.0009765625;-0.14877402782440186;0.04525402933359146;0.0006511429091915488
-0.063751220703125;-0.1284027099609375;-1.0041046142578125;-0.14877402782440186;0.04525402933359146;0.0006511429091915488
-0.063751220703125;-0.1284027099609375;-1.0041046142578125;-0.14877402782440186;0.04525402933359146;0.0006511429091915488
-0.063751220703125;-0.1284027099609375;-1.0041046142578125;-0.14877402782440186;0.04525402933359146;0.0006511429091915488
-0.063751220703125;-0.1284027099609375;-1.0041046142578125;-0.14877402782440186;0.04525402933359146;0.0006511429091915488
-0.063751220703125;-0.1284027099609375;-1.0041046142578125;-0.1290661096572876;0.033663686364889145;0.0026762105990201235
-0.0626220703125;-0.1267242431640625;-1.0052947998046875;-0.1290661096572876;0.033663686364889145;0.0026762105990201235
-0.0626220703125;-0.1267242431640625;-1.0052947998046875;-0.1290661096572876;0.033663686364889145;0.0026762105990201235
-0.0626220703125;-0.1267242431640625;-1.0052947998046875;-0.1290661096572876;0.033663686364889145;0.0026762105990201235
-0.0626220703125;-0.1267242431640625;-1.0052947998046875;-0.1290661096572876;0.033663686364889145;0.0026762105990201235
-0.0626220703125;-0.1267242431640625;-1.0052947998046875;-0.10576318204402924;0.023089073598384857;0.006447779480367899
-0.0630035400390625;-0.124786376953125;-1.0069732666015625;-0.10576318204402924;0.023089073598384857;0.006447779480367899
-0.0630035400390625;-0.124786376953125;-1.0069732666015625;-0.10576318204402924;0.023089073598384857;0.006447779480367899
-0.0630035400390625;-0.124786376953125;-1.0069732666015625;-0.10576318204402924;0.023089073598384857;0.006447779480367899
-0.0630035400390625;-0.124786376953125;-1.0069732666015625;-0.10576318204402924;0.023089073598384857;0.006447779480367899
-0.0630035400390625;-0.124786376953125;-1.0069732666015625;-0.08019310981035233;0.018556639552116394;0.008727977983653545
-0.0626678466796875;-0.1246490478515625;-1.00592041015625;-0.08019310981035233;0.018556639552116394;0.008727977983653545
-0.0626678466796875;-0.1246490478515625;-1.00592041015625;-0.08019310981035233;0.018556639552116394;0.008727977983653545
-0.0626678466796875;-0.1246490478515625;-1.00592041015625;-0.08019310981035233;0.018556639552116394;0.008727977983653545
-0.0626678466796875;-0.1246490478515625;-1.00592041015625;-0.08019310981035233;0.018556639552116394;0.008727977983653545
-0.0626678466796875;-0.1246490478515625;-1.00592041015625;-0.06385914236307144;0.007232346571981907;0.012636699713766575
-0.062530517578125;-0.124847412109375;-1.0056304931640625;-0.06385914236307144;0.007232346571981907;0.012636699713766575
-0.062530517578125;-0.124847412109375;-1.0056304931640625;-0.06385914236307144;0.007232346571981907;0.012636699713766575
-0.062530517578125;-0.124847412109375;-1.0056304931640625;-0.06385914236307144;0.007232346571981907;0.012636699713766575
-0.062530517578125;-0.124847412109375;-1.0056304931640625;-0.06385914236307144;0.007232346571981907;0.012636699713766575
-0.062530517578125;-0.124847412109375;-1.0056304931640625;-0.050042394548654556;0.005423794034868479;0.01257890835404396
-0.0613250732421875;-0.1265869140625;-1.001739501953125;-0.050042394548654556;0.005423794034868479;0.01257890835404396
-0.0613250732421875;-0.1265869140625;-1.001739501953125;-0.050042394548654556;0.005423794034868479;0.01257890835404396
-0.0613250732421875;-0.1265869140625;-1.001739501953125;-0.050042394548654556;0.005423794034868479;0.01257890835404396
-0.0613250732421875;-0.1265869140625;-1.001739501953125;-0.050042394548654556;0.005423794034868479;0.01257890835404396
-0.0613250732421875;-0.1265869140625;-1.001739501953125;-0.03899214044213295;-0.0006676545017398894;0.01341487467288971
-0.0612945556640625;-0.1275177001953125;-0.9957122802734375;-0.03899214044213295;-0.0006676545017398894;0.01341487467288971
-0.0612945556640625;-0.1275177001953125;-0.9957122802734375;-0.03899214044213295;-0.0006676545017398894;0.01341487467288971
-0.0612945556640625;-0.1275177001953125;-0.9957122802734375;-0.03899214044213295;-0.0006676545017398894;0.01341487467288971
-0.0612945556640625;-0.1275177001953125;-0.9957122802734375;-0.03899214044213295;-0.0006676545017398894;0.01341487467288971
-0.0612945556640625;-0.1275177001953125;-0.9957122802734375;-0.023959927260875702;-0.005480785388499498;0.006911169271916151
-0.065338134765625;-0.12982177734375;-0.998809814453125;-0.023959927260875702;-0.005480785388499498;0.006911169271916151
-0.065338134765625;-0.12982177734375;-0.998809814453125;-0.023959927260875702;-0.005480785388499498;0.006911169271916151
-0.065338134765625;-0.12982177734375;-0.998809814453125;-0.023959927260875702;-0.005480785388499498;0.006911169271916151
-0.065338134765625;-0.12982177734375;-0.998809814453125;-0.0014330470003187656;-0.0351950041949749;0.004180097486823797
-0.0679473876953125;-0.1315765380859375;-1.0105743408203125;-0.0014330470003187656;-0.0351950041949749;0.004180097486823797
-0.0679473876953125;-0.1315765380859375;-1.0105743408203125;-0.0014330470003187656;-0.0351950041949749;0.004180097486823797
-0.0679473876953125;-0.1315765380859375;-1.0105743408203125;-0.0014330470003187656;-0.0351950041949749;0.004180097486823797
-0.0679473876953125;-0.1315765380859375;-1.0105743408203125;-0.0014330470003187656;-0.0351950041949749;0.004180097486823797
-0.0679473876953125;-0.1315765380859375;-1.0105743408203125;0.02370266616344452;-0.05696634575724602;0.0032959282398223877
-0.06817626953125;-0.1330718994140625;-1.021942138671875;0.02370266616344452;-0.05696634575724602;0.0032959282398223877
-0.06817626953125;-0.1330718994140625;-1.021942138671875;0.02370266616344452;-0.05696634575724602;0.0032959282398223877
-0.06817626953125;-0.1330718994140625;-1.021942138671875;0.02370266616344452;-0.05696634575724602;0.0032959282398223877
-0.06817626953125;-0.1330718994140625;-1.021942138671875;0.02370266616344452;-0.05696634575724602;0.0032959282398223877
