Acell X;Acell Y;Acell Z;Gyro X;Gyro Y;Gyro Z

-0.0806884765625;-0.1655120849609375;-1.0470428466796875;-0.09414061158895493;0.02467525191605091;-0.005948436446487904
-0.0673828125;-0.1691436767578125;-1.0120697021484375;-0.08523926138877869;0.046125151216983795;-0.005086903925985098
-0.0673828125;-0.1691436767578125;-1.0120697021484375;-0.08523926138877869;0.046125151216983795;-0.005086903925985098
-0.0673828125;-0.1691436767578125;-1.0120697021484375;-0.08523926138877869;0.046125151216983795;-0.005086903925985098
-0.073272705078125;-0.1949920654296875;-0.9788665771484375;-0.0892752856016159;0.07079534232616425;0.002567020943388343
-0.073272705078125;-0.1949920654296875;-0.9788665771484375;-0.0892752856016159;0.07079534232616425;0.002567020943388343
-0.073272705078125;-0.1949920654296875;-0.9788665771484375;-0.0892752856016159;0.07079534232616425;0.002567020943388343
-0.073272705078125;-0.1949920654296875;-0.9788665771484375;-0.0892752856016159;0.07079534232616425;0.002567020943388343
-0.073272705078125;-0.1949920654296875;-0.9788665771484375;-0.1012728214263916;0.08261951059103012;0.0046850331127643585
-0.071868896484375;-0.1940765380859375;-0.9653778076171875;-0.1012728214263916;0.08261951059103012;0.0046850331127643585
-0.071868896484375;-0.1940765380859375;-0.9653778076171875;-0.1012728214263916;0.08261951059103012;0.0046850331127643585
-0.071868896484375;-0.1940765380859375;-0.9653778076171875;-0.1012728214263916;0.08261951059103012;0.0046850331127643585
-0.071868896484375;-0.1940765380859375;-0.9653778076171875;-0.1012728214263916;0.08261951059103012;0.0046850331127643585
-0.0698699951171875;-0.1902008056640625;-0.9658355712890625;-0.1170419305562973;0.08125171065330505;0.005675995256751776
-0.0698699951171875;-0.1902008056640625;-0.9658355712890625;-0.1170419305562973;0.08125171065330505;0.005675995256751776
-0.0698699951171875;-0.1902008056640625;-0.9658355712890625;-0.1170419305562973;0.08125171065330505;0.005675995256751776
-0.0698699951171875;-0.1902008056640625;-0.9658355712890625;-0.1170419305562973;0.08125171065330505;0.005675995256751776
-0.0698699951171875;-0.1902008056640625;-0.9658355712890625;-0.1170419305562973;0.08125171065330505;0.005675995256751776
-0.0666351318359375;-0.1883697509765625;-0.9723968505859375;-0.12257278710603714;0.06744934618473053;0.009862750768661499
-0.0666351318359375;-0.1883697509765625;-0.9723968505859375;-0.12257278710603714;0.06744934618473053;0.009862750768661499
-0.0666351318359375;-0.1883697509765625;-0.9723968505859375;-0.12257278710603714;0.06744934618473053;0.009862750768661499
-0.0666351318359375;-0.1883697509765625;-0.9723968505859375;-0.12257278710603714;0.06744934618473053;0.009862750768661499
-0.0666351318359375;-0.1883697509765625;-0.9723968505859375;-0.12257278710603714;0.06744934618473053;0.009862750768661499
-0.0666351318359375;-0.1883697509765625;-0.9723968505859375;-0.1244087740778923;0.03875778242945671;0.009928797371685505
-0.0660552978515625;-0.184539794921875;-0.980712890625;-0.1244087740778923;0.03875778242945671;0.009928797371685505
-0.0660552978515625;-0.184539794921875;-0.980712890625;-0.1244087740778923;0.03875778242945671;0.009928797371685505
-0.0660552978515625;-0.184539794921875;-0.980712890625;-0.1244087740778923;0.03875778242945671;0.009928797371685505
-0.0660552978515625;-0.184539794921875;-0.980712890625;-0.1244087740778923;0.03875778242945671;0.009928797371685505
-0.0665130615234375;-0.1803131103515625;-0.9860992431640625;-0.11737669259309769;0.013224725611507893;0.009726396761834621
-0.0665130615234375;-0.1803131103515625;-0.9860992431640625;-0.11737669259309769;0.013224725611507893;0.009726396761834621
-0.0665130615234375;-0.1803131103515625;-0.9860992431640625;-0.11737669259309769;0.013224725611507893;0.009726396761834621
-0.0665130615234375;-0.1803131103515625;-0.9860992431640625;-0.11737669259309769;0.013224725611507893;0.009726396761834621
-0.0665130615234375;-0.1803131103515625;-0.9860992431640625;-0.11737669259309769;0.013224725611507893;0.009726396761834621
-0.0680694580078125;-0.17596435546875;-0.9910125732421875;-0.10182595998048782;-0.015060708858072758;0.010027600452303886
-0.0680694580078125;-0.17596435546875;-0.9910125732421875;-0.10182595998048782;-0.015060708858072758;0.010027600452303886
-0.0680694580078125;-0.17596435546875;-0.9910125732421875;-0.10182595998048782;-0.015060708858072758;0.010027600452303886
-0.0680694580078125;-0.17596435546875;-0.9910125732421875;-0.10182595998048782;-0.015060708858072758;0.010027600452303886
-0.0680694580078125;-0.17596435546875;-0.9910125732421875;-0.10182595998048782;-0.015060708858072758;0.010027600452303886
-0.0682830810546875;-0.1723480224609375;-0.9933013916015625;-0.07921519130468369;-0.024154605343937874;0.011826032772660255
-0.0682830810546875;-0.1723480224609375;-0.9933013916015625;-0.07921519130468369;-0.024154605343937874;0.011826032772660255
-0.0682830810546875;-0.1723480224609375;-0.9933013916015625;-0.07921519130468369;-0.024154605343937874;0.011826032772660255
-0.0682830810546875;-0.1723480224609375;-0.9933013916015625;-0.07921519130468369;-0.024154605343937874;0.011826032772660255
-0.0682830810546875;-0.1723480224609375;-0.9933013916015625;-0.07921519130468369;-0.024154605343937874;0.011826032772660255
-0.0678253173828125;-0.16802978515625;-0.9953765869140625;-0.046787213534116745;-0.033303894102573395;0.01392886508256197
-0.0678253173828125;-0.16802978515625;-0.9953765869140625;-0.046787213534116745;-0.033303894102573395;0.01392886508256197
-0.0678253173828125;-0.16802978515625;-0.9953765869140625;-0.046787213534116745;-0.033303894102573395;0.01392886508256197
-0.0678253173828125;-0.16802978515625;-0.9953765869140625;-0.046787213534116745;-0.033303894102573395;0.01392886508256197
-0.0678253173828125;-0.16802978515625;-0.9953765869140625;-0.046787213534116745;-0.033303894102573395;0.01392886508256197
-0.068389892578125;-0.1649322509765625;-0.99993896484375;-0.01739177294075489;-0.036063726991415024;0.013392237946391106
-0.068389892578125;-0.1649322509765625;-0.99993896484375;-0.01739177294075489;-0.036063726991415024;0.013392237946391106
-0.068389892578125;-0.1649322509765625;-0.99993896484375;-0.01739177294075489;-0.036063726991415024;0.013392237946391106
-0.068389892578125;-0.1649322509765625;-0.99993896484375;-0.01739177294075489;-0.036063726991415024;0.013392237946391106
-0.068389892578125;-0.1649322509765625;-0.99993896484375;-0.01739177294075489;-0.036063726991415024;0.013392237946391106
-0.0682525634765625;-0.16278076171875;-1.004669189453125;0.012892096303403378;-0.025833461433649063;0.017968347296118736
-0.0682525634765625;-0.16278076171875;-1.004669189453125;0.012892096303403378;-0.025833461433649063;0.017968347296118736
-0.0682525634765625;-0.16278076171875;-1.004669189453125;0.012892096303403378;-0.025833461433649063;0.017968347296118736
-0.0682525634765625;-0.16278076171875;-1.004669189453125;0.012892096303403378;-0.025833461433649063;0.017968347296118736
-0.0682525634765625;-0.16278076171875;-1.004669189453125;0.012892096303403378;-0.025833461433649063;0.017968347296118736
-0.0689849853515625;-0.1627960205078125;-1.0078582763671875;0.03593030571937561;-0.020024042576551437;0.01890205219388008
-0.0689849853515625;-0.1627960205078125;-1.0078582763671875;0.03593030571937561;-0.020024042576551437;0.01890205219388008
-0.0689849853515625;-0.1627960205078125;-1.0078582763671875;0.03593030571937561;-0.020024042576551437;0.01890205219388008
-0.0689849853515625;-0.1627960205078125;-1.0078582763671875;0.03593030571937561;-0.020024042576551437;0.01890205219388008
-0.0689849853515625;-0.1627960205078125;-1.0078582763671875;0.03593030571937561;-0.020024042576551437;0.01890205219388008
-0.0694427490234375;-0.1645660400390625;-1.00701904296875;0.0488588847219944;-0.011098990216851234;0.020593425258994102
-0.0694427490234375;-0.1645660400390625;-1.00701904296875;0.0488588847219944;-0.011098990216851234;0.020593425258994102
-0.0694427490234375;-0.1645660400390625;-1.00701904296875;0.0488588847219944;-0.011098990216851234;0.020593425258994102
-0.0694427490234375;-0.1645660400390625;-1.00701904296875;0.0488588847219944;-0.011098990216851234;0.020593425258994102
-0.0694427490234375;-0.1645660400390625;-1.00701904296875;0.0488588847219944;-0.011098990216851234;0.020593425258994102
-0.0712432861328125;-0.1674652099609375;-1.00384521484375;0.046715572476387024;0.005848567932844162;0.018579808995127678
-0.0712432861328125;-0.1674652099609375;-1.00384521484375;0.046715572476387024;0.005848567932844162;0.018579808995127678
-0.0712432861328125;-0.1674652099609375;-1.00384521484375;0.046715572476387024;0.005848567932844162;0.018579808995127678
-0.0712432861328125;-0.1674652099609375;-1.00384521484375;0.046715572476387024;0.005848567932844162;0.018579808995127678
-0.0712432861328125;-0.1674652099609375;-1.00384521484375;0.046715572476387024;0.005848567932844162;0.018579808995127678
-0.0720062255859375;-0.1702423095703125;-1.001129150390625;0.03191665560007095;0.01452834252268076;0.01679416000843048
-0.0720062255859375;-0.1702423095703125;-1.001129150390625;0.03191665560007095;0.01452834252268076;0.01679416000843048
-0.0720062255859375;-0.1702423095703125;-1.001129150390625;0.03191665560007095;0.01452834252268076;0.01679416000843048
-0.0720062255859375;-0.1702423095703125;-1.001129150390625;0.03191665560007095;0.01452834252268076;0.01679416000843048
-0.0720062255859375;-0.1702423095703125;-1.001129150390625;0.03191665560007095;0.01452834252268076;0.01679416000843048
-0.0727386474609375;-0.1745758056640625;-0.99688720703125;0.007733819540590048;0.01906956546008587;0.018456239253282547
-0.0727386474609375;-0.1745758056640625;-0.99688720703125;0.007733819540590048;0.01906956546008587;0.018456239253282547
-0.0727386474609375;-0.1745758056640625;-0.99688720703125;0.007733819540590048;0.01906956546008587;0.018456239253282547
-0.0727386474609375;-0.1745758056640625;-0.99688720703125;0.007733819540590048;0.01906956546008587;0.018456239253282547
-0.0727386474609375;-0.1745758056640625;-0.99688720703125;0.007733819540590048;0.01906956546008587;0.018456239253282547
-0.0733184814453125;-0.1762847900390625;-0.99359130859375;-0.018756909295916557;0.02088450826704502;0.015470302663743496
-0.0733184814453125;-0.1762847900390625;-0.99359130859375;-0.018756909295916557;0.02088450826704502;0.015470302663743496
-0.0733184814453125;-0.1762847900390625;-0.99359130859375;-0.018756909295916557;0.02088450826704502;0.015470302663743496
-0.0733184814453125;-0.1762847900390625;-0.99359130859375;-0.018756909295916557;0.02088450826704502;0.015470302663743496
-0.0733184814453125;-0.1762847900390625;-0.99359130859375;-0.018756909295916557;0.02088450826704502;0.015470302663743496
-0.072784423828125;-0.179107666015625;-0.992919921875;-0.042642269283533096;0.014243650250136852;0.01452701073139906
-0.072784423828125;-0.179107666015625;-0.992919921875;-0.042642269283533096;0.014243650250136852;0.01452701073139906
-0.072784423828125;-0.179107666015625;-0.992919921875;-0.042642269283533096;0.014243650250136852;0.01452701073139906
-0.072784423828125;-0.179107666015625;-0.992919921875;-0.042642269283533096;0.014243650250136852;0.01452701073139906
-0.072784423828125;-0.179107666015625;-0.992919921875;-0.042642269283533096;0.014243650250136852;0.01452701073139906
-0.0711822509765625;-0.18011474609375;-0.9936370849609375;-0.06096241995692253;0.013432185165584087;0.014868960715830326
-0.0711822509765625;-0.18011474609375;-0.9936370849609375;-0.06096241995692253;0.013432185165584087;0.014868960715830326
-0.0711822509765625;-0.18011474609375;-0.9936370849609375;-0.06096241995692253;0.013432185165584087;0.014868960715830326
-0.0711822509765625;-0.18011474609375;-0.9936370849609375;-0.06096241995692253;0.013432185165584087;0.014868960715830326
-0.0711822509765625;-0.18011474609375;-0.9936370849609375;-0.06096241995692253;0.013432185165584087;0.014868960715830326
-0.0702362060546875;-0.1792449951171875;-0.9952545166015625;-0.06863951683044434;0.011231082491576672;0.012835371308028698
-0.0702362060546875;-0.1792449951171875;-0.9952545166015625;-0.06863951683044434;0.011231082491576672;0.012835371308028698
-0.0702362060546875;-0.1792449951171875;-0.9952545166015625;-0.06863951683044434;0.011231082491576672;0.012835371308028698
-0.0702362060546875;-0.1792449951171875;-0.9952545166015625;-0.06863951683044434;0.011231082491576672;0.012835371308028698
-0.0702362060546875;-0.1792449951171875;-0.9952545166015625;-0.06863951683044434;0.011231082491576672;0.012835371308028698
-0.06988525390625;-0.1773834228515625;-0.9972076416015625;-0.0720992237329483;0.008770056068897247;0.009555421769618988
-0.06988525390625;-0.1773834228515625;-0.9972076416015625;-0.0720992237329483;0.008770056068897247;0.009555421769618988
-0.06988525390625;-0.1773834228515625;-0.9972076416015625;-0.0720992237329483;0.008770056068897247;0.009555421769618988
-0.06988525390625;-0.1773834228515625;-0.9972076416015625;-0.0720992237329483;0.008770056068897247;0.009555421769618988
-0.06988525390625;-0.1773834228515625;-0.9972076416015625;-0.0720992237329483;0.008770056068897247;0.009555421769618988
-0.070770263671875;-0.1757659912109375;-0.998443603515625;-0.07313359528779984;0.010223875753581524;0.007962052710354328
-0.070770263671875;-0.1757659912109375;-0.998443603515625;-0.07313359528779984;0.010223875753581524;0.007962052710354328
-0.070770263671875;-0.1757659912109375;-0.998443603515625;-0.07313359528779984;0.010223875753581524;0.007962052710354328
-0.070770263671875;-0.1757659912109375;-0.998443603515625;-0.07313359528779984;0.010223875753581524;0.007962052710354328
-0.070770263671875;-0.1757659912109375;-0.998443603515625;-0.07313359528779984;0.010223875753581524;0.007962052710354328
-0.0715179443359375;-0.1735687255859375;-0.998260498046875;-0.06900995969772339;0.014633270911872387;0.005621666554361582
-0.0715179443359375;-0.1735687255859375;-0.998260498046875;-0.06900995969772339;0.014633270911872387;0.005621666554361582
-0.0715179443359375;-0.1735687255859375;-0.998260498046875;-0.06900995969772339;0.014633270911872387;0.005621666554361582
-0.0715179443359375;-0.1735687255859375;-0.998260498046875;-0.06900995969772339;0.014633270911872387;0.005621666554361582
-0.0715179443359375;-0.1735687255859375;-0.998260498046875;-0.06900995969772339;0.014633270911872387;0.005621666554361582
-0.07159423828125;-0.1727294921875;-0.9976654052734375;-0.05759485438466072;0.017197096720337868;0.001454618526622653
-0.07159423828125;-0.1727294921875;-0.9976654052734375;-0.05759485438466072;0.017197096720337868;0.001454618526622653
-0.07159423828125;-0.1727294921875;-0.9976654052734375;-0.05759485438466072;0.017197096720337868;0.001454618526622653
-0.07159423828125;-0.1727294921875;-0.9976654052734375;-0.05759485438466072;0.017197096720337868;0.001454618526622653
-0.07159423828125;-0.1727294921875;-0.9976654052734375;-0.05759485438466072;0.017197096720337868;0.001454618526622653
-0.0705718994140625;-0.1704864501953125;-0.998443603515625;-0.047929175198078156;0.016334498301148415;-0.001312405802309513
-0.0705718994140625;-0.1704864501953125;-0.998443603515625;-0.047929175198078156;0.016334498301148415;-0.001312405802309513
-0.0705718994140625;-0.1704864501953125;-0.998443603515625;-0.047929175198078156;0.016334498301148415;-0.001312405802309513
-0.0705718994140625;-0.1704864501953125;-0.998443603515625;-0.047929175198078156;0.016334498301148415;-0.001312405802309513
-0.0705718994140625;-0.1704864501953125;-0.998443603515625;-0.047929175198078156;0.016334498301148415;-0.001312405802309513
-0.069732666015625;-0.1692962646484375;-1.000274658203125;-0.03269562870264053;0.014195447787642479;-0.0026881948579102755
-0.069732666015625;-0.1692962646484375;-1.000274658203125;-0.03269562870264053;0.014195447787642479;-0.0026881948579102755
-0.069732666015625;-0.1692962646484375;-1.000274658203125;-0.03269562870264053;0.014195447787642479;-0.0026881948579102755
-0.069732666015625;-0.1692962646484375;-1.000274658203125;-0.03269562870264053;0.014195447787642479;-0.0026881948579102755
-0.069732666015625;-0.1692962646484375;-1.000274658203125;-0.03269562870264053;0.014195447787642479;-0.0026881948579102755
-0.0677947998046875;-0.1686553955078125;-1.002960205078125;-0.01709589548408985;0.002978213131427765;-0.0016189356101676822
-0.0677947998046875;-0.1686553955078125;-1.002960205078125;-0.01709589548408985;0.002978213131427765;-0.0016189356101676822
-0.0677947998046875;-0.1686553955078125;-1.002960205078125;-0.01709589548408985;0.002978213131427765;-0.0016189356101676822
-0.0677947998046875;-0.1686553955078125;-1.002960205078125;-0.01709589548408985;0.002978213131427765;-0.0016189356101676822
-0.0677947998046875;-0.1686553955078125;-1.002960205078125;-0.01709589548408985;0.002978213131427765;-0.0016189356101676822
-0.06756591796875;-0.16851806640625;-1.004852294921875;-0.0029318740125745535;-0.008551410399377346;-0.004366518929600716
-0.06756591796875;-0.16851806640625;-1.004852294921875;-0.0029318740125745535;-0.008551410399377346;-0.004366518929600716
-0.06756591796875;-0.16851806640625;-1.004852294921875;-0.0029318740125745535;-0.008551410399377346;-0.004366518929600716
-0.06756591796875;-0.16851806640625;-1.004852294921875;-0.0029318740125745535;-0.008551410399377346;-0.004366518929600716
-0.06756591796875;-0.16851806640625;-1.004852294921875;-0.0029318740125745535;-0.008551410399377346;-0.004366518929600716
-0.0679931640625;-0.169036865234375;-1.005767822265625;0.009215602651238441;-0.011875567957758904;-0.004677309654653072
-0.0679931640625;-0.169036865234375;-1.005767822265625;0.009215602651238441;-0.011875567957758904;-0.004677309654653072
-0.0679931640625;-0.169036865234375;-1.005767822265625;0.009215602651238441;-0.011875567957758904;-0.004677309654653072
-0.0679931640625;-0.169036865234375;-1.005767822265625;0.009215602651238441;-0.011875567957758904;-0.004677309654653072
-0.0679931640625;-0.169036865234375;-1.005767822265625;0.009215602651238441;-0.011875567957758904;-0.004677309654653072
-0.0679168701171875;-0.1708984375;-1.0047760009765625;0.016222113743424416;-0.015225558541715145;-0.004824582487344742
-0.0679168701171875;-0.1708984375;-1.0047760009765625;0.016222113743424416;-0.015225558541715145;-0.004824582487344742
-0.0679168701171875;-0.1708984375;-1.0047760009765625;0.016222113743424416;-0.015225558541715145;-0.004824582487344742
-0.0679168701171875;-0.1708984375;-1.0047760009765625;0.016222113743424416;-0.015225558541715145;-0.004824582487344742
-0.0679168701171875;-0.1708984375;-1.0047760009765625;0.016222113743424416;-0.015225558541715145;-0.004824582487344742
-0.0688629150390625;-0.1724090576171875;-1.0048065185546875;0.01986664906144142;-0.013874270021915436;-0.005201153457164764
-0.0688629150390625;-0.1724090576171875;-1.0048065185546875;0.01986664906144142;-0.013874270021915436;-0.005201153457164764
-0.0688629150390625;-0.1724090576171875;-1.0048065185546875;0.01986664906144142;-0.013874270021915436;-0.005201153457164764
-0.0688629150390625;-0.1724090576171875;-1.0048065185546875;0.01986664906144142;-0.013874270021915436;-0.005201153457164764
-0.0688629150390625;-0.1724090576171875;-1.0048065185546875;0.01986664906144142;-0.013874270021915436;-0.005201153457164764
-0.0697784423828125;-0.1717987060546875;-1.0028839111328125;0.014534734189510345;-0.009093097411096096;-0.003962783608585596
-0.0697784423828125;-0.1717987060546875;-1.0028839111328125;0.014534734189510345;-0.009093097411096096;-0.003962783608585596
-0.0697784423828125;-0.1717987060546875;-1.0028839111328125;0.014534734189510345;-0.009093097411096096;-0.003962783608585596
-0.0697784423828125;-0.1717987060546875;-1.0028839111328125;0.014534734189510345;-0.009093097411096096;-0.003962783608585596
-0.0697784423828125;-0.1717987060546875;-1.0028839111328125;0.014534734189510345;-0.009093097411096096;-0.003962783608585596
-0.0701904296875;-0.1719970703125;-1.001617431640625;0.012647618539631367;-0.002114816103130579;-0.0026048377621918917
-0.0701904296875;-0.1719970703125;-1.001617431640625;0.012647618539631367;-0.002114816103130579;-0.0026048377621918917
-0.0701904296875;-0.1719970703125;-1.001617431640625;0.012647618539631367;-0.002114816103130579;-0.0026048377621918917
-0.0701904296875;-0.1719970703125;-1.001617431640625;0.012647618539631367;-0.002114816103130579;-0.0026048377621918917
-0.0701904296875;-0.1719970703125;-1.001617431640625;0.012647618539631367;-0.002114816103130579;-0.0026048377621918917
-0.07098388671875;-0.1708831787109375;-1.0008544921875;0.00041864890954457223;-0.0009869674686342478;-0.0033686324022710323
-0.07098388671875;-0.1708831787109375;-1.0008544921875;0.00041864890954457223;-0.0009869674686342478;-0.0033686324022710323
-0.07098388671875;-0.1708831787109375;-1.0008544921875;0.00041864890954457223;-0.0009869674686342478;-0.0033686324022710323
-0.07098388671875;-0.1708831787109375;-1.0008544921875;0.00041864890954457223;-0.0009869674686342478;-0.0033686324022710323
-0.07098388671875;-0.1708831787109375;-1.0008544921875;0.00041864890954457223;-0.0009869674686342478;-0.0033686324022710323
-0.0710601806640625;-0.1696624755859375;-1.0008697509765625;-0.006601709872484207;0.0009116000146605074;-0.0017411747248843312
-0.0710601806640625;-0.1696624755859375;-1.0008697509765625;-0.006601709872484207;0.0009116000146605074;-0.0017411747248843312
-0.0710601806640625;-0.1696624755859375;-1.0008697509765625;-0.006601709872484207;0.0009116000146605074;-0.0017411747248843312
-0.0710601806640625;-0.1696624755859375;-1.0008697509765625;-0.006601709872484207;0.0009116000146605074;-0.0017411747248843312
-0.0710601806640625;-0.1696624755859375;-1.0008697509765625;-0.006601709872484207;0.0009116000146605074;-0.0017411747248843312
-0.070098876953125;-0.168487548828125;-1.0006866455078125;-0.01727619208395481;0.000844754686113447;-0.002010952914133668
-0.070098876953125;-0.168487548828125;-1.0006866455078125;-0.01727619208395481;0.000844754686113447;-0.002010952914133668
-0.070098876953125;-0.168487548828125;-1.0006866455078125;-0.01727619208395481;0.000844754686113447;-0.002010952914133668
-0.070098876953125;-0.168487548828125;-1.0006866455078125;-0.01727619208395481;0.000844754686113447;-0.002010952914133668
-0.070098876953125;-0.168487548828125;-1.0006866455078125;-0.01727619208395481;0.000844754686113447;-0.002010952914133668
-0.06982421875;-0.167388916015625;-1.0010528564453125;-0.0210669357329607;-0.0038216360844671726;-0.0012631373247131705
-0.06982421875;-0.167388916015625;-1.0010528564453125;-0.0210669357329607;-0.0038216360844671726;-0.0012631373247131705
-0.06982421875;-0.167388916015625;-1.0010528564453125;-0.0210669357329607;-0.0038216360844671726;-0.0012631373247131705
-0.06982421875;-0.167388916015625;-1.0010528564453125;-0.0210669357329607;-0.0038216360844671726;-0.0012631373247131705
-0.06982421875;-0.167388916015625;-1.0010528564453125;-0.0210669357329607;-0.0038216360844671726;-0.0012631373247131705
-0.06884765625;-0.165252685546875;-1.0040130615234375;-0.022904250770807266;-0.00618039770051837;0.0023971113841980696
-0.06884765625;-0.165252685546875;-1.0040130615234375;-0.022904250770807266;-0.00618039770051837;0.0023971113841980696
-0.06884765625;-0.165252685546875;-1.0040130615234375;-0.022904250770807266;-0.00618039770051837;0.0023971113841980696
-0.06884765625;-0.165252685546875;-1.0040130615234375;-0.022904250770807266;-0.00618039770051837;0.0023971113841980696
-0.06884765625;-0.165252685546875;-1.0040130615234375;-0.022904250770807266;-0.00618039770051837;0.0023971113841980696
-0.0676116943359375;-0.1639862060546875;-1.003448486328125;-0.024228906258940697;-0.011083809658885002;-0.0002719087351579219
-0.0676116943359375;-0.1639862060546875;-1.003448486328125;-0.024228906258940697;-0.011083809658885002;-0.0002719087351579219
-0.0676116943359375;-0.1639862060546875;-1.003448486328125;-0.024228906258940697;-0.011083809658885002;-0.0002719087351579219
-0.0676116943359375;-0.1639862060546875;-1.003448486328125;-0.024228906258940697;-0.011083809658885002;-0.0002719087351579219
-0.0676116943359375;-0.1639862060546875;-1.003448486328125;-0.024228906258940697;-0.011083809658885002;-0.0002719087351579219
-0.0680389404296875;-0.162841796875;-1.001373291015625;-0.016086025163531303;-0.011413775384426117;0.0001328917423961684
-0.0680389404296875;-0.162841796875;-1.001373291015625;-0.016086025163531303;-0.011413775384426117;0.0001328917423961684
-0.0680389404296875;-0.162841796875;-1.001373291015625;-0.016086025163531303;-0.011413775384426117;0.0001328917423961684
-0.0680389404296875;-0.162841796875;-1.001373291015625;-0.016086025163531303;-0.011413775384426117;0.0001328917423961684
-0.0680389404296875;-0.162841796875;-1.001373291015625;-0.013546435162425041;-0.017345700412988663;0.0014498248929157853
-0.0682373046875;-0.16357421875;-1.00006103515625;-0.013546435162425041;-0.017345700412988663;0.0014498248929157853
-0.0682373046875;-0.16357421875;-1.00006103515625;-0.013546435162425041;-0.017345700412988663;0.0014498248929157853
-0.0682373046875;-0.16357421875;-1.00006103515625;-0.013546435162425041;-0.017345700412988663;0.0014498248929157853
-0.0682373046875;-0.16357421875;-1.00006103515625;-0.013546435162425041;-0.017345700412988663;0.0014498248929157853
-0.06884765625;-0.1631927490234375;-1.000030517578125;-0.008837699890136719;-0.023605993017554283;8.868326403899118e-05
-0.06884765625;-0.1631927490234375;-1.000030517578125;-0.008837699890136719;-0.023605993017554283;8.868326403899118e-05
-0.06884765625;-0.1631927490234375;-1.000030517578125;-0.008837699890136719;-0.023605993017554283;8.868326403899118e-05
-0.06884765625;-0.1631927490234375;-1.000030517578125;-0.008837699890136719;-0.023605993017554283;8.868326403899118e-05
-0.06884765625;-0.1631927490234375;-1.000030517578125;-0.008837699890136719;-0.023605993017554283;8.868326403899118e-05
-0.06884765625;-0.1631927490234375;-1.000030517578125;-0.006106628105044365;-0.028305673971772194;-0.0001781654718797654
-0.0697784423828125;-0.163848876953125;-0.999176025390625;-0.006106628105044365;-0.028305673971772194;-0.0001781654718797654
-0.0697784423828125;-0.163848876953125;-0.999176025390625;-0.006106628105044365;-0.028305673971772194;-0.0001781654718797654
-0.0697784423828125;-0.163848876953125;-0.999176025390625;-0.006106628105044365;-0.028305673971772194;-0.0001781654718797654
-0.0697784423828125;-0.163848876953125;-0.999176025390625;-0.006106628105044365;-0.028305673971772194;-0.0001781654718797654
-0.0697784423828125;-0.163848876953125;-0.999176025390625;0.0002210423699580133;-0.033007483929395676;-0.0003254382754676044
-0.0706329345703125;-0.16473388671875;-0.9991912841796875;0.0002210423699580133;-0.033007483929395676;-0.0003254382754676044
-0.0706329345703125;-0.16473388671875;-0.9991912841796875;0.0002210423699580133;-0.033007483929395676;-0.0003254382754676044
-0.0706329345703125;-0.16473388671875;-0.9991912841796875;0.0002210423699580133;-0.033007483929395676;-0.0003254382754676044
-0.0706329345703125;-0.16473388671875;-0.9991912841796875;0.0002210423699580133;-0.033007483929395676;-0.0003254382754676044
-0.0706329345703125;-0.16473388671875;-0.9991912841796875;0.0029409287963062525;-0.0327393040060997;0.0005041363765485585
-0.0713348388671875;-0.16552734375;-0.997833251953125;0.0029409287963062525;-0.0327393040060997;0.0005041363765485585
-0.0713348388671875;-0.16552734375;-0.997833251953125;0.0029409287963062525;-0.0327393040060997;0.0005041363765485585
-0.0713348388671875;-0.16552734375;-0.997833251953125;0.0029409287963062525;-0.0327393040060997;0.0005041363765485585
-0.0713348388671875;-0.16552734375;-0.997833251953125;0.0029409287963062525;-0.0327393040060997;0.0005041363765485585
-0.0713348388671875;-0.16552734375;-0.997833251953125;0.004283960908651352;-0.02906946837902069;0.004762797150760889
-0.07061767578125;-0.1664886474609375;-0.995849609375;0.004283960908651352;-0.02906946837902069;0.004762797150760889
-0.07061767578125;-0.1664886474609375;-0.995849609375;0.004283960908651352;-0.02906946837902069;0.004762797150760889
-0.07061767578125;-0.1664886474609375;-0.995849609375;0.004283960908651352;-0.02906946837902069;0.004762797150760889
-0.07061767578125;-0.1664886474609375;-0.995849609375;0.004283960908651352;-0.02906946837902069;0.004762797150760889
-0.070068359375;-0.167266845703125;-0.9935302734375;0.0034674357157200575;-0.02346005290746689;0.0030029804911464453
-0.070068359375;-0.167266845703125;-0.9935302734375;0.0034674357157200575;-0.02346005290746689;0.0030029804911464453
-0.070068359375;-0.167266845703125;-0.9935302734375;0.0034674357157200575;-0.02346005290746689;0.0030029804911464453
-0.070068359375;-0.167266845703125;-0.9935302734375;0.0034674357157200575;-0.02346005290746689;0.0030029804911464453
-0.070068359375;-0.167266845703125;-0.9935302734375;0.0034674357157200575;-0.02346005290746689;0.0030029804911464453
-0.070068359375;-0.167266845703125;-0.9935302734375;-0.0030184267088770866;-0.02063310705125332;0.004867726005613804
-0.069580078125;-0.168243408203125;-0.9922027587890625;-0.0030184267088770866;-0.02063310705125332;0.004867726005613804
-0.069580078125;-0.168243408203125;-0.9922027587890625;-0.0030184267088770866;-0.02063310705125332;0.004867726005613804
-0.069580078125;-0.168243408203125;-0.9922027587890625;-0.0030184267088770866;-0.02063310705125332;0.004867726005613804
-0.069580078125;-0.168243408203125;-0.9922027587890625;-0.0030184267088770866;-0.02063310705125332;0.004867726005613804
-0.0685272216796875;-0.167877197265625;-0.9910736083984375;-0.007184675894677639;-0.00826991442590952;0.002129463478922844
-0.0685272216796875;-0.167877197265625;-0.9910736083984375;-0.007184675894677639;-0.00826991442590952;0.002129463478922844
-0.0685272216796875;-0.167877197265625;-0.9910736083984375;-0.007184675894677639;-0.00826991442590952;0.002129463478922844
-0.0685272216796875;-0.167877197265625;-0.9910736083984375;-0.007184675894677639;-0.00826991442590952;0.002129463478922844
-0.0685272216796875;-0.167877197265625;-0.9910736083984375;-0.007184675894677639;-0.00826991442590952;0.002129463478922844
-0.068084716796875;-0.16827392578125;-0.989593505859375;-0.014900386333465576;-0.007196660153567791;0.0014263890916481614
-0.068084716796875;-0.16827392578125;-0.989593505859375;-0.014900386333465576;-0.007196660153567791;0.0014263890916481614
-0.068084716796875;-0.16827392578125;-0.989593505859375;-0.014900386333465576;-0.007196660153567791;0.0014263890916481614
-0.068084716796875;-0.16827392578125;-0.989593505859375;-0.014900386333465576;-0.007196660153567791;0.0014263890916481614
-0.068084716796875;-0.16827392578125;-0.989593505859375;-0.014900386333465576;-0.007196660153567791;0.0014263890916481614
-0.0689697265625;-0.169097900390625;-0.9906768798828125;-0.013687582686543465;-0.005050951149314642;0.003710049670189619
-0.0689697265625;-0.169097900390625;-0.9906768798828125;-0.013687582686543465;-0.005050951149314642;0.003710049670189619
-0.0689697265625;-0.169097900390625;-0.9906768798828125;-0.013687582686543465;-0.005050951149314642;0.003710049670189619
-0.0689697265625;-0.169097900390625;-0.9906768798828125;-0.013687582686543465;-0.005050951149314642;0.003710049670189619
-0.0689697265625;-0.169097900390625;-0.9906768798828125;-0.013687582686543465;-0.005050951149314642;0.003710049670189619
-0.069580078125;-0.1685943603515625;-0.9935455322265625;-0.01236345898360014;-0.009825466200709343;-0.0004500742070376873
-0.069580078125;-0.1685943603515625;-0.9935455322265625;-0.01236345898360014;-0.009825466200709343;-0.0004500742070376873
-0.069580078125;-0.1685943603515625;-0.9935455322265625;-0.01236345898360014;-0.009825466200709343;-0.0004500742070376873
-0.069580078125;-0.1685943603515625;-0.9935455322265625;-0.01236345898360014;-0.009825466200709343;-0.0004500742070376873
-0.069580078125;-0.1685943603515625;-0.9935455322265625;-0.01236345898360014;-0.009825466200709343;-0.0004500742070376873
-0.07012939453125;-0.1687774658203125;-0.99853515625;-0.00307595101185143;-0.02123737707734108;-0.003326820908114314
-0.07012939453125;-0.1687774658203125;-0.99853515625;-0.00307595101185143;-0.02123737707734108;-0.003326820908114314
-0.07012939453125;-0.1687774658203125;-0.99853515625;-0.00307595101185143;-0.02123737707734108;-0.003326820908114314
-0.07012939453125;-0.1687774658203125;-0.99853515625;-0.00307595101185143;-0.02123737707734108;-0.003326820908114314
-0.07012939453125;-0.1687774658203125;-0.99853515625;-0.00307595101185143;-0.02123737707734108;-0.003326820908114314
-0.071014404296875;-0.16912841796875;-1.003875732421875;0.015027418732643127;-0.026131736114621162;-0.0022178804501891136
-0.071014404296875;-0.16912841796875;-1.003875732421875;0.015027418732643127;-0.026131736114621162;-0.0022178804501891136
-0.071014404296875;-0.16912841796875;-1.003875732421875;0.015027418732643127;-0.026131736114621162;-0.0022178804501891136
-0.071014404296875;-0.16912841796875;-1.003875732421875;0.015027418732643127;-0.026131736114621162;-0.0022178804501891136
-0.071014404296875;-0.16912841796875;-1.003875732421875;0.015027418732643127;-0.026131736114621162;-0.0022178804501891136
-0.0696563720703125;-0.168975830078125;-1.008941650390625;0.02863803692162037;-0.034327346831560135;-0.0017188041238114238
-0.0696563720703125;-0.168975830078125;-1.008941650390625;0.02863803692162037;-0.034327346831560135;-0.0017188041238114238
-0.0696563720703125;-0.168975830078125;-1.008941650390625;0.02863803692162037;-0.034327346831560135;-0.0017188041238114238
-0.0696563720703125;-0.168975830078125;-1.008941650390625;0.02863803692162037;-0.034327346831560135;-0.0017188041238114238
-0.0696563720703125;-0.168975830078125;-1.008941650390625;0.02863803692162037;-0.034327346831560135;-0.0017188041238114238
-0.0697174072265625;-0.169647216796875;-1.009613037109375;0.04050960764288902;-0.025045964866876602;0.0025747441686689854
-0.0697174072265625;-0.169647216796875;-1.009613037109375;0.04050960764288902;-0.025045964866876602;0.0025747441686689854
-0.0697174072265625;-0.169647216796875;-1.009613037109375;0.04050960764288902;-0.025045964866876602;0.0025747441686689854
-0.0697174072265625;-0.169647216796875;-1.009613037109375;0.04050960764288902;-0.025045964866876602;0.0025747441686689854
-0.0697174072265625;-0.169647216796875;-1.009613037109375;0.04050960764288902;-0.025045964866876602;0.0025747441686689854
-0.069976806640625;-0.170166015625;-1.0035247802734375;0.044671863317489624;-0.018510034307837486;0.0038035267498344183
-0.069976806640625;-0.170166015625;-1.0035247802734375;0.044671863317489624;-0.018510034307837486;0.0038035267498344183
-0.069976806640625;-0.170166015625;-1.0035247802734375;0.044671863317489624;-0.018510034307837486;0.0038035267498344183
-0.069976806640625;-0.170166015625;-1.0035247802734375;0.044671863317489624;-0.018510034307837486;0.0038035267498344183
-0.069976806640625;-0.170166015625;-1.0035247802734375;0.044671863317489624;-0.018510034307837486;0.0038035267498344183
-0.0720367431640625;-0.1720123291015625;-0.9976654052734375;0.03838387504220009;-0.0004679173871409148;0.006280532572418451
-0.0720367431640625;-0.1720123291015625;-0.9976654052734375;0.03838387504220009;-0.0004679173871409148;0.006280532572418451
-0.0720367431640625;-0.1720123291015625;-0.9976654052734375;0.03838387504220009;-0.0004679173871409148;0.006280532572418451
-0.0720367431640625;-0.1720123291015625;-0.9976654052734375;0.03838387504220009;-0.0004679173871409148;0.006280532572418451
-0.0720367431640625;-0.1720123291015625;-0.9976654052734375;0.03838387504220009;-0.0004679173871409148;0.006280532572418451
-0.0726470947265625;-0.1725006103515625;-0.992706298828125;0.026872094720602036;0.0054357778280973434;0.007182279136031866
-0.0726470947265625;-0.1725006103515625;-0.992706298828125;0.026872094720602036;0.0054357778280973434;0.007182279136031866
-0.0726470947265625;-0.1725006103515625;-0.992706298828125;0.026872094720602036;0.0054357778280973434;0.007182279136031866
-0.0726470947265625;-0.1725006103515625;-0.992706298828125;0.026872094720602036;0.0054357778280973434;0.007182279136031866
-0.0726470947265625;-0.1725006103515625;-0.992706298828125;0.026872094720602036;0.0054357778280973434;0.007182279136031866
-0.0735321044921875;-0.1702423095703125;-0.992584228515625;0.015547534450888634;0.005018993280827999;0.009320797398686409
-0.0735321044921875;-0.1702423095703125;-0.992584228515625;0.015547534450888634;0.005018993280827999;0.009320797398686409
-0.0735321044921875;-0.1702423095703125;-0.992584228515625;0.015547534450888634;0.005018993280827999;0.009320797398686409
-0.0735321044921875;-0.1702423095703125;-0.992584228515625;0.015547534450888634;0.005018993280827999;0.009320797398686409
-0.0735321044921875;-0.1702423095703125;-0.992584228515625;0.015547534450888634;0.005018993280827999;0.009320797398686409
-0.072906494140625;-0.16973876953125;-0.9930877685546875;0.0033457293175160885;0.0014096111990511417;0.007340470794588327
-0.072906494140625;-0.16973876953125;-0.9930877685546875;0.0033457293175160885;0.0014096111990511417;0.007340470794588327
-0.072906494140625;-0.16973876953125;-0.9930877685546875;0.0033457293175160885;0.0014096111990511417;0.007340470794588327
-0.072906494140625;-0.16973876953125;-0.9930877685546875;0.0033457293175160885;0.0014096111990511417;0.007340470794588327
-0.072906494140625;-0.16973876953125;-0.9930877685546875;0.0033457293175160885;0.0014096111990511417;0.007340470794588327
-0.0718841552734375;-0.167388916015625;-0.9957122802734375;0.0016255935188382864;-0.013459616340696812;0.010089118964970112
-0.0718841552734375;-0.167388916015625;-0.9957122802734375;0.0016255935188382864;-0.013459616340696812;0.010089118964970112
-0.0718841552734375;-0.167388916015625;-0.9957122802734375;0.0016255935188382864;-0.013459616340696812;0.010089118964970112
-0.0718841552734375;-0.167388916015625;-0.9957122802734375;0.0016255935188382864;-0.013459616340696812;0.010089118964970112
-0.0718841552734375;-0.167388916015625;-0.9957122802734375;0.0016255935188382864;-0.013459616340696812;0.010089118964970112
-0.0704498291015625;-0.164886474609375;-0.9994049072265625;0.00845526996999979;-0.019420569762587547;0.010216418653726578
-0.0704498291015625;-0.164886474609375;-0.9994049072265625;0.00845526996999979;-0.019420569762587547;0.010216418653726578
-0.0704498291015625;-0.164886474609375;-0.9994049072265625;0.00845526996999979;-0.019420569762587547;0.010216418653726578
-0.0704498291015625;-0.164886474609375;-0.9994049072265625;0.00845526996999979;-0.019420569762587547;0.010216418653726578
-0.0704498291015625;-0.164886474609375;-0.9994049072265625;0.00845526996999979;-0.019420569762587547;0.010216418653726578
-0.070892333984375;-0.16400146484375;-1.005279541015625;0.01522635668516159;-0.02598419599235058;0.004863198380917311
-0.070892333984375;-0.16400146484375;-1.005279541015625;0.01522635668516159;-0.02598419599235058;0.004863198380917311
-0.070892333984375;-0.16400146484375;-1.005279541015625;0.01522635668516159;-0.02598419599235058;0.004863198380917311
-0.070892333984375;-0.16400146484375;-1.005279541015625;0.01522635668516159;-0.02598419599235058;0.004863198380917311
-0.070892333984375;-0.16400146484375;-1.005279541015625;0.01522635668516159;-0.02598419599235058;0.004863198380917311
-0.0723419189453125;-0.164794921875;-1.011566162109375;0.022284798324108124;-0.033059414476156235;0.005301288329064846
-0.0723419189453125;-0.164794921875;-1.011566162109375;0.022284798324108124;-0.033059414476156235;0.005301288329064846
-0.0723419189453125;-0.164794921875;-1.011566162109375;0.022284798324108124;-0.033059414476156235;0.005301288329064846
-0.0723419189453125;-0.164794921875;-1.011566162109375;0.022284798324108124;-0.033059414476156235;0.005301288329064846
-0.0723419189453125;-0.164794921875;-1.011566162109375;0.022284798324108124;-0.033059414476156235;0.005301288329064846
-0.0734100341796875;-0.16619873046875;-1.0091094970703125;0.022703448310494423;-0.025004684925079346;0.0028509139083325863
-0.0734100341796875;-0.16619873046875;-1.0091094970703125;0.022703448310494423;-0.025004684925079346;0.0028509139083325863
-0.0734100341796875;-0.16619873046875;-1.0091094970703125;0.022703448310494423;-0.025004684925079346;0.0028509139083325863
-0.0734100341796875;-0.16619873046875;-1.0091094970703125;0.022703448310494423;-0.025004684925079346;0.0028509139083325863
-0.0734100341796875;-0.16619873046875;-1.0091094970703125;0.022703448310494423;-0.025004684925079346;0.0028509139083325863
-0.0746307373046875;-0.1702423095703125;-1.002838134765625;0.021281853318214417;-0.018733739852905273;0.003976099658757448
-0.0746307373046875;-0.1702423095703125;-1.002838134765625;0.021281853318214417;-0.018733739852905273;0.003976099658757448
-0.0746307373046875;-0.1702423095703125;-1.002838134765625;0.021281853318214417;-0.018733739852905273;0.003976099658757448
-0.0746307373046875;-0.1702423095703125;-1.002838134765625;0.021281853318214417;-0.018733739852905273;0.003976099658757448
-0.0746307373046875;-0.1702423095703125;-1.002838134765625;0.021281853318214417;-0.018733739852905273;0.003976099658757448
-0.07452392578125;-0.1732177734375;-1.000213623046875;0.01960832253098488;-0.006463758181780577;0.0015169365797191858
-0.07452392578125;-0.1732177734375;-1.000213623046875;0.01960832253098488;-0.006463758181780577;0.0015169365797191858
-0.07452392578125;-0.1732177734375;-1.000213623046875;0.01960832253098488;-0.006463758181780577;0.0015169365797191858
-0.07452392578125;-0.1732177734375;-1.000213623046875;0.01960832253098488;-0.006463758181780577;0.0015169365797191858
-0.07452392578125;-0.1732177734375;-1.000213623046875;0.01960832253098488;-0.006463758181780577;0.0015169365797191858
-0.0724029541015625;-0.1757354736328125;-1.0002593994140625;0.02154550515115261;-0.005852562841027975;0.004002198576927185
-0.0724029541015625;-0.1757354736328125;-1.0002593994140625;0.02154550515115261;-0.005852562841027975;0.004002198576927185
-0.0724029541015625;-0.1757354736328125;-1.0002593994140625;0.02154550515115261;-0.005852562841027975;0.004002198576927185
-0.0724029541015625;-0.1757354736328125;-1.0002593994140625;0.02154550515115261;-0.005852562841027975;0.004002198576927185
-0.0724029541015625;-0.1757354736328125;-1.0002593994140625;0.02154550515115261;-0.005852562841027975;0.004002198576927185
-0.0699920654296875;-0.1764373779296875;-1.0009613037109375;0.02497272752225399;-0.006895989179611206;0.007003847509622574
-0.0699920654296875;-0.1764373779296875;-1.0009613037109375;0.02497272752225399;-0.006895989179611206;0.007003847509622574
-0.0699920654296875;-0.1764373779296875;-1.0009613037109375;0.02497272752225399;-0.006895989179611206;0.007003847509622574
-0.0699920654296875;-0.1764373779296875;-1.0009613037109375;0.02497272752225399;-0.006895989179611206;0.007003847509622574
-0.0699920654296875;-0.1764373779296875;-1.0009613037109375;0.02497272752225399;-0.006895989179611206;0.007003847509622574
-0.0698089599609375;-0.176116943359375;-1.00152587890625;0.02491946518421173;-0.01678190939128399;0.010445716790854931
-0.0698089599609375;-0.176116943359375;-1.00152587890625;0.02491946518421173;-0.01678190939128399;0.010445716790854931
-0.0698089599609375;-0.176116943359375;-1.00152587890625;0.02491946518421173;-0.01678190939128399;0.010445716790854931
-0.0698089599609375;-0.176116943359375;-1.00152587890625;0.02491946518421173;-0.01678190939128399;0.010445716790854931
-0.0698089599609375;-0.176116943359375;-1.00152587890625;0.02491946518421173;-0.01678190939128399;0.010445716790854931
-0.06982421875;-0.1755828857421875;-1.0014801025390625;0.029738187789916992;-0.019420836120843887;0.010852381587028503
-0.06982421875;-0.1755828857421875;-1.0014801025390625;0.029738187789916992;-0.019420836120843887;0.010852381587028503
-0.06982421875;-0.1755828857421875;-1.0014801025390625;0.029738187789916992;-0.019420836120843887;0.010852381587028503
-0.06982421875;-0.1755828857421875;-1.0014801025390625;0.029738187789916992;-0.019420836120843887;0.010852381587028503
-0.06982421875;-0.1755828857421875;-1.0014801025390625;0.029738187789916992;-0.019420836120843887;0.010852381587028503
-0.0704193115234375;-0.174560546875;-1.0001068115234375;0.03313185274600983;-0.021222997456789017;0.01101616583764553
-0.0704193115234375;-0.174560546875;-1.0001068115234375;0.03313185274600983;-0.021222997456789017;0.01101616583764553
-0.0704193115234375;-0.174560546875;-1.0001068115234375;0.03313185274600983;-0.021222997456789017;0.01101616583764553
-0.0704193115234375;-0.174560546875;-1.0001068115234375;0.03313185274600983;-0.021222997456789017;0.01101616583764553
-0.0704193115234375;-0.174560546875;-1.0001068115234375;0.03313185274600983;-0.021222997456789017;0.01101616583764553
-0.0727691650390625;-0.1735687255859375;-0.99945068359375;0.03950905799865723;-0.02153884805738926;0.010853180661797523
-0.0727691650390625;-0.1735687255859375;-0.99945068359375;0.03950905799865723;-0.02153884805738926;0.010853180661797523
-0.0727691650390625;-0.1735687255859375;-0.99945068359375;0.03950905799865723;-0.02153884805738926;0.010853180661797523
-0.0727691650390625;-0.1735687255859375;-0.99945068359375;0.03950905799865723;-0.02153884805738926;0.010853180661797523
-0.0727691650390625;-0.1735687255859375;-0.99945068359375;0.03950905799865723;-0.02153884805738926;0.010853180661797523
-0.0747833251953125;-0.171478271484375;-0.99639892578125;0.03575826436281204;-0.01799844205379486;0.011355185881257057
-0.0747833251953125;-0.171478271484375;-0.99639892578125;0.03575826436281204;-0.01799844205379486;0.011355185881257057
-0.0747833251953125;-0.171478271484375;-0.99639892578125;0.03575826436281204;-0.01799844205379486;0.011355185881257057
-0.0747833251953125;-0.171478271484375;-0.99639892578125;0.03575826436281204;-0.01799844205379486;0.011355185881257057
-0.0747833251953125;-0.171478271484375;-0.99639892578125;0.03575826436281204;-0.01799844205379486;0.011355185881257057
-0.07489013671875;-0.16839599609375;-0.99365234375;0.033065807074308395;-0.015517440624535084;0.008039817214012146
-0.07489013671875;-0.16839599609375;-0.99365234375;0.033065807074308395;-0.015517440624535084;0.008039817214012146
-0.07489013671875;-0.16839599609375;-0.99365234375;0.033065807074308395;-0.015517440624535084;0.008039817214012146
-0.07489013671875;-0.16839599609375;-0.99365234375;0.033065807074308395;-0.015517440624535084;0.008039817214012146
-0.07489013671875;-0.16839599609375;-0.99365234375;0.033065807074308395;-0.015517440624535084;0.008039817214012146
-0.075286865234375;-0.1673736572265625;-0.993194580078125;0.03002900443971157;-0.01321220863610506;0.00863343570381403
-0.075286865234375;-0.1673736572265625;-0.993194580078125;0.03002900443971157;-0.01321220863610506;0.00863343570381403
-0.075286865234375;-0.1673736572265625;-0.993194580078125;0.03002900443971157;-0.01321220863610506;0.00863343570381403
-0.075286865234375;-0.1673736572265625;-0.993194580078125;0.03002900443971157;-0.01321220863610506;0.00863343570381403
-0.075286865234375;-0.1673736572265625;-0.993194580078125;0.03002900443971157;-0.01321220863610506;0.00863343570381403
-0.0746002197265625;-0.16693115234375;-0.9946136474609375;0.026913639158010483;-0.016278572380542755;0.005164934787899256
-0.0746002197265625;-0.16693115234375;-0.9946136474609375;0.026913639158010483;-0.016278572380542755;0.005164934787899256
-0.0746002197265625;-0.16693115234375;-0.9946136474609375;0.026913639158010483;-0.016278572380542755;0.005164934787899256
-0.0746002197265625;-0.16693115234375;-0.9946136474609375;0.026913639158010483;-0.016278572380542755;0.005164934787899256
-0.0746002197265625;-0.16693115234375;-0.9946136474609375;0.026913639158010483;-0.016278572380542755;0.005164934787899256
-0.073455810546875;-0.167144775390625;-0.9957733154296875;0.025677133351564407;-0.01961897499859333;0.008266451768577099
-0.073455810546875;-0.167144775390625;-0.9957733154296875;0.025677133351564407;-0.01961897499859333;0.008266451768577099
-0.073455810546875;-0.167144775390625;-0.9957733154296875;0.025677133351564407;-0.01961897499859333;0.008266451768577099
-0.073455810546875;-0.167144775390625;-0.9957733154296875;0.025677133351564407;-0.01961897499859333;0.008266451768577099
-0.073455810546875;-0.167144775390625;-0.9957733154296875;0.025677133351564407;-0.01961897499859333;0.008266451768577099
-0.0731353759765625;-0.16778564453125;-0.9957122802734375;0.02394954115152359;-0.02810007706284523;0.004228833597153425
-0.0731353759765625;-0.16778564453125;-0.9957122802734375;0.02394954115152359;-0.02810007706284523;0.004228833597153425
-0.0731353759765625;-0.16778564453125;-0.9957122802734375;0.02394954115152359;-0.02810007706284523;0.004228833597153425
-0.0731353759765625;-0.16778564453125;-0.9957122802734375;0.02394954115152359;-0.02810007706284523;0.004228833597153425
-0.0731353759765625;-0.16778564453125;-0.9957122802734375;0.02394954115152359;-0.02810007706284523;0.004228833597153425
-0.0736236572265625;-0.168792724609375;-0.999237060546875;0.023733558133244514;-0.03352866694331169;0.00469595193862915
-0.0736236572265625;-0.168792724609375;-0.999237060546875;0.023733558133244514;-0.03352866694331169;0.00469595193862915
-0.0736236572265625;-0.168792724609375;-0.999237060546875;0.023733558133244514;-0.03352866694331169;0.00469595193862915
-0.0736236572265625;-0.168792724609375;-0.999237060546875;0.023733558133244514;-0.03352866694331169;0.00469595193862915
-0.0736236572265625;-0.168792724609375;-0.999237060546875;0.026263561099767685;-0.03965047374367714;0.002758235903456807
-0.0743255615234375;-0.1702880859375;-1.0002288818359375;0.026263561099767685;-0.03965047374367714;0.002758235903456807
-0.0743255615234375;-0.1702880859375;-1.0002288818359375;0.026263561099767685;-0.03965047374367714;0.002758235903456807
-0.0743255615234375;-0.1702880859375;-1.0002288818359375;0.026263561099767685;-0.03965047374367714;0.002758235903456807
-0.0743255615234375;-0.1702880859375;-1.0002288818359375;0.026263561099767685;-0.03965047374367714;0.002758235903456807
-0.0743255615234375;-0.1702880859375;-1.0002288818359375;0.026263561099767685;-0.03965047374367714;0.002758235903456807
-0.07568359375;-0.170867919921875;-1.00152587890625;0.03104313649237156;-0.034449584782123566;0.0014333132421597838
-0.07568359375;-0.170867919921875;-1.00152587890625;0.03104313649237156;-0.034449584782123566;0.0014333132421597838
-0.07568359375;-0.170867919921875;-1.00152587890625;0.03104313649237156;-0.034449584782123566;0.0014333132421597838
-0.07568359375;-0.170867919921875;-1.00152587890625;0.03104313649237156;-0.034449584782123566;0.0014333132421597838
-0.07568359375;-0.170867919921875;-1.00152587890625;0.03104313649237156;-0.034449584782123566;0.0014333132421597838
-0.0769500732421875;-0.1727447509765625;-1.0014801025390625;0.03423120826482773;-0.026150111109018326;0.0014538196846842766
-0.0769500732421875;-0.1727447509765625;-1.0014801025390625;0.03423120826482773;-0.026150111109018326;0.0014538196846842766
-0.0769500732421875;-0.1727447509765625;-1.0014801025390625;0.03423120826482773;-0.026150111109018326;0.0014538196846842766
-0.0769500732421875;-0.1727447509765625;-1.0014801025390625;0.03423120826482773;-0.026150111109018326;0.0014538196846842766
-0.0769500732421875;-0.1727447509765625;-1.0014801025390625;0.03519314154982567;-0.020615529268980026;-0.0025563682429492474
-0.07891845703125;-0.1750946044921875;-0.9994659423828125;0.03519314154982567;-0.020615529268980026;-0.0025563682429492474
-0.07891845703125;-0.1750946044921875;-0.9994659423828125;0.03519314154982567;-0.020615529268980026;-0.0025563682429492474
-0.07891845703125;-0.1750946044921875;-0.9994659423828125;0.03519314154982567;-0.020615529268980026;-0.0025563682429492474
-0.07891845703125;-0.1750946044921875;-0.9994659423828125;0.03519314154982567;-0.020615529268980026;-0.0025563682429492474
-0.07891845703125;-0.1750946044921875;-0.9994659423828125;0.03266313672065735;-0.014511564746499062;-0.003994475118815899
-0.07940673828125;-0.1777191162109375;-0.997528076171875;0.03266313672065735;-0.014511564746499062;-0.003994475118815899
-0.07940673828125;-0.1777191162109375;-0.997528076171875;0.03266313672065735;-0.014511564746499062;-0.003994475118815899
-0.07940673828125;-0.1777191162109375;-0.997528076171875;0.03266313672065735;-0.014511564746499062;-0.003994475118815899
-0.07940673828125;-0.1777191162109375;-0.997528076171875;0.03266313672065735;-0.014511564746499062;-0.003994475118815899
-0.07940673828125;-0.1777191162109375;-0.997528076171875;0.03441097214818001;-0.00851465854793787;-0.004131894558668137
-0.0796966552734375;-0.17926025390625;-0.9968414306640625;0.03441097214818001;-0.00851465854793787;-0.004131894558668137
-0.0796966552734375;-0.17926025390625;-0.9968414306640625;0.03441097214818001;-0.00851465854793787;-0.004131894558668137
-0.0796966552734375;-0.17926025390625;-0.9968414306640625;0.03441097214818001;-0.00851465854793787;-0.004131894558668137
-0.0796966552734375;-0.17926025390625;-0.9968414306640625;0.03441097214818001;-0.00851465854793787;-0.004131894558668137
-0.080169677734375;-0.1797943115234375;-0.99713134765625;0.03865152224898338;-0.012131497263908386;-0.004741758108139038
-0.080169677734375;-0.1797943115234375;-0.99713134765625;0.03865152224898338;-0.012131497263908386;-0.004741758108139038
-0.080169677734375;-0.1797943115234375;-0.99713134765625;0.03865152224898338;-0.012131497263908386;-0.004741758108139038
-0.080169677734375;-0.1797943115234375;-0.99713134765625;0.03865152224898338;-0.012131497263908386;-0.004741758108139038
-0.080169677734375;-0.1797943115234375;-0.99713134765625;0.03865152224898338;-0.012131497263908386;-0.004741758108139038
-0.078460693359375;-0.1802825927734375;-1.0002593994140625;0.05002108961343765;-0.02508830837905407;-0.008786301128566265
-0.078460693359375;-0.1802825927734375;-1.0002593994140625;0.05002108961343765;-0.02508830837905407;-0.008786301128566265
-0.078460693359375;-0.1802825927734375;-1.0002593994140625;0.05002108961343765;-0.02508830837905407;-0.008786301128566265
-0.078460693359375;-0.1802825927734375;-1.0002593994140625;0.05002108961343765;-0.02508830837905407;-0.008786301128566265
-0.078460693359375;-0.1802825927734375;-1.0002593994140625;0.05002108961343765;-0.02508830837905407;-0.008786301128566265
-0.0777587890625;-0.1800689697265625;-1.00537109375;0.06511295586824417;-0.03861689940094948;-0.006883206311613321
-0.0777587890625;-0.1800689697265625;-1.00537109375;0.06511295586824417;-0.03861689940094948;-0.006883206311613321
-0.0777587890625;-0.1800689697265625;-1.00537109375;0.06511295586824417;-0.03861689940094948;-0.006883206311613321
-0.0777587890625;-0.1800689697265625;-1.00537109375;0.06511295586824417;-0.03861689940094948;-0.006883206311613321
-0.0777587890625;-0.1800689697265625;-1.00537109375;0.06511295586824417;-0.03861689940094948;-0.006883206311613321
-0.0770111083984375;-0.1811065673828125;-1.0063934326171875;0.0703607127070427;-0.051056791096925735;-0.009784453548491001
-0.0770111083984375;-0.1811065673828125;-1.0063934326171875;0.0703607127070427;-0.051056791096925735;-0.009784453548491001
-0.0770111083984375;-0.1811065673828125;-1.0063934326171875;0.0703607127070427;-0.051056791096925735;-0.009784453548491001
-0.0770111083984375;-0.1811065673828125;-1.0063934326171875;0.0703607127070427;-0.051056791096925735;-0.009784453548491001
-0.0770111083984375;-0.1811065673828125;-1.0063934326171875;0.0703607127070427;-0.051056791096925735;-0.009784453548491001
-0.0760345458984375;-0.18206787109375;-1.000701904296875;0.07576613128185272;-0.04541807994246483;-0.007378553971648216
-0.0760345458984375;-0.18206787109375;-1.000701904296875;0.07576613128185272;-0.04541807994246483;-0.007378553971648216
-0.0760345458984375;-0.18206787109375;-1.000701904296875;0.07576613128185272;-0.04541807994246483;-0.007378553971648216
-0.0760345458984375;-0.18206787109375;-1.000701904296875;0.07576613128185272;-0.04541807994246483;-0.007378553971648216
-0.0760345458984375;-0.18206787109375;-1.000701904296875;0.07576613128185272;-0.04541807994246483;-0.007378553971648216
-0.0760345458984375;-0.18206787109375;-1.000701904296875;0.06606263667345047;-0.0313510000705719;-0.006800648290663958
-0.07611083984375;-0.18212890625;-0.99310302734375;0.06606263667345047;-0.0313510000705719;-0.006800648290663958
-0.07611083984375;-0.18212890625;-0.99310302734375;0.06606263667345047;-0.0313510000705719;-0.006800648290663958
-0.07611083984375;-0.18212890625;-0.99310302734375;0.06606263667345047;-0.0313510000705719;-0.006800648290663958
-0.07611083984375;-0.18212890625;-0.99310302734375;0.06606263667345047;-0.0313510000705719;-0.006800648290663958
-0.07763671875;-0.1808013916015625;-0.9869842529296875;0.05077183246612549;-0.01846795715391636;-0.007643538527190685
-0.07763671875;-0.1808013916015625;-0.9869842529296875;0.05077183246612549;-0.01846795715391636;-0.007643538527190685
-0.07763671875;-0.1808013916015625;-0.9869842529296875;0.05077183246612549;-0.01846795715391636;-0.007643538527190685
-0.07763671875;-0.1808013916015625;-0.9869842529296875;0.05077183246612549;-0.01846795715391636;-0.007643538527190685
-0.07763671875;-0.1808013916015625;-0.9869842529296875;0.05077183246612549;-0.01846795715391636;-0.007643538527190685
-0.080230712890625;-0.1798248291015625;-0.9842529296875;0.03315875306725502;-0.010636398568749428;-0.0076214345172047615
-0.080230712890625;-0.1798248291015625;-0.9842529296875;0.03315875306725502;-0.010636398568749428;-0.0076214345172047615
-0.080230712890625;-0.1798248291015625;-0.9842529296875;0.03315875306725502;-0.010636398568749428;-0.0076214345172047615
-0.080230712890625;-0.1798248291015625;-0.9842529296875;0.03315875306725502;-0.010636398568749428;-0.0076214345172047615
-0.080230712890625;-0.1798248291015625;-0.9842529296875;0.03315875306725502;-0.010636398568749428;-0.0076214345172047615
-0.08160400390625;-0.1780242919921875;-0.984161376953125;0.01943787932395935;-0.00947712454944849;-0.004297809209674597
-0.08160400390625;-0.1780242919921875;-0.984161376953125;0.01943787932395935;-0.00947712454944849;-0.004297809209674597
-0.08160400390625;-0.1780242919921875;-0.984161376953125;0.01943787932395935;-0.00947712454944849;-0.004297809209674597
-0.08160400390625;-0.1780242919921875;-0.984161376953125;0.01943787932395935;-0.00947712454944849;-0.004297809209674597
-0.08160400390625;-0.1780242919921875;-0.984161376953125;0.01943787932395935;-0.00947712454944849;-0.004297809209674597
-0.0813140869140625;-0.176422119140625;-0.9885406494140625;0.017248228192329407;-0.01564314216375351;-0.004749481566250324
-0.0813140869140625;-0.176422119140625;-0.9885406494140625;0.017248228192329407;-0.01564314216375351;-0.004749481566250324
-0.0813140869140625;-0.176422119140625;-0.9885406494140625;0.017248228192329407;-0.01564314216375351;-0.004749481566250324
-0.0813140869140625;-0.176422119140625;-0.9885406494140625;0.017248228192329407;-0.01564314216375351;-0.004749481566250324
-0.0813140869140625;-0.176422119140625;-0.9885406494140625;0.017248228192329407;-0.01564314216375351;-0.004749481566250324
-0.081146240234375;-0.1773834228515625;-0.9944915771484375;0.020984377712011337;-0.028258802369236946;-0.003102849004790187
-0.081146240234375;-0.1773834228515625;-0.9944915771484375;0.020984377712011337;-0.028258802369236946;-0.003102849004790187
-0.081146240234375;-0.1773834228515625;-0.9944915771484375;0.020984377712011337;-0.028258802369236946;-0.003102849004790187
-0.081146240234375;-0.1773834228515625;-0.9944915771484375;0.020984377712011337;-0.028258802369236946;-0.003102849004790187
-0.081146240234375;-0.1773834228515625;-0.9944915771484375;0.020984377712011337;-0.028258802369236946;-0.003102849004790187
-0.0811614990234375;-0.1790313720703125;-1.0022430419921875;0.03403812646865845;-0.03795776888728142;-0.0021025657188147306
-0.0811614990234375;-0.1790313720703125;-1.0022430419921875;0.03403812646865845;-0.03795776888728142;-0.0021025657188147306
-0.0811614990234375;-0.1790313720703125;-1.0022430419921875;0.03403812646865845;-0.03795776888728142;-0.0021025657188147306
-0.0811614990234375;-0.1790313720703125;-1.0022430419921875;0.03403812646865845;-0.03795776888728142;-0.0021025657188147306
-0.0811614990234375;-0.1790313720703125;-1.0022430419921875;0.03403812646865845;-0.03795776888728142;-0.0021025657188147306
-0.0807037353515625;-0.182220458984375;-1.0079345703125;0.05446510761976242;-0.05056384205818176;-0.00515907583758235
-0.0807037353515625;-0.182220458984375;-1.0079345703125;0.05446510761976242;-0.05056384205818176;-0.00515907583758235
-0.0807037353515625;-0.182220458984375;-1.0079345703125;0.05446510761976242;-0.05056384205818176;-0.00515907583758235
-0.0807037353515625;-0.182220458984375;-1.0079345703125;0.05446510761976242;-0.05056384205818176;-0.00515907583758235
-0.081329345703125;-0.185211181640625;-1.0124359130859375;0.07120680063962936;-0.05207332223653793;-0.004275971557945013
-0.081329345703125;-0.185211181640625;-1.0124359130859375;0.07120680063962936;-0.05207332223653793;-0.004275971557945013
-0.081329345703125;-0.185211181640625;-1.0124359130859375;0.07120680063962936;-0.05207332223653793;-0.004275971557945013
-0.081329345703125;-0.185211181640625;-1.0124359130859375;0.07120680063962936;-0.05207332223653793;-0.004275971557945013
-0.081329345703125;-0.185211181640625;-1.0124359130859375;0.07120680063962936;-0.05207332223653793;-0.004275971557945013
-0.08154296875;-0.1888580322265625;-1.0113372802734375;0.08856235444545746;-0.046955790370702744;-0.004337756894528866
-0.08154296875;-0.1888580322265625;-1.0113372802734375;0.08856235444545746;-0.046955790370702744;-0.004337756894528866
-0.08154296875;-0.1888580322265625;-1.0113372802734375;0.08856235444545746;-0.046955790370702744;-0.004337756894528866
-0.08154296875;-0.1888580322265625;-1.0113372802734375;0.08856235444545746;-0.046955790370702744;-0.004337756894528866
-0.08154296875;-0.1888580322265625;-1.0113372802734375;0.08856235444545746;-0.046955790370702744;-0.004337756894528866
-0.0815582275390625;-0.1917266845703125;-1.0078125;0.09461945295333862;-0.03899400308728218;-0.005184642039239407
-0.0815582275390625;-0.1917266845703125;-1.0078125;0.09461945295333862;-0.03899400308728218;-0.005184642039239407
-0.0815582275390625;-0.1917266845703125;-1.0078125;0.09461945295333862;-0.03899400308728218;-0.005184642039239407
-0.0815582275390625;-0.1917266845703125;-1.0078125;0.09461945295333862;-0.03899400308728218;-0.005184642039239407
-0.0815582275390625;-0.1917266845703125;-1.0078125;0.09461945295333862;-0.03899400308728218;-0.005184642039239407
-0.0815277099609375;-0.1927642822265625;-1.003631591796875;0.09495207667350769;-0.02959464304149151;-0.005012335255742073
-0.0815277099609375;-0.1927642822265625;-1.003631591796875;0.09495207667350769;-0.02959464304149151;-0.005012335255742073
-0.0815277099609375;-0.1927642822265625;-1.003631591796875;0.09495207667350769;-0.02959464304149151;-0.005012335255742073
-0.0815277099609375;-0.1927642822265625;-1.003631591796875;0.09495207667350769;-0.02959464304149151;-0.005012335255742073
-0.0815277099609375;-0.1927642822265625;-1.003631591796875;0.09495207667350769;-0.02959464304149151;-0.005012335255742073
-0.0805511474609375;-0.1929779052734375;-1.0011749267578125;0.08950751274824142;-0.021507423371076584;0.00018881811411119998
-0.0805511474609375;-0.1929779052734375;-1.0011749267578125;0.08950751274824142;-0.021507423371076584;0.00018881811411119998
-0.0805511474609375;-0.1929779052734375;-1.0011749267578125;0.08950751274824142;-0.021507423371076584;0.00018881811411119998
-0.0805511474609375;-0.1929779052734375;-1.0011749267578125;0.08950751274824142;-0.021507423371076584;0.00018881811411119998
-0.0805511474609375;-0.1929779052734375;-1.0011749267578125;0.08950751274824142;-0.021507423371076584;0.00018881811411119998
-0.079559326171875;-0.1919403076171875;-0.99737548828125;0.07559941709041595;-0.020671457052230835;-0.0001371527905575931
-0.079559326171875;-0.1919403076171875;-0.99737548828125;0.07559941709041595;-0.020671457052230835;-0.0001371527905575931
-0.079559326171875;-0.1919403076171875;-0.99737548828125;0.07559941709041595;-0.020671457052230835;-0.0001371527905575931
-0.079559326171875;-0.1919403076171875;-0.99737548828125;0.07559941709041595;-0.020671457052230835;-0.0001371527905575931
-0.079559326171875;-0.1919403076171875;-0.99737548828125;0.07559941709041595;-0.020671457052230835;-0.0001371527905575931
-0.0797271728515625;-0.190032958984375;-0.995635986328125;0.06830954551696777;-0.022974824532866478;-0.0011195929255336523
-0.0797271728515625;-0.190032958984375;-0.995635986328125;0.06830954551696777;-0.022974824532866478;-0.0011195929255336523
-0.0797271728515625;-0.190032958984375;-0.995635986328125;0.06830954551696777;-0.022974824532866478;-0.0011195929255336523
-0.0797271728515625;-0.190032958984375;-0.995635986328125;0.06830954551696777;-0.022974824532866478;-0.0011195929255336523
-0.0797271728515625;-0.190032958984375;-0.995635986328125;0.06830954551696777;-0.022974824532866478;-0.0011195929255336523
-0.078765869140625;-0.188568115234375;-0.9925994873046875;0.053221676498651505;-0.02702416107058525;3.355582884978503e-05
-0.078765869140625;-0.188568115234375;-0.9925994873046875;0.053221676498651505;-0.02702416107058525;3.355582884978503e-05
-0.078765869140625;-0.188568115234375;-0.9925994873046875;0.053221676498651505;-0.02702416107058525;3.355582884978503e-05
-0.078765869140625;-0.188568115234375;-0.9925994873046875;0.053221676498651505;-0.02702416107058525;3.355582884978503e-05
-0.078765869140625;-0.188568115234375;-0.9925994873046875;0.053221676498651505;-0.02702416107058525;3.355582884978503e-05
-0.0783538818359375;-0.1856689453125;-0.989959716796875;0.03796815499663353;-0.030524352565407753;0.0007632619817741215
-0.0783538818359375;-0.1856689453125;-0.989959716796875;0.03796815499663353;-0.030524352565407753;0.0007632619817741215
-0.0783538818359375;-0.1856689453125;-0.989959716796875;0.03796815499663353;-0.030524352565407753;0.0007632619817741215
-0.0783538818359375;-0.1856689453125;-0.989959716796875;0.03796815499663353;-0.030524352565407753;0.0007632619817741215
-0.0783538818359375;-0.1856689453125;-0.989959716796875;0.03796815499663353;-0.030524352565407753;0.0007632619817741215
-0.078857421875;-0.183685302734375;-0.988739013671875;0.027909396216273308;-0.03176352381706238;0.0012242551892995834
-0.078857421875;-0.183685302734375;-0.988739013671875;0.027909396216273308;-0.03176352381706238;0.0012242551892995834
-0.078857421875;-0.183685302734375;-0.988739013671875;0.027909396216273308;-0.03176352381706238;0.0012242551892995834
-0.078857421875;-0.183685302734375;-0.988739013671875;0.027909396216273308;-0.03176352381706238;0.0012242551892995834
-0.078857421875;-0.183685302734375;-0.988739013671875;0.027909396216273308;-0.03176352381706238;0.0012242551892995834
-0.0796356201171875;-0.1827545166015625;-0.98748779296875;0.021581990644335747;-0.030787739902734756;0.00310497940517962
-0.0796356201171875;-0.1827545166015625;-0.98748779296875;0.021581990644335747;-0.030787739902734756;0.00310497940517962
-0.0796356201171875;-0.1827545166015625;-0.98748779296875;0.021581990644335747;-0.030787739902734756;0.00310497940517962
-0.0796356201171875;-0.1827545166015625;-0.98748779296875;0.021581990644335747;-0.030787739902734756;0.00310497940517962
-0.0796356201171875;-0.1827545166015625;-0.98748779296875;0.021581990644335747;-0.030787739902734756;0.00310497940517962
-0.0801544189453125;-0.1801300048828125;-0.987701416015625;0.018210429698228836;-0.031316377222537994;0.00016351809608750045
-0.0801544189453125;-0.1801300048828125;-0.987701416015625;0.018210429698228836;-0.031316377222537994;0.00016351809608750045
-0.0801544189453125;-0.1801300048828125;-0.987701416015625;0.018210429698228836;-0.031316377222537994;0.00016351809608750045
-0.0801544189453125;-0.1801300048828125;-0.987701416015625;0.018210429698228836;-0.031316377222537994;0.00016351809608750045
-0.0801544189453125;-0.1801300048828125;-0.987701416015625;0.018210429698228836;-0.031316377222537994;0.00016351809608750045
-0.0803985595703125;-0.180908203125;-0.98883056640625;0.017483118921518326;-0.030005834996700287;0.0013968279818072915
-0.0803985595703125;-0.180908203125;-0.98883056640625;0.017483118921518326;-0.030005834996700287;0.0013968279818072915
-0.0803985595703125;-0.180908203125;-0.98883056640625;0.017483118921518326;-0.030005834996700287;0.0013968279818072915
-0.0803985595703125;-0.180908203125;-0.98883056640625;0.017483118921518326;-0.030005834996700287;0.0013968279818072915
-0.0803985595703125;-0.180908203125;-0.98883056640625;0.017483118921518326;-0.030005834996700287;0.0013968279818072915
-0.081085205078125;-0.1815948486328125;-0.9911346435546875;0.021555092185735703;-0.025707494467496872;0.0035595810040831566
-0.081085205078125;-0.1815948486328125;-0.9911346435546875;0.021555092185735703;-0.025707494467496872;0.0035595810040831566
-0.081085205078125;-0.1815948486328125;-0.9911346435546875;0.021555092185735703;-0.025707494467496872;0.0035595810040831566
-0.081085205078125;-0.1815948486328125;-0.9911346435546875;0.021555092185735703;-0.025707494467496872;0.0035595810040831566
-0.081085205078125;-0.1815948486328125;-0.9911346435546875;0.021555092185735703;-0.025707494467496872;0.0035595810040831566
-0.0814208984375;-0.1834869384765625;-0.994171142578125;0.025960760191082954;-0.02666436694562435;-0.0006242449744604528
-0.0814208984375;-0.1834869384765625;-0.994171142578125;0.025960760191082954;-0.02666436694562435;-0.0006242449744604528
-0.0814208984375;-0.1834869384765625;-0.994171142578125;0.025960760191082954;-0.02666436694562435;-0.0006242449744604528
-0.0814208984375;-0.1834869384765625;-0.994171142578125;0.025960760191082954;-0.02666436694562435;-0.0006242449744604528
-0.0814208984375;-0.1834869384765625;-0.994171142578125;0.025960760191082954;-0.02666436694562435;-0.0006242449744604528
-0.0821075439453125;-0.18487548828125;-0.996185302734375;0.03494520112872124;-0.025853168219327927;0.0002924150903709233
-0.0821075439453125;-0.18487548828125;-0.996185302734375;0.03494520112872124;-0.025853168219327927;0.0002924150903709233
-0.0821075439453125;-0.18487548828125;-0.996185302734375;0.03494520112872124;-0.025853168219327927;0.0002924150903709233
-0.0821075439453125;-0.18487548828125;-0.996185302734375;0.03494520112872124;-0.025853168219327927;0.0002924150903709233
-0.0821075439453125;-0.18487548828125;-0.996185302734375;0.03494520112872124;-0.025853168219327927;0.0002924150903709233
-0.08258056640625;-0.1876068115234375;-0.998260498046875;0.04773210361599922;-0.021433919668197632;0.003186738584190607
-0.08258056640625;-0.1876068115234375;-0.998260498046875;0.04773210361599922;-0.021433919668197632;0.003186738584190607
-0.08258056640625;-0.1876068115234375;-0.998260498046875;0.04773210361599922;-0.021433919668197632;0.003186738584190607
-0.08258056640625;-0.1876068115234375;-0.998260498046875;0.04773210361599922;-0.021433919668197632;0.003186738584190607
-0.08258056640625;-0.1876068115234375;-0.998260498046875;0.04773210361599922;-0.021433919668197632;0.003186738584190607
-0.0834197998046875;-0.1897430419921875;-1.00054931640625;0.058874234557151794;-0.025546904653310776;0.005054679699242115
-0.0834197998046875;-0.1897430419921875;-1.00054931640625;0.058874234557151794;-0.025546904653310776;0.005054679699242115
-0.0834197998046875;-0.1897430419921875;-1.00054931640625;0.058874234557151794;-0.025546904653310776;0.005054679699242115
-0.0834197998046875;-0.1897430419921875;-1.00054931640625;0.058874234557151794;-0.025546904653310776;0.005054679699242115
-0.0834197998046875;-0.1897430419921875;-1.00054931640625;0.058874234557151794;-0.025546904653310776;0.005054679699242115
-0.084381103515625;-0.1935577392578125;-1.00244140625;0.06444902718067169;-0.02478577382862568;-0.002016811864450574
-0.084381103515625;-0.1935577392578125;-1.00244140625;0.06444902718067169;-0.02478577382862568;-0.002016811864450574
-0.084381103515625;-0.1935577392578125;-1.00244140625;0.06444902718067169;-0.02478577382862568;-0.002016811864450574
-0.084381103515625;-0.1935577392578125;-1.00244140625;0.06444902718067169;-0.02478577382862568;-0.002016811864450574
-0.084381103515625;-0.1935577392578125;-1.00244140625;0.06444902718067169;-0.02478577382862568;-0.002016811864450574
-0.085113525390625;-0.194580078125;-1.001739501953125;0.06854870170354843;-0.0236430112272501;0.0013054815353825688
-0.085113525390625;-0.194580078125;-1.001739501953125;0.06854870170354843;-0.0236430112272501;0.0013054815353825688
-0.085113525390625;-0.194580078125;-1.001739501953125;0.06854870170354843;-0.0236430112272501;0.0013054815353825688
-0.085113525390625;-0.194580078125;-1.001739501953125;0.06854870170354843;-0.0236430112272501;0.0013054815353825688
-0.085113525390625;-0.194580078125;-1.001739501953125;0.06854870170354843;-0.0236430112272501;0.0013054815353825688
-0.0863494873046875;-0.1965789794921875;-1.001708984375;0.06973593682050705;-0.02851313352584839;0.0015414375811815262
-0.0863494873046875;-0.1965789794921875;-1.001708984375;0.06973593682050705;-0.02851313352584839;0.0015414375811815262
-0.0863494873046875;-0.1965789794921875;-1.001708984375;0.06973593682050705;-0.02851313352584839;0.0015414375811815262
-0.0863494873046875;-0.1965789794921875;-1.001708984375;0.06973593682050705;-0.02851313352584839;0.0015414375811815262
-0.0863494873046875;-0.1965789794921875;-1.001708984375;0.06973593682050705;-0.02851313352584839;0.0015414375811815262
-0.086761474609375;-0.198760986328125;-1.000213623046875;0.0695766806602478;-0.03153742104768753;0.00030173614504747093
-0.086761474609375;-0.198760986328125;-1.000213623046875;0.0695766806602478;-0.03153742104768753;0.00030173614504747093
-0.086761474609375;-0.198760986328125;-1.000213623046875;0.0695766806602478;-0.03153742104768753;0.00030173614504747093
-0.086761474609375;-0.198760986328125;-1.000213623046875;0.0695766806602478;-0.03153742104768753;0.00030173614504747093
-0.086761474609375;-0.198760986328125;-1.000213623046875;0.0695766806602478;-0.03153742104768753;0.00030173614504747093
-0.08782958984375;-0.19879150390625;-0.9989166259765625;0.06570497900247574;-0.03182078152894974;0.0009100021561607718
-0.08782958984375;-0.19879150390625;-0.9989166259765625;0.06570497900247574;-0.03182078152894974;0.0009100021561607718
-0.08782958984375;-0.19879150390625;-0.9989166259765625;0.06570497900247574;-0.03182078152894974;0.0009100021561607718
-0.08782958984375;-0.19879150390625;-0.9989166259765625;0.06570497900247574;-0.03182078152894974;0.0009100021561607718
-0.08782958984375;-0.19879150390625;-0.9989166259765625;0.0562177337706089;-0.036743100732564926;0.0027835359796881676
-0.087799072265625;-0.19964599609375;-0.9966888427734375;0.0562177337706089;-0.036743100732564926;0.0027835359796881676
-0.087799072265625;-0.19964599609375;-0.9966888427734375;0.0562177337706089;-0.036743100732564926;0.0027835359796881676
-0.087799072265625;-0.19964599609375;-0.9966888427734375;0.0562177337706089;-0.036743100732564926;0.0027835359796881676
-0.087799072265625;-0.19964599609375;-0.9966888427734375;0.0562177337706089;-0.036743100732564926;0.0027835359796881676
-0.087799072265625;-0.19964599609375;-0.9966888427734375;0.04633846879005432;-0.03700701892375946;0.0028881982434540987
-0.087249755859375;-0.199432373046875;-0.994110107421875;0.04633846879005432;-0.03700701892375946;0.0028881982434540987
-0.087249755859375;-0.199432373046875;-0.994110107421875;0.04633846879005432;-0.03700701892375946;0.0028881982434540987
-0.087249755859375;-0.199432373046875;-0.994110107421875;0.04633846879005432;-0.03700701892375946;0.0028881982434540987
-0.087249755859375;-0.199432373046875;-0.994110107421875;0.04633846879005432;-0.03700701892375946;0.0028881982434540987
-0.0867767333984375;-0.1985321044921875;-0.992218017578125;0.04140176996588707;-0.037702903151512146;0.004228034522384405
-0.0867767333984375;-0.1985321044921875;-0.992218017578125;0.04140176996588707;-0.037702903151512146;0.004228034522384405
-0.0867767333984375;-0.1985321044921875;-0.992218017578125;0.04140176996588707;-0.037702903151512146;0.004228034522384405
-0.0867767333984375;-0.1985321044921875;-0.992218017578125;0.04140176996588707;-0.037702903151512146;0.004228034522384405
-0.0867767333984375;-0.1985321044921875;-0.992218017578125;0.04140176996588707;-0.037702903151512146;0.004228034522384405
-0.0855865478515625;-0.1980438232421875;-0.99176025390625;0.029864421114325523;-0.0357486754655838;0.00561021501198411
-0.0855865478515625;-0.1980438232421875;-0.99176025390625;0.029864421114325523;-0.0357486754655838;0.00561021501198411
-0.0855865478515625;-0.1980438232421875;-0.99176025390625;0.029864421114325523;-0.0357486754655838;0.00561021501198411
-0.0855865478515625;-0.1980438232421875;-0.99176025390625;0.029864421114325523;-0.0357486754655838;0.00561021501198411
-0.0855865478515625;-0.1980438232421875;-0.99176025390625;0.029864421114325523;-0.0357486754655838;0.00561021501198411
-0.0844573974609375;-0.1985626220703125;-0.9923095703125;0.02726411074399948;-0.03507702797651291;0.005784119479358196
-0.0844573974609375;-0.1985626220703125;-0.9923095703125;0.02726411074399948;-0.03507702797651291;0.005784119479358196
-0.0844573974609375;-0.1985626220703125;-0.9923095703125;0.02726411074399948;-0.03507702797651291;0.005784119479358196
-0.0844573974609375;-0.1985626220703125;-0.9923095703125;0.02726411074399948;-0.03507702797651291;0.005784119479358196
-0.0844573974609375;-0.1985626220703125;-0.9923095703125;0.02726411074399948;-0.03507702797651291;0.005784119479358196
-0.084442138671875;-0.19915771484375;-0.9929962158203125;0.027536818757653236;-0.031498271971940994;0.007849400863051414
-0.084442138671875;-0.19915771484375;-0.9929962158203125;0.027536818757653236;-0.031498271971940994;0.007849400863051414
-0.084442138671875;-0.19915771484375;-0.9929962158203125;0.027536818757653236;-0.031498271971940994;0.007849400863051414
-0.084442138671875;-0.19915771484375;-0.9929962158203125;0.027536818757653236;-0.031498271971940994;0.007849400863051414
-0.084442138671875;-0.19915771484375;-0.9929962158203125;0.027536818757653236;-0.031498271971940994;0.007849400863051414
-0.084747314453125;-0.199066162109375;-0.994049072265625;0.026927754282951355;-0.027066238224506378;0.004565989598631859
-0.084747314453125;-0.199066162109375;-0.994049072265625;0.026927754282951355;-0.027066238224506378;0.004565989598631859
-0.084747314453125;-0.199066162109375;-0.994049072265625;0.026927754282951355;-0.027066238224506378;0.004565989598631859
-0.084747314453125;-0.199066162109375;-0.994049072265625;0.026927754282951355;-0.027066238224506378;0.004565989598631859
-0.084747314453125;-0.199066162109375;-0.994049072265625;0.026927754282951355;-0.027066238224506378;0.004565989598631859
-0.085723876953125;-0.199127197265625;-0.9969940185546875;0.03225833922624588;-0.017231984063982964;0.002695119008421898
-0.085723876953125;-0.199127197265625;-0.9969940185546875;0.03225833922624588;-0.017231984063982964;0.002695119008421898
-0.085723876953125;-0.199127197265625;-0.9969940185546875;0.03225833922624588;-0.017231984063982964;0.002695119008421898
-0.085723876953125;-0.199127197265625;-0.9969940185546875;0.03225833922624588;-0.017231984063982964;0.002695119008421898
-0.085723876953125;-0.199127197265625;-0.9969940185546875;0.03225833922624588;-0.017231984063982964;0.002695119008421898
-0.0872650146484375;-0.1996307373046875;-0.99859619140625;0.0449400432407856;-0.01932123303413391;-0.0021576930303126574
-0.0872650146484375;-0.1996307373046875;-0.99859619140625;0.0449400432407856;-0.01932123303413391;-0.0021576930303126574
-0.0872650146484375;-0.1996307373046875;-0.99859619140625;0.0449400432407856;-0.01932123303413391;-0.0021576930303126574
-0.0872650146484375;-0.1996307373046875;-0.99859619140625;0.0449400432407856;-0.01932123303413391;-0.0021576930303126574
-0.0872650146484375;-0.1996307373046875;-0.99859619140625;0.0449400432407856;-0.01932123303413391;-0.0021576930303126574
-0.0877838134765625;-0.199737548828125;-1.001800537109375;0.05307413637638092;-0.01745435781776905;-0.00038642468280158937
-0.0877838134765625;-0.199737548828125;-1.001800537109375;0.05307413637638092;-0.01745435781776905;-0.00038642468280158937
-0.0877838134765625;-0.199737548828125;-1.001800537109375;0.05307413637638092;-0.01745435781776905;-0.00038642468280158937
-0.0877838134765625;-0.199737548828125;-1.001800537109375;0.05307413637638092;-0.01745435781776905;-0.00038642468280158937
-0.0877838134765625;-0.199737548828125;-1.001800537109375;0.05307413637638092;-0.01745435781776905;-0.00038642468280158937
-0.0884857177734375;-0.2016754150390625;-1.0049285888671875;0.06596729904413223;-0.015335813164710999;-0.0032692966051399708
-0.0884857177734375;-0.2016754150390625;-1.0049285888671875;0.06596729904413223;-0.015335813164710999;-0.0032692966051399708
-0.0884857177734375;-0.2016754150390625;-1.0049285888671875;0.06596729904413223;-0.015335813164710999;-0.0032692966051399708
-0.0884857177734375;-0.2016754150390625;-1.0049285888671875;0.06596729904413223;-0.015335813164710999;-0.0032692966051399708
-0.0884857177734375;-0.2016754150390625;-1.0049285888671875;0.06596729904413223;-0.015335813164710999;-0.0032692966051399708
-0.0880584716796875;-0.201507568359375;-1.0042877197265625;0.06769329309463501;-0.018625348806381226;-0.005446963477879763
-0.0880584716796875;-0.201507568359375;-1.0042877197265625;0.06769329309463501;-0.018625348806381226;-0.005446963477879763
-0.0880584716796875;-0.201507568359375;-1.0042877197265625;0.06769329309463501;-0.018625348806381226;-0.005446963477879763
-0.0880584716796875;-0.201507568359375;-1.0042877197265625;0.06769329309463501;-0.018625348806381226;-0.005446963477879763
-0.0880584716796875;-0.201507568359375;-1.0042877197265625;0.06769329309463501;-0.018625348806381226;-0.005446963477879763
-0.087249755859375;-0.2020111083984375;-0.9993133544921875;0.06698595732450485;-0.006491188891232014;-0.004698615055531263
-0.087249755859375;-0.2020111083984375;-0.9993133544921875;0.06698595732450485;-0.006491188891232014;-0.004698615055531263
-0.087249755859375;-0.2020111083984375;-0.9993133544921875;0.06698595732450485;-0.006491188891232014;-0.004698615055531263
-0.087249755859375;-0.2020111083984375;-0.9993133544921875;0.06698595732450485;-0.006491188891232014;-0.004698615055531263
-0.087249755859375;-0.2020111083984375;-0.9993133544921875;0.06698595732450485;-0.006491188891232014;-0.004698615055531263
-0.087127685546875;-0.2032623291015625;-0.99114990234375;0.05125812813639641;0.012719789519906044;-0.0010106696281582117
-0.087127685546875;-0.2032623291015625;-0.99114990234375;0.05125812813639641;0.012719789519906044;-0.0010106696281582117
-0.087127685546875;-0.2032623291015625;-0.99114990234375;0.05125812813639641;0.012719789519906044;-0.0010106696281582117
-0.087127685546875;-0.2032623291015625;-0.99114990234375;0.05125812813639641;0.012719789519906044;-0.0010106696281582117
-0.087127685546875;-0.2032623291015625;-0.99114990234375;0.05125812813639641;0.012719789519906044;-0.0010106696281582117
-0.0868988037109375;-0.2026824951171875;-0.987335205078125;0.03718065842986107;0.021316474303603172;0.000898550555575639
-0.0868988037109375;-0.2026824951171875;-0.987335205078125;0.03718065842986107;0.021316474303603172;0.000898550555575639
-0.0868988037109375;-0.2026824951171875;-0.987335205078125;0.03718065842986107;0.021316474303603172;0.000898550555575639
-0.0868988037109375;-0.2026824951171875;-0.987335205078125;0.03718065842986107;0.021316474303603172;0.000898550555575639
-0.0868988037109375;-0.2026824951171875;-0.987335205078125;0.03718065842986107;0.021316474303603172;0.000898550555575639
-0.08685302734375;-0.2026824951171875;-0.9872894287109375;0.020664265379309654;0.017176590859889984;0.002124403603374958
-0.08685302734375;-0.2026824951171875;-0.9872894287109375;0.020664265379309654;0.017176590859889984;0.002124403603374958
-0.08685302734375;-0.2026824951171875;-0.9872894287109375;0.020664265379309654;0.017176590859889984;0.002124403603374958
-0.08685302734375;-0.2026824951171875;-0.9872894287109375;0.020664265379309654;0.017176590859889984;0.002124403603374958
-0.08685302734375;-0.2026824951171875;-0.9872894287109375;0.020664265379309654;0.017176590859889984;0.002124403603374958
-0.087860107421875;-0.2005157470703125;-0.9901275634765625;0.007282680366188288;0.005583317019045353;0.0015283881220966578
-0.087860107421875;-0.2005157470703125;-0.9901275634765625;0.007282680366188288;0.005583317019045353;0.0015283881220966578
-0.087860107421875;-0.2005157470703125;-0.9901275634765625;0.007282680366188288;0.005583317019045353;0.0015283881220966578
-0.087860107421875;-0.2005157470703125;-0.9901275634765625;0.007282680366188288;0.005583317019045353;0.0015283881220966578
-0.087860107421875;-0.2005157470703125;-0.9901275634765625;0.007282680366188288;0.005583317019045353;0.0015283881220966578
-0.088043212890625;-0.1988525390625;-0.9906768798828125;-0.00464615086093545;-0.0070280819199979305;0.0022772690281271935
-0.088043212890625;-0.1988525390625;-0.9906768798828125;-0.00464615086093545;-0.0070280819199979305;0.0022772690281271935
-0.088043212890625;-0.1988525390625;-0.9906768798828125;-0.00464615086093545;-0.0070280819199979305;0.0022772690281271935
-0.088043212890625;-0.1988525390625;-0.9906768798828125;-0.00464615086093545;-0.0070280819199979305;0.0022772690281271935
-0.088043212890625;-0.1988525390625;-0.9906768798828125;-0.00464615086093545;-0.0070280819199979305;0.0022772690281271935
-0.08734130859375;-0.19696044921875;-0.989715576171875;-0.012199941091239452;-0.012996491976082325;0.005231780000030994
-0.08734130859375;-0.19696044921875;-0.989715576171875;-0.012199941091239452;-0.012996491976082325;0.005231780000030994
-0.08734130859375;-0.19696044921875;-0.989715576171875;-0.012199941091239452;-0.012996491976082325;0.005231780000030994
-0.08734130859375;-0.19696044921875;-0.989715576171875;-0.012199941091239452;-0.012996491976082325;0.005231780000030994
-0.08734130859375;-0.19696044921875;-0.989715576171875;-0.012199941091239452;-0.012996491976082325;0.005231780000030994
-0.085906982421875;-0.1948089599609375;-0.9903106689453125;-0.017100956290960312;-0.010849185287952423;0.008833971805870533
-0.085906982421875;-0.1948089599609375;-0.9903106689453125;-0.017100956290960312;-0.010849185287952423;0.008833971805870533
-0.085906982421875;-0.1948089599609375;-0.9903106689453125;-0.017100956290960312;-0.010849185287952423;0.008833971805870533
-0.085906982421875;-0.1948089599609375;-0.9903106689453125;-0.017100956290960312;-0.010849185287952423;0.008833971805870533
-0.085906982421875;-0.1948089599609375;-0.9903106689453125;-0.017100956290960312;-0.010849185287952423;0.008833971805870533
-0.0865631103515625;-0.194549560546875;-0.9903717041015625;-0.026031333953142166;-0.00449781259521842;0.00737402681261301
-0.0865631103515625;-0.194549560546875;-0.9903717041015625;-0.026031333953142166;-0.00449781259521842;0.00737402681261301
-0.0865631103515625;-0.194549560546875;-0.9903717041015625;-0.026031333953142166;-0.00449781259521842;0.00737402681261301
-0.0865631103515625;-0.194549560546875;-0.9903717041015625;-0.026031333953142166;-0.00449781259521842;0.00737402681261301
-0.0865631103515625;-0.194549560546875;-0.9903717041015625;-0.026031333953142166;-0.00449781259521842;0.00737402681261301
-0.0872650146484375;-0.1949615478515625;-0.9868316650390625;-0.0430888794362545;0.010587130673229694;0.005920739844441414
-0.0872650146484375;-0.1949615478515625;-0.9868316650390625;-0.0430888794362545;0.010587130673229694;0.005920739844441414
-0.0872650146484375;-0.1949615478515625;-0.9868316650390625;-0.0430888794362545;0.010587130673229694;0.005920739844441414
-0.0872650146484375;-0.1949615478515625;-0.9868316650390625;-0.0430888794362545;0.010587130673229694;0.005920739844441414
-0.0872650146484375;-0.1949615478515625;-0.9868316650390625;-0.0430888794362545;0.010587130673229694;0.005920739844441414
-0.0897064208984375;-0.1969146728515625;-0.980224609375;-0.058876100927591324;0.025680329650640488;0.001784850494004786
-0.0897064208984375;-0.1969146728515625;-0.980224609375;-0.058876100927591324;0.025680329650640488;0.001784850494004786
-0.0897064208984375;-0.1969146728515625;-0.980224609375;-0.058876100927591324;0.025680329650640488;0.001784850494004786
-0.0897064208984375;-0.1969146728515625;-0.980224609375;-0.058876100927591324;0.025680329650640488;0.001784850494004786
-0.0897064208984375;-0.1969146728515625;-0.980224609375;-0.058876100927591324;0.025680329650640488;0.001784850494004786
-0.08966064453125;-0.19842529296875;-0.9804534912109375;-0.0699404701590538;0.03370656445622444;0.0019571571610867977
-0.08966064453125;-0.19842529296875;-0.9804534912109375;-0.0699404701590538;0.03370656445622444;0.0019571571610867977
-0.08966064453125;-0.19842529296875;-0.9804534912109375;-0.0699404701590538;0.03370656445622444;0.0019571571610867977
-0.08966064453125;-0.19842529296875;-0.9804534912109375;-0.0699404701590538;0.03370656445622444;0.0019571571610867977
-0.08966064453125;-0.19842529296875;-0.9804534912109375;-0.0699404701590538;0.03370656445622444;0.0019571571610867977
-0.0878753662109375;-0.1996612548828125;-0.988067626953125;-0.05945613607764244;0.027087276801466942;-0.0018399780383333564
-0.0878753662109375;-0.1996612548828125;-0.988067626953125;-0.05945613607764244;0.027087276801466942;-0.0018399780383333564
-0.0878753662109375;-0.1996612548828125;-0.988067626953125;-0.05945613607764244;0.027087276801466942;-0.0018399780383333564
-0.0878753662109375;-0.1996612548828125;-0.988067626953125;-0.05945613607764244;0.027087276801466942;-0.0018399780383333564
-0.0878753662109375;-0.1996612548828125;-0.988067626953125;-0.05945613607764244;0.027087276801466942;-0.0018399780383333564
-0.0856475830078125;-0.1991119384765625;-0.9957733154296875;-0.03935885801911354;0.006816893350332975;-0.0001954760227818042
-0.0856475830078125;-0.1991119384765625;-0.9957733154296875;-0.03935885801911354;0.006816893350332975;-0.0001954760227818042
-0.0856475830078125;-0.1991119384765625;-0.9957733154296875;-0.03935885801911354;0.006816893350332975;-0.0001954760227818042
-0.0856475830078125;-0.1991119384765625;-0.9957733154296875;-0.03935885801911354;0.006816893350332975;-0.0001954760227818042
-0.0856475830078125;-0.1991119384765625;-0.9957733154296875;-0.03935885801911354;0.006816893350332975;-0.0001954760227818042
-0.0842132568359375;-0.2005767822265625;-1.0021514892578125;-0.009122658520936966;-0.016595488414168358;-0.0021888520568609238
-0.0842132568359375;-0.2005767822265625;-1.0021514892578125;-0.009122658520936966;-0.016595488414168358;-0.0021888520568609238
-0.0842132568359375;-0.2005767822265625;-1.0021514892578125;-0.009122658520936966;-0.016595488414168358;-0.0021888520568609238
-0.0842132568359375;-0.2005767822265625;-1.0021514892578125;-0.009122658520936966;-0.016595488414168358;-0.0021888520568609238
-0.0842132568359375;-0.2005767822265625;-1.0021514892578125;-0.009122658520936966;-0.016595488414168358;-0.0021888520568609238
-0.0833282470703125;-0.2019195556640625;-1.0051727294921875;0.021859493106603622;-0.027045998722314835;-0.001457548001781106
-0.0833282470703125;-0.2019195556640625;-1.0051727294921875;0.021859493106603622;-0.027045998722314835;-0.001457548001781106
-0.0833282470703125;-0.2019195556640625;-1.0051727294921875;0.021859493106603622;-0.027045998722314835;-0.001457548001781106
-0.0833282470703125;-0.2019195556640625;-1.0051727294921875;0.021859493106603622;-0.027045998722314835;-0.001457548001781106
-0.0833282470703125;-0.2019195556640625;-1.0051727294921875;0.021859493106603622;-0.027045998722314835;-0.001457548001781106
-0.0840301513671875;-0.2037506103515625;-1.00506591796875;0.04951242357492447;-0.02750219777226448;-0.0013638047967106104
-0.0840301513671875;-0.2037506103515625;-1.00506591796875;0.04951242357492447;-0.02750219777226448;-0.0013638047967106104
-0.0840301513671875;-0.2037506103515625;-1.00506591796875;0.04951242357492447;-0.02750219777226448;-0.0013638047967106104
-0.0840301513671875;-0.2037506103515625;-1.00506591796875;0.04951242357492447;-0.02750219777226448;-0.0013638047967106104
-0.0840301513671875;-0.2037506103515625;-1.00506591796875;0.04951242357492447;-0.02750219777226448;-0.0013638047967106104
-0.0871429443359375;-0.206024169921875;-1.0019378662109375;0.0750577300786972;-0.01990819349884987;-0.005706089083105326
-0.0871429443359375;-0.206024169921875;-1.0019378662109375;0.0750577300786972;-0.01990819349884987;-0.005706089083105326
-0.0871429443359375;-0.206024169921875;-1.0019378662109375;0.0750577300786972;-0.01990819349884987;-0.005706089083105326
-0.0871429443359375;-0.206024169921875;-1.0019378662109375;0.0750577300786972;-0.01990819349884987;-0.005706089083105326
-0.0871429443359375;-0.206024169921875;-1.0019378662109375;0.0750577300786972;-0.01990819349884987;-0.005706089083105326
-0.0886993408203125;-0.20672607421875;-0.9991607666015625;0.09025852382183075;-0.008461927995085716;-0.0072805495001375675
-0.0886993408203125;-0.20672607421875;-0.9991607666015625;0.09025852382183075;-0.008461927995085716;-0.0072805495001375675
-0.0886993408203125;-0.20672607421875;-0.9991607666015625;0.09025852382183075;-0.008461927995085716;-0.0072805495001375675
-0.0886993408203125;-0.20672607421875;-0.9991607666015625;0.09025852382183075;-0.008461927995085716;-0.0072805495001375675
-0.0886993408203125;-0.20672607421875;-0.9991607666015625;0.09025852382183075;-0.008461927995085716;-0.0072805495001375675
-0.08978271484375;-0.2069549560546875;-0.9967803955078125;0.10112608224153519;0.004318581894040108;-0.00794234499335289
-0.08978271484375;-0.2069549560546875;-0.9967803955078125;0.10112608224153519;0.004318581894040108;-0.00794234499335289
-0.08978271484375;-0.2069549560546875;-0.9967803955078125;0.10112608224153519;0.004318581894040108;-0.00794234499335289
-0.08978271484375;-0.2069549560546875;-0.9967803955078125;0.10112608224153519;0.004318581894040108;-0.00794234499335289
-0.08978271484375;-0.2069549560546875;-0.9967803955078125;0.10112608224153519;0.004318581894040108;-0.00794234499335289
-0.0894622802734375;-0.2056884765625;-0.9951934814453125;0.09983178973197937;0.011215370148420334;-0.005556685384362936
-0.0894622802734375;-0.2056884765625;-0.9951934814453125;0.09983178973197937;0.011215370148420334;-0.005556685384362936
-0.0894622802734375;-0.2056884765625;-0.9951934814453125;0.09983178973197937;0.011215370148420334;-0.005556685384362936
-0.0894622802734375;-0.2056884765625;-0.9951934814453125;0.09983178973197937;0.011215370148420334;-0.005556685384362936
-0.0894622802734375;-0.2056884765625;-0.9951934814453125;0.09983178973197937;0.011215370148420334;-0.005556685384362936
-0.0892333984375;-0.2050628662109375;-0.994354248046875;0.08985372632741928;0.007309844717383385;-0.005458415020257235
-0.0892333984375;-0.2050628662109375;-0.994354248046875;0.08985372632741928;0.007309844717383385;-0.005458415020257235
-0.0892333984375;-0.2050628662109375;-0.994354248046875;0.08985372632741928;0.007309844717383385;-0.005458415020257235
-0.0892333984375;-0.2050628662109375;-0.994354248046875;0.08985372632741928;0.007309844717383385;-0.005458415020257235
-0.0892333984375;-0.2050628662109375;-0.994354248046875;0.08985372632741928;0.007309844717383385;-0.005458415020257235
-0.08831787109375;-0.2053680419921875;-0.9930572509765625;0.07866338640451431;0.00293400464579463;-0.005373193882405758
-0.08831787109375;-0.2053680419921875;-0.9930572509765625;0.07866338640451431;0.00293400464579463;-0.005373193882405758
-0.08831787109375;-0.2053680419921875;-0.9930572509765625;0.07866338640451431;0.00293400464579463;-0.005373193882405758
-0.08831787109375;-0.2053680419921875;-0.9930572509765625;0.07866338640451431;0.00293400464579463;-0.005373193882405758
-0.08831787109375;-0.2053680419921875;-0.9930572509765625;0.07866338640451431;0.00293400464579463;-0.005373193882405758
-0.0883941650390625;-0.20526123046875;-0.992462158203125;0.06396566331386566;0.002326803747564554;-0.0027417242527008057
-0.0883941650390625;-0.20526123046875;-0.992462158203125;0.06396566331386566;0.002326803747564554;-0.0027417242527008057
-0.0883941650390625;-0.20526123046875;-0.992462158203125;0.06396566331386566;0.002326803747564554;-0.0027417242527008057
-0.0883941650390625;-0.20526123046875;-0.992462158203125;0.06396566331386566;0.002326803747564554;-0.0027417242527008057
-0.0883941650390625;-0.20526123046875;-0.992462158203125;0.06396566331386566;0.002326803747564554;-0.0027417242527008057
-0.08782958984375;-0.2052764892578125;-0.991790771484375;0.04778030514717102;-0.006083458662033081;0.00039787625428289175
-0.08782958984375;-0.2052764892578125;-0.991790771484375;0.04778030514717102;-0.006083458662033081;0.00039787625428289175
-0.08782958984375;-0.2052764892578125;-0.991790771484375;0.04778030514717102;-0.006083458662033081;0.00039787625428289175
-0.08782958984375;-0.2052764892578125;-0.991790771484375;0.04778030514717102;-0.006083458662033081;0.00039787625428289175
-0.08782958984375;-0.2052764892578125;-0.991790771484375;0.04778030514717102;-0.006083458662033081;0.00039787625428289175
-0.088348388671875;-0.203887939453125;-0.99200439453125;0.03708957880735397;-0.00893623661249876;0.00031372037483379245
-0.088348388671875;-0.203887939453125;-0.99200439453125;0.03708957880735397;-0.00893623661249876;0.00031372037483379245
-0.088348388671875;-0.203887939453125;-0.99200439453125;0.03708957880735397;-0.00893623661249876;0.00031372037483379245
-0.088348388671875;-0.203887939453125;-0.99200439453125;0.03708957880735397;-0.00893623661249876;0.00031372037483379245
-0.088348388671875;-0.203887939453125;-0.99200439453125;0.03708957880735397;-0.00893623661249876;0.00031372037483379245
-0.0880279541015625;-0.2039642333984375;-0.9929656982421875;0.026206303387880325;-0.013485448434948921;0.0007946872501634061
-0.0880279541015625;-0.2039642333984375;-0.9929656982421875;0.026206303387880325;-0.013485448434948921;0.0007946872501634061
-0.0880279541015625;-0.2039642333984375;-0.9929656982421875;0.026206303387880325;-0.013485448434948921;0.0007946872501634061
-0.0880279541015625;-0.2039642333984375;-0.9929656982421875;0.026206303387880325;-0.013485448434948921;0.0007946872501634061
-0.0880279541015625;-0.2039642333984375;-0.9929656982421875;0.026206303387880325;-0.013485448434948921;0.0007946872501634061
-0.0872344970703125;-0.203094482421875;-0.9938507080078125;0.02233220264315605;-0.010241984389722347;0.0012114719720557332
-0.0872344970703125;-0.203094482421875;-0.9938507080078125;0.02233220264315605;-0.010241984389722347;0.0012114719720557332
-0.0872344970703125;-0.203094482421875;-0.9938507080078125;0.02233220264315605;-0.010241984389722347;0.0012114719720557332
-0.0872344970703125;-0.203094482421875;-0.9938507080078125;0.02233220264315605;-0.010241984389722347;0.0012114719720557332
-0.0872344970703125;-0.203094482421875;-0.9938507080078125;0.019180085510015488;-0.012513927184045315;-0.0012367720482870936
-0.0877532958984375;-0.2034912109375;-0.9951019287109375;0.019180085510015488;-0.012513927184045315;-0.0012367720482870936
-0.0877532958984375;-0.2034912109375;-0.9951019287109375;0.019180085510015488;-0.012513927184045315;-0.0012367720482870936
-0.0877532958984375;-0.2034912109375;-0.9951019287109375;0.019180085510015488;-0.012513927184045315;-0.0012367720482870936
-0.0877532958984375;-0.2034912109375;-0.9951019287109375;0.019180085510015488;-0.012513927184045315;-0.0012367720482870936
-0.0877532958984375;-0.2034912109375;-0.9951019287109375;0.019640546292066574;-0.008224906399846077;0.0012173309223726392
-0.087493896484375;-0.20538330078125;-0.9956817626953125;0.019640546292066574;-0.008224906399846077;0.0012173309223726392
-0.087493896484375;-0.20538330078125;-0.9956817626953125;0.019640546292066574;-0.008224906399846077;0.0012173309223726392
-0.087493896484375;-0.20538330078125;-0.9956817626953125;0.019640546292066574;-0.008224906399846077;0.0012173309223726392
-0.087493896484375;-0.20538330078125;-0.9956817626953125;0.019640546292066574;-0.008224906399846077;0.0012173309223726392
-0.087493896484375;-0.20538330078125;-0.9956817626953125;0.020085027441382408;-0.013546967878937721;-0.0008325041271746159
-0.08685302734375;-0.206817626953125;-0.9966583251953125;0.020085027441382408;-0.013546967878937721;-0.0008325041271746159
-0.08685302734375;-0.206817626953125;-0.9966583251953125;0.020085027441382408;-0.013546967878937721;-0.0008325041271746159
-0.08685302734375;-0.206817626953125;-0.9966583251953125;0.020085027441382408;-0.013546967878937721;-0.0008325041271746159
-0.08685302734375;-0.206817626953125;-0.9966583251953125;0.020085027441382408;-0.013546967878937721;-0.0008325041271746159
-0.0880889892578125;-0.207977294921875;-0.9967803955078125;0.026392191648483276;-0.011566108092665672;-0.0019984361715614796
-0.0880889892578125;-0.207977294921875;-0.9967803955078125;0.026392191648483276;-0.011566108092665672;-0.0019984361715614796
-0.0880889892578125;-0.207977294921875;-0.9967803955078125;0.026392191648483276;-0.011566108092665672;-0.0019984361715614796
-0.0880889892578125;-0.207977294921875;-0.9967803955078125;0.026392191648483276;-0.011566108092665672;-0.0019984361715614796
-0.0880889892578125;-0.207977294921875;-0.9967803955078125;0.026392191648483276;-0.011566108092665672;-0.0019984361715614796
-0.0885772705078125;-0.2102203369140625;-0.9983978271484375;0.03696254640817642;-0.018450113013386726;-0.0019081549253314734
-0.0885772705078125;-0.2102203369140625;-0.9983978271484375;0.03696254640817642;-0.018450113013386726;-0.0019081549253314734
-0.0885772705078125;-0.2102203369140625;-0.9983978271484375;0.03696254640817642;-0.018450113013386726;-0.0019081549253314734
-0.0885772705078125;-0.2102203369140625;-0.9983978271484375;0.03696254640817642;-0.018450113013386726;-0.0019081549253314734
-0.0885772705078125;-0.2102203369140625;-0.9983978271484375;0.03696254640817642;-0.018450113013386726;-0.0019081549253314734
-0.0884552001953125;-0.2115325927734375;-1.0019683837890625;0.04670039191842079;-0.02177800051867962;-0.001695900922641158
-0.0884552001953125;-0.2115325927734375;-1.0019683837890625;0.04670039191842079;-0.02177800051867962;-0.001695900922641158
-0.0884552001953125;-0.2115325927734375;-1.0019683837890625;0.04670039191842079;-0.02177800051867962;-0.001695900922641158
-0.0884552001953125;-0.2115325927734375;-1.0019683837890625;0.04670039191842079;-0.02177800051867962;-0.001695900922641158
-0.0884552001953125;-0.2115325927734375;-1.0019683837890625;0.04670039191842079;-0.02177800051867962;-0.001695900922641158
-0.089141845703125;-0.213470458984375;-1.0041961669921875;0.057669155299663544;-0.019604060798883438;-0.0032858080230653286
-0.089141845703125;-0.213470458984375;-1.0041961669921875;0.057669155299663544;-0.019604060798883438;-0.0032858080230653286
-0.089141845703125;-0.213470458984375;-1.0041961669921875;0.057669155299663544;-0.019604060798883438;-0.0032858080230653286
-0.089141845703125;-0.213470458984375;-1.0041961669921875;0.057669155299663544;-0.019604060798883438;-0.0032858080230653286
-0.089141845703125;-0.213470458984375;-1.0041961669921875;0.057669155299663544;-0.019604060798883438;-0.0032858080230653286
-0.08807373046875;-0.2131805419921875;-1.0042266845703125;0.06291212141513824;-0.01130991242825985;-0.0007123955874703825
-0.08807373046875;-0.2131805419921875;-1.0042266845703125;0.06291212141513824;-0.01130991242825985;-0.0007123955874703825
-0.08807373046875;-0.2131805419921875;-1.0042266845703125;0.06291212141513824;-0.01130991242825985;-0.0007123955874703825
-0.08807373046875;-0.2131805419921875;-1.0042266845703125;0.06291212141513824;-0.01130991242825985;-0.0007123955874703825
-0.08807373046875;-0.2131805419921875;-1.0042266845703125;0.06291212141513824;-0.01130991242825985;-0.0007123955874703825
-0.08935546875;-0.2153778076171875;-0.9992218017578125;0.054182279855012894;-0.0009653958841226995;0.002454102970659733
-0.08935546875;-0.2153778076171875;-0.9992218017578125;0.054182279855012894;-0.0009653958841226995;0.002454102970659733
-0.08935546875;-0.2153778076171875;-0.9992218017578125;0.054182279855012894;-0.0009653958841226995;0.002454102970659733
-0.08935546875;-0.2153778076171875;-0.9992218017578125;0.054182279855012894;-0.0009653958841226995;0.002454102970659733
-0.08935546875;-0.2153778076171875;-0.9992218017578125;0.054182279855012894;-0.0009653958841226995;0.002454102970659733
-0.089447021484375;-0.2161102294921875;-0.9935760498046875;0.04333309456706047;0.016890566796064377;0.0017366473330184817
-0.089447021484375;-0.2161102294921875;-0.9935760498046875;0.04333309456706047;0.016890566796064377;0.0017366473330184817
-0.089447021484375;-0.2161102294921875;-0.9935760498046875;0.04333309456706047;0.016890566796064377;0.0017366473330184817
-0.089447021484375;-0.2161102294921875;-0.9935760498046875;0.04333309456706047;0.016890566796064377;0.0017366473330184817
-0.089447021484375;-0.2161102294921875;-0.9935760498046875;0.04333309456706047;0.016890566796064377;0.0017366473330184817
-0.088836669921875;-0.21533203125;-0.9908905029296875;0.028027374297380447;0.022555110976099968;0.0012591425329446793
-0.088836669921875;-0.21533203125;-0.9908905029296875;0.028027374297380447;0.022555110976099968;0.0012591425329446793
-0.088836669921875;-0.21533203125;-0.9908905029296875;0.028027374297380447;0.022555110976099968;0.0012591425329446793
-0.088836669921875;-0.21533203125;-0.9908905029296875;0.028027374297380447;0.022555110976099968;0.0012591425329446793
-0.088836669921875;-0.21533203125;-0.9908905029296875;0.028027374297380447;0.022555110976099968;0.0012591425329446793
-0.0887603759765625;-0.2152099609375;-0.989898681640625;0.00996448379009962;0.01960938796401024;0.0007933556917123497
-0.0887603759765625;-0.2152099609375;-0.989898681640625;0.00996448379009962;0.01960938796401024;0.0007933556917123497
-0.0887603759765625;-0.2152099609375;-0.989898681640625;0.00996448379009962;0.01960938796401024;0.0007933556917123497
-0.0887603759765625;-0.2152099609375;-0.989898681640625;0.00996448379009962;0.01960938796401024;0.0007933556917123497
-0.0887603759765625;-0.2152099609375;-0.989898681640625;0.00996448379009962;0.01960938796401024;0.0007933556917123497
-0.0878448486328125;-0.21356201171875;-0.9890594482421875;-0.010417487472295761;0.015597068704664707;0.0021646174136549234
-0.0878448486328125;-0.21356201171875;-0.9890594482421875;-0.010417487472295761;0.015597068704664707;0.0021646174136549234
-0.0878448486328125;-0.21356201171875;-0.9890594482421875;-0.010417487472295761;0.015597068704664707;0.0021646174136549234
-0.0878448486328125;-0.21356201171875;-0.9890594482421875;-0.010417487472295761;0.015597068704664707;0.0021646174136549234
-0.0878448486328125;-0.21356201171875;-0.9890594482421875;-0.010417487472295761;0.015597068704664707;0.0021646174136549234
-0.086029052734375;-0.212127685546875;-0.988372802734375;-0.030238330364227295;0.0011046791914850473;0.003127083647996187
-0.086029052734375;-0.212127685546875;-0.988372802734375;-0.030238330364227295;0.0011046791914850473;0.003127083647996187
-0.086029052734375;-0.212127685546875;-0.988372802734375;-0.030238330364227295;0.0011046791914850473;0.003127083647996187
-0.086029052734375;-0.212127685546875;-0.988372802734375;-0.030238330364227295;0.0011046791914850473;0.003127083647996187
-0.086029052734375;-0.212127685546875;-0.988372802734375;-0.030238330364227295;0.0011046791914850473;0.003127083647996187
-0.0854034423828125;-0.2108001708984375;-0.989898681640625;-0.04793529957532883;-0.008859271183609962;0.005453088786453009
-0.0854034423828125;-0.2108001708984375;-0.989898681640625;-0.04793529957532883;-0.008859271183609962;0.005453088786453009
-0.0854034423828125;-0.2108001708984375;-0.989898681640625;-0.04793529957532883;-0.008859271183609962;0.005453088786453009
-0.0854034423828125;-0.2108001708984375;-0.989898681640625;-0.04793529957532883;-0.008859271183609962;0.005453088786453009
-0.0854034423828125;-0.2108001708984375;-0.989898681640625;-0.04793529957532883;-0.008859271183609962;0.005453088786453009
-0.085357666015625;-0.21014404296875;-0.9907379150390625;-0.051715657114982605;-0.020681843161582947;0.006344715133309364
-0.085357666015625;-0.21014404296875;-0.9907379150390625;-0.051715657114982605;-0.020681843161582947;0.006344715133309364
-0.085357666015625;-0.21014404296875;-0.9907379150390625;-0.051715657114982605;-0.020681843161582947;0.006344715133309364
-0.085357666015625;-0.21014404296875;-0.9907379150390625;-0.051715657114982605;-0.020681843161582947;0.006344715133309364
-0.085357666015625;-0.21014404296875;-0.9907379150390625;-0.051715657114982605;-0.020681843161582947;0.006344715133309364
-0.0867462158203125;-0.2096405029296875;-0.9931793212890625;-0.05494740605354309;-0.019512714818120003;0.00815166998654604
-0.0867462158203125;-0.2096405029296875;-0.9931793212890625;-0.05494740605354309;-0.019512714818120003;0.00815166998654604
-0.0867462158203125;-0.2096405029296875;-0.9931793212890625;-0.05494740605354309;-0.019512714818120003;0.00815166998654604
-0.0867462158203125;-0.2096405029296875;-0.9931793212890625;-0.05494740605354309;-0.019512714818120003;0.00815166998654604
-0.0867462158203125;-0.2096405029296875;-0.9931793212890625;-0.05494740605354309;-0.019512714818120003;0.00815166998654604
-0.0875091552734375;-0.2097320556640625;-0.9961700439453125;-0.04909031465649605;-0.009147425182163715;0.010223076678812504
-0.0875091552734375;-0.2097320556640625;-0.9961700439453125;-0.04909031465649605;-0.009147425182163715;0.010223076678812504
-0.0875091552734375;-0.2097320556640625;-0.9961700439453125;-0.04909031465649605;-0.009147425182163715;0.010223076678812504
-0.0875091552734375;-0.2097320556640625;-0.9961700439453125;-0.04909031465649605;-0.009147425182163715;0.010223076678812504
-0.0875091552734375;-0.2097320556640625;-0.9961700439453125;-0.04909031465649605;-0.009147425182163715;0.010223076678812504
-0.0898895263671875;-0.2075653076171875;-0.999755859375;-0.032112929970026016;0.005141498986631632;0.007723433431237936
-0.0898895263671875;-0.2075653076171875;-0.999755859375;-0.032112929970026016;0.005141498986631632;0.007723433431237936
-0.0898895263671875;-0.2075653076171875;-0.999755859375;-0.032112929970026016;0.005141498986631632;0.007723433431237936
-0.0898895263671875;-0.2075653076171875;-0.999755859375;-0.032112929970026016;0.005141498986631632;0.007723433431237936
-0.0898895263671875;-0.2075653076171875;-0.999755859375;-0.032112929970026016;0.005141498986631632;0.007723433431237936
-0.0924072265625;-0.208648681640625;-1.00421142578125;-0.012310994789004326;0.02412957139313221;0.006225138902664185
-0.0924072265625;-0.208648681640625;-1.00421142578125;-0.012310994789004326;0.02412957139313221;0.006225138902664185
-0.0924072265625;-0.208648681640625;-1.00421142578125;-0.012310994789004326;0.02412957139313221;0.006225138902664185
-0.0924072265625;-0.208648681640625;-1.00421142578125;-0.012310994789004326;0.02412957139313221;0.006225138902664185
-0.0924072265625;-0.208648681640625;-1.00421142578125;-0.012310994789004326;0.02412957139313221;0.006225138902664185
-0.093719482421875;-0.210235595703125;-1.0078582763671875;0.004436027258634567;0.03819665312767029;0.003951598424464464
-0.093719482421875;-0.210235595703125;-1.0078582763671875;0.004436027258634567;0.03819665312767029;0.003951598424464464
-0.093719482421875;-0.210235595703125;-1.0078582763671875;0.004436027258634567;0.03819665312767029;0.003951598424464464
-0.093719482421875;-0.210235595703125;-1.0078582763671875;0.004436027258634567;0.03819665312767029;0.003951598424464464
-0.093719482421875;-0.210235595703125;-1.0078582763671875;0.004436027258634567;0.03819665312767029;0.003951598424464464
-0.0922088623046875;-0.2129974365234375;-1.00885009765625;0.01709376648068428;0.050336938351392746;0.003412840887904167
-0.0922088623046875;-0.2129974365234375;-1.00885009765625;0.01709376648068428;0.050336938351392746;0.003412840887904167
-0.0922088623046875;-0.2129974365234375;-1.00885009765625;0.01709376648068428;0.050336938351392746;0.003412840887904167
-0.0922088623046875;-0.2129974365234375;-1.00885009765625;0.01709376648068428;0.050336938351392746;0.003412840887904167
-0.0922088623046875;-0.2129974365234375;-1.00885009765625;0.01709376648068428;0.050336938351392746;0.003412840887904167
-0.0894012451171875;-0.2146453857421875;-1.0073089599609375;0.022578811272978783;0.05445738136768341;0.0018282600212842226
-0.0894012451171875;-0.2146453857421875;-1.0073089599609375;0.022578811272978783;0.05445738136768341;0.0018282600212842226
-0.0894012451171875;-0.2146453857421875;-1.0073089599609375;0.022578811272978783;0.05445738136768341;0.0018282600212842226
-0.0894012451171875;-0.2146453857421875;-1.0073089599609375;0.022578811272978783;0.05445738136768341;0.0018282600212842226
-0.0894012451171875;-0.2146453857421875;-1.0073089599609375;0.022578811272978783;0.05445738136768341;0.0018282600212842226
-0.0860595703125;-0.2147979736328125;-1.00286865234375;0.01293523982167244;0.050025083124637604;0.0018911106744781137
-0.0860595703125;-0.2147979736328125;-1.00286865234375;0.01293523982167244;0.050025083124637604;0.0018911106744781137
-0.0860595703125;-0.2147979736328125;-1.00286865234375;0.01293523982167244;0.050025083124637604;0.0018911106744781137
-0.0860595703125;-0.2147979736328125;-1.00286865234375;0.01293523982167244;0.050025083124637604;0.0018911106744781137
-0.0860595703125;-0.2147979736328125;-1.00286865234375;0.01293523982167244;0.050025083124637604;0.0018911106744781137
-0.0833740234375;-0.21307373046875;-0.9951629638671875;-0.00711623253300786;0.04279540106654167;0.003573962254449725
-0.0833740234375;-0.21307373046875;-0.9951629638671875;-0.00711623253300786;0.04279540106654167;0.003573962254449725
-0.0833740234375;-0.21307373046875;-0.9951629638671875;-0.00711623253300786;0.04279540106654167;0.003573962254449725
-0.0833740234375;-0.21307373046875;-0.9951629638671875;-0.00711623253300786;0.04279540106654167;0.003573962254449725
-0.0833740234375;-0.21307373046875;-0.9951629638671875;-0.00711623253300786;0.04279540106654167;0.003573962254449725
-0.082183837890625;-0.209686279296875;-0.9873199462890625;-0.03229828551411629;0.033845316618680954;0.006487460341304541
-0.082183837890625;-0.209686279296875;-0.9873199462890625;-0.03229828551411629;0.033845316618680954;0.006487460341304541
-0.082183837890625;-0.209686279296875;-0.9873199462890625;-0.03229828551411629;0.033845316618680954;0.006487460341304541
-0.082183837890625;-0.209686279296875;-0.9873199462890625;-0.03229828551411629;0.033845316618680954;0.006487460341304541
-0.082183837890625;-0.209686279296875;-0.9873199462890625;-0.03229828551411629;0.033845316618680954;0.006487460341304541
-0.0806732177734375;-0.207122802734375;-0.9826507568359375;-0.06174299120903015;0.02425607107579708;0.004358263220638037
-0.0806732177734375;-0.207122802734375;-0.9826507568359375;-0.06174299120903015;0.02425607107579708;0.004358263220638037
-0.0806732177734375;-0.207122802734375;-0.9826507568359375;-0.06174299120903015;0.02425607107579708;0.004358263220638037
-0.0806732177734375;-0.207122802734375;-0.9826507568359375;-0.06174299120903015;0.02425607107579708;0.004358263220638037
-0.0806732177734375;-0.207122802734375;-0.9826507568359375;-0.06174299120903015;0.02425607107579708;0.004358263220638037
-0.080535888671875;-0.2047271728515625;-0.9807281494140625;-0.0833958238363266;0.019603261724114418;0.006929012481123209
-0.080535888671875;-0.2047271728515625;-0.9807281494140625;-0.0833958238363266;0.019603261724114418;0.006929012481123209
-0.080535888671875;-0.2047271728515625;-0.9807281494140625;-0.0833958238363266;0.019603261724114418;0.006929012481123209
-0.080535888671875;-0.2047271728515625;-0.9807281494140625;-0.0833958238363266;0.019603261724114418;0.006929012481123209
-0.080535888671875;-0.2047271728515625;-0.9807281494140625;-0.0833958238363266;0.019603261724114418;0.006929012481123209
-0.080352783203125;-0.2036895751953125;-0.981201171875;-0.10207577049732208;0.017767012119293213;0.007482151035219431
-0.080352783203125;-0.2036895751953125;-0.981201171875;-0.10207577049732208;0.017767012119293213;0.007482151035219431
-0.080352783203125;-0.2036895751953125;-0.981201171875;-0.10207577049732208;0.017767012119293213;0.007482151035219431
-0.080352783203125;-0.2036895751953125;-0.981201171875;-0.10207577049732208;0.017767012119293213;0.007482151035219431
-0.080352783203125;-0.2036895751953125;-0.981201171875;-0.10207577049732208;0.017767012119293213;0.007482151035219431
-0.0805511474609375;-0.2019500732421875;-0.984954833984375;-0.10614774376153946;0.020168650895357132;0.004819788970053196
-0.0805511474609375;-0.2019500732421875;-0.984954833984375;-0.10614774376153946;0.020168650895357132;0.004819788970053196
-0.0805511474609375;-0.2019500732421875;-0.984954833984375;-0.10614774376153946;0.020168650895357132;0.004819788970053196
-0.0805511474609375;-0.2019500732421875;-0.984954833984375;-0.10614774376153946;0.020168650895357132;0.004819788970053196
-0.0805511474609375;-0.2019500732421875;-0.984954833984375;-0.10614774376153946;0.020168650895357132;0.004819788970053196
-0.0820159912109375;-0.199249267578125;-0.9905242919921875;-0.10371840745210648;0.023726101964712143;0.006019276566803455
-0.0820159912109375;-0.199249267578125;-0.9905242919921875;-0.10371840745210648;0.023726101964712143;0.006019276566803455
-0.0820159912109375;-0.199249267578125;-0.9905242919921875;-0.10371840745210648;0.023726101964712143;0.006019276566803455
-0.0820159912109375;-0.199249267578125;-0.9905242919921875;-0.10371840745210648;0.023726101964712143;0.006019276566803455
-0.0820159912109375;-0.199249267578125;-0.9905242919921875;-0.10371840745210648;0.023726101964712143;0.006019276566803455
-0.08270263671875;-0.1990203857421875;-0.9935760498046875;-0.09689911454916;0.028131503611803055;0.003912716172635555
-0.08270263671875;-0.1990203857421875;-0.9935760498046875;-0.09689911454916;0.028131503611803055;0.003912716172635555
-0.08270263671875;-0.1990203857421875;-0.9935760498046875;-0.09689911454916;0.028131503611803055;0.003912716172635555
-0.08270263671875;-0.1990203857421875;-0.9935760498046875;-0.09689911454916;0.028131503611803055;0.003912716172635555
-0.08270263671875;-0.1990203857421875;-0.9935760498046875;-0.09689911454916;0.028131503611803055;0.003912716172635555
-0.0835723876953125;-0.1988525390625;-0.994842529296875;-0.09111765772104263;0.03611566126346588;0.004303668159991503
-0.0835723876953125;-0.1988525390625;-0.994842529296875;-0.09111765772104263;0.03611566126346588;0.004303668159991503
-0.0835723876953125;-0.1988525390625;-0.994842529296875;-0.09111765772104263;0.03611566126346588;0.004303668159991503
-0.0835723876953125;-0.1988525390625;-0.994842529296875;-0.09111765772104263;0.03611566126346588;0.004303668159991503
-0.0835723876953125;-0.1988525390625;-0.994842529296875;-0.09111765772104263;0.03611566126346588;0.004303668159991503
-0.0844268798828125;-0.1996917724609375;-0.9959259033203125;-0.08661984652280807;0.036383308470249176;0.0032671659719198942
-0.0844268798828125;-0.1996917724609375;-0.9959259033203125;-0.08661984652280807;0.036383308470249176;0.0032671659719198942
-0.0844268798828125;-0.1996917724609375;-0.9959259033203125;-0.08661984652280807;0.036383308470249176;0.0032671659719198942
-0.0844268798828125;-0.1996917724609375;-0.9959259033203125;-0.08661984652280807;0.036383308470249176;0.0032671659719198942
-0.0844268798828125;-0.1996917724609375;-0.9959259033203125;-0.08661984652280807;0.036383308470249176;0.0032671659719198942
-0.084716796875;-0.199371337890625;-0.99639892578125;-0.07985701411962509;0.0347910039126873;0.0016508935950696468
-0.084716796875;-0.199371337890625;-0.99639892578125;-0.07985701411962509;0.0347910039126873;0.0016508935950696468
-0.084716796875;-0.199371337890625;-0.99639892578125;-0.07985701411962509;0.0347910039126873;0.0016508935950696468
-0.084716796875;-0.199371337890625;-0.99639892578125;-0.07985701411962509;0.0347910039126873;0.0016508935950696468
-0.084716796875;-0.199371337890625;-0.99639892578125;-0.07985701411962509;0.0347910039126873;0.0016508935950696468
-0.0842132568359375;-0.2014923095703125;-0.99505615234375;-0.07745883613824844;0.029695844277739525;0.0029915287159383297
-0.0842132568359375;-0.2014923095703125;-0.99505615234375;-0.07745883613824844;0.029695844277739525;0.0029915287159383297
