Acell X;Acell Y;Acell Z;Gyro X;Gyro Y;Gyro Z

-0.072998046875;-0.161834716796875;-1.0163421630859375;-0.05988330766558647;0.09012217074632645;-0.0028778119012713432
-0.072998046875;-0.161834716796875;-1.0163421630859375;-0.07249337434768677;0.08448026329278946;-0.0029313412960618734
-0.06878662109375;-0.1666107177734375;-0.9950714111328125;-0.07249337434768677;0.08448026329278946;-0.0029313412960618734
-0.06878662109375;-0.1666107177734375;-0.9950714111328125;-0.07249337434768677;0.08448026329278946;-0.0029313412960618734
-0.06878662109375;-0.1666107177734375;-0.9950714111328125;-0.07249337434768677;0.08448026329278946;-0.0029313412960618734
-0.06878662109375;-0.1666107177734375;-0.9950714111328125;-0.07249337434768677;0.08448026329278946;-0.0029313412960618734
-0.0727081298828125;-0.174346923828125;-0.9754791259765625;-0.09235203266143799;0.06945604085922241;-0.0003296993381809443
-0.0727081298828125;-0.174346923828125;-0.9754791259765625;-0.09235203266143799;0.06945604085922241;-0.0003296993381809443
-0.0727081298828125;-0.174346923828125;-0.9754791259765625;-0.09235203266143799;0.06945604085922241;-0.0003296993381809443
-0.0727081298828125;-0.174346923828125;-0.9754791259765625;-0.09235203266143799;0.06945604085922241;-0.0003296993381809443
-0.0727081298828125;-0.174346923828125;-0.9754791259765625;-0.09235203266143799;0.06945604085922241;-0.0003296993381809443
-0.0694122314453125;-0.173095703125;-0.9722900390625;-0.10668276995420456;0.04414935037493706;0.0013166668359190226
-0.0694122314453125;-0.173095703125;-0.9722900390625;-0.10668276995420456;0.04414935037493706;0.0013166668359190226
-0.0694122314453125;-0.173095703125;-0.9722900390625;-0.10668276995420456;0.04414935037493706;0.0013166668359190226
-0.0694122314453125;-0.173095703125;-0.9722900390625;-0.10668276995420456;0.04414935037493706;0.0013166668359190226
-0.0694122314453125;-0.173095703125;-0.9722900390625;-0.11622780561447144;0.017739316448569298;0.004221909213811159
-0.0674591064453125;-0.1720123291015625;-0.978240966796875;-0.11622780561447144;0.017739316448569298;0.004221909213811159
-0.0674591064453125;-0.1720123291015625;-0.978240966796875;-0.11622780561447144;0.017739316448569298;0.004221909213811159
-0.0674591064453125;-0.1720123291015625;-0.978240966796875;-0.11622780561447144;0.017739316448569298;0.004221909213811159
-0.0674591064453125;-0.1720123291015625;-0.978240966796875;-0.11622780561447144;0.017739316448569298;0.004221909213811159
-0.0674591064453125;-0.1720123291015625;-0.978240966796875;-0.10847613960504532;-0.01305454969406128;0.005931125953793526
-0.06640625;-0.171295166015625;-0.98907470703125;-0.10847613960504532;-0.01305454969406128;0.005931125953793526
-0.06640625;-0.171295166015625;-0.98907470703125;-0.10847613960504532;-0.01305454969406128;0.005931125953793526
-0.06640625;-0.171295166015625;-0.98907470703125;-0.10847613960504532;-0.01305454969406128;0.005931125953793526
-0.06640625;-0.171295166015625;-0.98907470703125;-0.10847613960504532;-0.01305454969406128;0.005931125953793526
-0.066864013671875;-0.1712493896484375;-0.9986419677734375;-0.08974932879209518;-0.03015257604420185;0.006903978530317545
-0.066864013671875;-0.1712493896484375;-0.9986419677734375;-0.08974932879209518;-0.03015257604420185;0.006903978530317545
-0.066864013671875;-0.1712493896484375;-0.9986419677734375;-0.08974932879209518;-0.03015257604420185;0.006903978530317545
-0.066864013671875;-0.1712493896484375;-0.9986419677734375;-0.08974932879209518;-0.03015257604420185;0.006903978530317545
-0.066864013671875;-0.1712493896484375;-0.9986419677734375;-0.08974932879209518;-0.03015257604420185;0.006903978530317545
-0.0671539306640625;-0.170013427734375;-1.005706787109375;-0.06383144110441208;-0.04174371808767319;0.010792726650834084
-0.0671539306640625;-0.170013427734375;-1.005706787109375;-0.06383144110441208;-0.04174371808767319;0.010792726650834084
-0.0671539306640625;-0.170013427734375;-1.005706787109375;-0.06383144110441208;-0.04174371808767319;0.010792726650834084
-0.0671539306640625;-0.170013427734375;-1.005706787109375;-0.06383144110441208;-0.04174371808767319;0.010792726650834084
-0.0671539306640625;-0.170013427734375;-1.005706787109375;-0.06383144110441208;-0.04174371808767319;0.010792726650834084
-0.0676727294921875;-0.1673583984375;-1.0068359375;-0.04013942927122116;-0.026864370331168175;0.013611416332423687
-0.0676727294921875;-0.1673583984375;-1.0068359375;-0.04013942927122116;-0.026864370331168175;0.013611416332423687
-0.0676727294921875;-0.1673583984375;-1.0068359375;-0.04013942927122116;-0.026864370331168175;0.013611416332423687
-0.0676727294921875;-0.1673583984375;-1.0068359375;-0.04013942927122116;-0.026864370331168175;0.013611416332423687
-0.0676727294921875;-0.1673583984375;-1.0068359375;-0.04013942927122116;-0.026864370331168175;0.013611416332423687
-0.070037841796875;-0.1656951904296875;-0.99835205078125;-0.02027304656803608;-0.008569519966840744;0.012773052789270878
-0.070037841796875;-0.1656951904296875;-0.99835205078125;-0.02027304656803608;-0.008569519966840744;0.012773052789270878
-0.070037841796875;-0.1656951904296875;-0.99835205078125;-0.02027304656803608;-0.008569519966840744;0.012773052789270878
-0.070037841796875;-0.1656951904296875;-0.99835205078125;-0.02027304656803608;-0.008569519966840744;0.012773052789270878
-0.070037841796875;-0.1656951904296875;-0.99835205078125;-0.02027304656803608;-0.008569519966840744;0.012773052789270878
-0.0719146728515625;-0.16607666015625;-0.993988037109375;-0.012768525630235672;0.00884915143251419;0.01625220663845539
-0.0719146728515625;-0.16607666015625;-0.993988037109375;-0.012768525630235672;0.00884915143251419;0.01625220663845539
-0.0719146728515625;-0.16607666015625;-0.993988037109375;-0.012768525630235672;0.00884915143251419;0.01625220663845539
-0.0719146728515625;-0.16607666015625;-0.993988037109375;-0.012768525630235672;0.00884915143251419;0.01625220663845539
-0.0719146728515625;-0.16607666015625;-0.993988037109375;-0.012768525630235672;0.00884915143251419;0.01625220663845539
-0.071075439453125;-0.163970947265625;-0.9924468994140625;-0.015784289687871933;0.022177474573254585;0.015400261618196964
-0.071075439453125;-0.163970947265625;-0.9924468994140625;-0.015784289687871933;0.022177474573254585;0.015400261618196964
-0.071075439453125;-0.163970947265625;-0.9924468994140625;-0.015784289687871933;0.022177474573254585;0.015400261618196964
-0.071075439453125;-0.163970947265625;-0.9924468994140625;-0.015784289687871933;0.022177474573254585;0.015400261618196964
-0.071075439453125;-0.163970947265625;-0.9924468994140625;-0.015784289687871933;0.022177474573254585;0.015400261618196964
-0.0717620849609375;-0.162811279296875;-0.99237060546875;-0.02443796582520008;0.022056300193071365;0.01272751297801733
-0.0717620849609375;-0.162811279296875;-0.99237060546875;-0.02443796582520008;0.022056300193071365;0.01272751297801733
-0.0717620849609375;-0.162811279296875;-0.99237060546875;-0.02443796582520008;0.022056300193071365;0.01272751297801733
-0.0717620849609375;-0.162811279296875;-0.99237060546875;-0.02443796582520008;0.022056300193071365;0.01272751297801733
-0.0717620849609375;-0.162811279296875;-0.99237060546875;-0.02443796582520008;0.022056300193071365;0.01272751297801733
-0.070281982421875;-0.1614837646484375;-0.9924468994140625;-0.03441070392727852;0.023246733471751213;0.012989035807549953
-0.070281982421875;-0.1614837646484375;-0.9924468994140625;-0.03441070392727852;0.023246733471751213;0.012989035807549953
-0.070281982421875;-0.1614837646484375;-0.9924468994140625;-0.03441070392727852;0.023246733471751213;0.012989035807549953
-0.070281982421875;-0.1614837646484375;-0.9924468994140625;-0.03441070392727852;0.023246733471751213;0.012989035807549953
-0.070281982421875;-0.1614837646484375;-0.9924468994140625;-0.03441070392727852;0.023246733471751213;0.012989035807549953
-0.069427490234375;-0.159820556640625;-0.9958648681640625;-0.03874287009239197;0.02798689343035221;0.010215086862444878
-0.069427490234375;-0.159820556640625;-0.9958648681640625;-0.03874287009239197;0.02798689343035221;0.010215086862444878
-0.069427490234375;-0.159820556640625;-0.9958648681640625;-0.03874287009239197;0.02798689343035221;0.010215086862444878
-0.069427490234375;-0.159820556640625;-0.9958648681640625;-0.03874287009239197;0.02798689343035221;0.010215086862444878
-0.069427490234375;-0.159820556640625;-0.9958648681640625;-0.03874287009239197;0.02798689343035221;0.010215086862444878
-0.0689849853515625;-0.1596221923828125;-1.0019683837890625;-0.04361432418227196;0.03852635249495506;0.007708253338932991
-0.0689849853515625;-0.1596221923828125;-1.0019683837890625;-0.04361432418227196;0.03852635249495506;0.007708253338932991
-0.0689849853515625;-0.1596221923828125;-1.0019683837890625;-0.04361432418227196;0.03852635249495506;0.007708253338932991
-0.0689849853515625;-0.1596221923828125;-1.0019683837890625;-0.04361432418227196;0.03852635249495506;0.007708253338932991
-0.0689849853515625;-0.1596221923828125;-1.0019683837890625;-0.04361432418227196;0.03852635249495506;0.007708253338932991
-0.067779541015625;-0.15997314453125;-1.00811767578125;-0.04417305439710617;0.05099048092961311;0.005242965184152126
-0.067779541015625;-0.15997314453125;-1.00811767578125;-0.04417305439710617;0.05099048092961311;0.005242965184152126
-0.067779541015625;-0.15997314453125;-1.00811767578125;-0.04417305439710617;0.05099048092961311;0.005242965184152126
-0.067779541015625;-0.15997314453125;-1.00811767578125;-0.04417305439710617;0.05099048092961311;0.005242965184152126
-0.067779541015625;-0.15997314453125;-1.00811767578125;-0.04417305439710617;0.05099048092961311;0.005242965184152126
-0.0666656494140625;-0.1625518798828125;-1.0122833251953125;-0.04622288793325424;0.0554073341190815;0.0013907026732340455
-0.0666656494140625;-0.1625518798828125;-1.0122833251953125;-0.04622288793325424;0.0554073341190815;0.0013907026732340455
-0.0666656494140625;-0.1625518798828125;-1.0122833251953125;-0.04622288793325424;0.0554073341190815;0.0013907026732340455
-0.0666656494140625;-0.1625518798828125;-1.0122833251953125;-0.04622288793325424;0.0554073341190815;0.0013907026732340455
-0.0666656494140625;-0.1625518798828125;-1.0122833251953125;-0.04622288793325424;0.0554073341190815;0.0013907026732340455
-0.0649261474609375;-0.168060302734375;-1.0074920654296875;-0.05451623722910881;0.05982205271720886;-0.0018024274613708258
-0.0649261474609375;-0.168060302734375;-1.0074920654296875;-0.05451623722910881;0.05982205271720886;-0.0018024274613708258
-0.0649261474609375;-0.168060302734375;-1.0074920654296875;-0.05451623722910881;0.05982205271720886;-0.0018024274613708258
-0.0649261474609375;-0.168060302734375;-1.0074920654296875;-0.05451623722910881;0.05982205271720886;-0.0018024274613708258
-0.0649261474609375;-0.168060302734375;-1.0074920654296875;-0.05451623722910881;0.05982205271720886;-0.0018024274613708258
-0.0628509521484375;-0.1704559326171875;-1.003265380859375;-0.06250838190317154;0.06486794352531433;-0.0041340249590575695
-0.0628509521484375;-0.1704559326171875;-1.003265380859375;-0.06250838190317154;0.06486794352531433;-0.0041340249590575695
-0.0628509521484375;-0.1704559326171875;-1.003265380859375;-0.06250838190317154;0.06486794352531433;-0.0041340249590575695
-0.0628509521484375;-0.1704559326171875;-1.003265380859375;-0.06250838190317154;0.06486794352531433;-0.0041340249590575695
-0.0628509521484375;-0.1704559326171875;-1.003265380859375;-0.06250838190317154;0.06486794352531433;-0.0041340249590575695
-0.061676025390625;-0.170562744140625;-1.0000762939453125;-0.07130267471075058;0.056706156581640244;-0.004123372491449118
-0.061676025390625;-0.170562744140625;-1.0000762939453125;-0.07130267471075058;0.056706156581640244;-0.004123372491449118
-0.061676025390625;-0.170562744140625;-1.0000762939453125;-0.07130267471075058;0.056706156581640244;-0.004123372491449118
-0.061676025390625;-0.170562744140625;-1.0000762939453125;-0.07130267471075058;0.056706156581640244;-0.004123372491449118
-0.061676025390625;-0.170562744140625;-1.0000762939453125;-0.07130267471075058;0.056706156581640244;-0.004123372491449118
-0.062164306640625;-0.1699371337890625;-0.9988861083984375;-0.07146965712308884;0.05540573596954346;-0.00221921200864017
-0.062164306640625;-0.1699371337890625;-0.9988861083984375;-0.07146965712308884;0.05540573596954346;-0.00221921200864017
-0.062164306640625;-0.1699371337890625;-0.9988861083984375;-0.07146965712308884;0.05540573596954346;-0.00221921200864017
-0.062164306640625;-0.1699371337890625;-0.9988861083984375;-0.07146965712308884;0.05540573596954346;-0.00221921200864017
-0.062164306640625;-0.1699371337890625;-0.9988861083984375;-0.07146965712308884;0.05540573596954346;-0.00221921200864017
-0.0617523193359375;-0.1669158935546875;-0.998565673828125;-0.0696677640080452;0.04131761193275452;0.0005046690348535776
-0.0617523193359375;-0.1669158935546875;-0.998565673828125;-0.0696677640080452;0.04131761193275452;0.0005046690348535776
-0.0617523193359375;-0.1669158935546875;-0.998565673828125;-0.0696677640080452;0.04131761193275452;0.0005046690348535776
-0.0617523193359375;-0.1669158935546875;-0.998565673828125;-0.0696677640080452;0.04131761193275452;0.0005046690348535776
-0.0617523193359375;-0.1669158935546875;-0.998565673828125;-0.0696677640080452;0.04131761193275452;0.0005046690348535776
-0.0622100830078125;-0.1667938232421875;-0.9989013671875;-0.06328895688056946;0.032768066972494125;0.001889246515929699
-0.0622100830078125;-0.1667938232421875;-0.9989013671875;-0.06328895688056946;0.032768066972494125;0.001889246515929699
-0.0622100830078125;-0.1667938232421875;-0.9989013671875;-0.06328895688056946;0.032768066972494125;0.001889246515929699
-0.0622100830078125;-0.1667938232421875;-0.9989013671875;-0.06328895688056946;0.032768066972494125;0.001889246515929699
-0.0622100830078125;-0.1667938232421875;-0.9989013671875;-0.06328895688056946;0.032768066972494125;0.001889246515929699
-0.061981201171875;-0.1641082763671875;-0.998626708984375;-0.06046148017048836;0.024705613031983376;0.003763046581298113
-0.061981201171875;-0.1641082763671875;-0.998626708984375;-0.06046148017048836;0.024705613031983376;0.003763046581298113
-0.061981201171875;-0.1641082763671875;-0.998626708984375;-0.06046148017048836;0.024705613031983376;0.003763046581298113
-0.061981201171875;-0.1641082763671875;-0.998626708984375;-0.06046148017048836;0.024705613031983376;0.003763046581298113
-0.061981201171875;-0.1641082763671875;-0.998626708984375;-0.06046148017048836;0.024705613031983376;0.003763046581298113
-0.0631866455078125;-0.1607208251953125;-0.9974517822265625;-0.04994891583919525;0.014182664453983307;0.004780107643455267
-0.0631866455078125;-0.1607208251953125;-0.9974517822265625;-0.04994891583919525;0.014182664453983307;0.004780107643455267
-0.0631866455078125;-0.1607208251953125;-0.9974517822265625;-0.04994891583919525;0.014182664453983307;0.004780107643455267
-0.0631866455078125;-0.1607208251953125;-0.9974517822265625;-0.04994891583919525;0.014182664453983307;0.004780107643455267
-0.0631866455078125;-0.1607208251953125;-0.9974517822265625;-0.04994891583919525;0.014182664453983307;0.004780107643455267
-0.0645751953125;-0.157745361328125;-0.9970550537109375;-0.04596482962369919;0.010046775452792645;0.006390521302819252
-0.0645751953125;-0.157745361328125;-0.9970550537109375;-0.04596482962369919;0.010046775452792645;0.006390521302819252
-0.0645751953125;-0.157745361328125;-0.9970550537109375;-0.04596482962369919;0.010046775452792645;0.006390521302819252
-0.0645751953125;-0.157745361328125;-0.9970550537109375;-0.04596482962369919;0.010046775452792645;0.006390521302819252
-0.0645751953125;-0.157745361328125;-0.9970550537109375;-0.04596482962369919;0.010046775452792645;0.006390521302819252
-0.0666351318359375;-0.15374755859375;-0.9978790283203125;-0.03961052745580673;0.005721002817153931;0.004910602699965239
-0.0666351318359375;-0.15374755859375;-0.9978790283203125;-0.03961052745580673;0.005721002817153931;0.004910602699965239
-0.0666351318359375;-0.15374755859375;-0.9978790283203125;-0.03961052745580673;0.005721002817153931;0.004910602699965239
-0.0666351318359375;-0.15374755859375;-0.9978790283203125;-0.03961052745580673;0.005721002817153931;0.004910602699965239
-0.0666351318359375;-0.15374755859375;-0.9978790283203125;-0.03961052745580673;0.005721002817153931;0.004910602699965239
-0.0662841796875;-0.1515045166015625;-0.99957275390625;-0.0353902131319046;0.002557966159656644;0.0037699707318097353
-0.0662841796875;-0.1515045166015625;-0.99957275390625;-0.0353902131319046;0.002557966159656644;0.0037699707318097353
-0.0662841796875;-0.1515045166015625;-0.99957275390625;-0.0353902131319046;0.002557966159656644;0.0037699707318097353
-0.0662841796875;-0.1515045166015625;-0.99957275390625;-0.0353902131319046;0.002557966159656644;0.0037699707318097353
-0.0662841796875;-0.1515045166015625;-0.99957275390625;-0.0353902131319046;0.002557966159656644;0.0037699707318097353
-0.0657501220703125;-0.1508331298828125;-1.0024261474609375;-0.03214967995882034;-0.002457032445818186;0.00141041015740484
-0.0657501220703125;-0.1508331298828125;-1.0024261474609375;-0.03214967995882034;-0.002457032445818186;0.00141041015740484
-0.0657501220703125;-0.1508331298828125;-1.0024261474609375;-0.03214967995882034;-0.002457032445818186;0.00141041015740484
-0.0657501220703125;-0.1508331298828125;-1.0024261474609375;-0.03214967995882034;-0.002457032445818186;0.00141041015740484
-0.0657501220703125;-0.1508331298828125;-1.0024261474609375;-0.03214967995882034;-0.002457032445818186;0.00141041015740484
-0.0656890869140625;-0.1499786376953125;-1.0041046142578125;-0.030824491754174232;-0.0063005066476762295;0.0031401331070810556
-0.0656890869140625;-0.1499786376953125;-1.0041046142578125;-0.030824491754174232;-0.0063005066476762295;0.0031401331070810556
-0.0656890869140625;-0.1499786376953125;-1.0041046142578125;-0.030824491754174232;-0.0063005066476762295;0.0031401331070810556
-0.0656890869140625;-0.1499786376953125;-1.0041046142578125;-0.030824491754174232;-0.0063005066476762295;0.0031401331070810556
-0.0656890869140625;-0.1499786376953125;-1.0041046142578125;-0.030824491754174232;-0.0063005066476762295;0.0031401331070810556
-0.06512451171875;-0.1486968994140625;-1.004486083984375;-0.03149028122425079;-0.007748466916382313;-0.00043010051012970507
-0.06512451171875;-0.1486968994140625;-1.004486083984375;-0.03149028122425079;-0.007748466916382313;-0.00043010051012970507
-0.06512451171875;-0.1486968994140625;-1.004486083984375;-0.03149028122425079;-0.007748466916382313;-0.00043010051012970507
-0.06512451171875;-0.1486968994140625;-1.004486083984375;-0.03149028122425079;-0.007748466916382313;-0.00043010051012970507
-0.06512451171875;-0.1486968994140625;-1.004486083984375;-0.03149028122425079;-0.007748466916382313;-0.00043010051012970507
-0.06512451171875;-0.1507568359375;-1.0061492919921875;-0.03056509979069233;-0.006421680096536875;0.0009685916593298316
-0.06512451171875;-0.1507568359375;-1.0061492919921875;-0.03056509979069233;-0.006421680096536875;0.0009685916593298316
-0.06512451171875;-0.1507568359375;-1.0061492919921875;-0.03056509979069233;-0.006421680096536875;0.0009685916593298316
-0.06512451171875;-0.1507568359375;-1.0061492919921875;-0.03056509979069233;-0.006421680096536875;0.0009685916593298316
-0.06512451171875;-0.1507568359375;-1.0061492919921875;-0.03056509979069233;-0.006421680096536875;0.0009685916593298316
-0.0648956298828125;-0.151885986328125;-1.008209228515625;-0.030415697023272514;-0.005126052536070347;0.0021885856986045837
-0.0648956298828125;-0.151885986328125;-1.008209228515625;-0.030415697023272514;-0.005126052536070347;0.0021885856986045837
-0.0648956298828125;-0.151885986328125;-1.008209228515625;-0.030415697023272514;-0.005126052536070347;0.0021885856986045837
-0.0648956298828125;-0.151885986328125;-1.008209228515625;-0.030415697023272514;-0.005126052536070347;0.0021885856986045837
-0.0648956298828125;-0.151885986328125;-1.008209228515625;-0.030415697023272514;-0.005126052536070347;0.0021885856986045837
-0.0655670166015625;-0.1526031494140625;-1.007965087890625;-0.0312734991312027;0.001208009896799922;0.002627474721521139
-0.0655670166015625;-0.1526031494140625;-1.007965087890625;-0.0312734991312027;0.001208009896799922;0.002627474721521139
-0.0655670166015625;-0.1526031494140625;-1.007965087890625;-0.0312734991312027;0.001208009896799922;0.002627474721521139
-0.0655670166015625;-0.1526031494140625;-1.007965087890625;-0.0312734991312027;0.001208009896799922;0.002627474721521139
-0.0655670166015625;-0.1526031494140625;-1.007965087890625;-0.0312734991312027;0.001208009896799922;0.002627474721521139
-0.064605712890625;-0.15386962890625;-1.0088348388671875;-0.03157869726419449;0.003593403147533536;0.0015193333383649588
-0.064605712890625;-0.15386962890625;-1.0088348388671875;-0.03157869726419449;0.003593403147533536;0.0015193333383649588
-0.064605712890625;-0.15386962890625;-1.0088348388671875;-0.03157869726419449;0.003593403147533536;0.0015193333383649588
-0.064605712890625;-0.15386962890625;-1.0088348388671875;-0.03157869726419449;0.003593403147533536;0.0015193333383649588
-0.064605712890625;-0.15386962890625;-1.0088348388671875;-0.03157869726419449;0.003593403147533536;0.0015193333383649588
-0.06463623046875;-0.15496826171875;-1.006317138671875;-0.03196272626519203;0.007532751187682152;0.0001597896625753492
-0.06463623046875;-0.15496826171875;-1.006317138671875;-0.03196272626519203;0.007532751187682152;0.0001597896625753492
-0.06463623046875;-0.15496826171875;-1.006317138671875;-0.03196272626519203;0.007532751187682152;0.0001597896625753492
-0.06463623046875;-0.15496826171875;-1.006317138671875;-0.03196272626519203;0.007532751187682152;0.0001597896625753492
-0.06463623046875;-0.15496826171875;-1.006317138671875;-0.03196272626519203;0.007532751187682152;0.0001597896625753492
-0.064971923828125;-0.155364990234375;-1.004119873046875;-0.03507835790514946;0.007796670310199261;-0.001252484624274075
-0.064971923828125;-0.155364990234375;-1.004119873046875;-0.03507835790514946;0.007796670310199261;-0.001252484624274075
-0.064971923828125;-0.155364990234375;-1.004119873046875;-0.03507835790514946;0.007796670310199261;-0.001252484624274075
-0.064971923828125;-0.155364990234375;-1.004119873046875;-0.03507835790514946;0.007796670310199261;-0.001252484624274075
-0.064971923828125;-0.155364990234375;-1.004119873046875;-0.03507835790514946;0.007796670310199261;-0.001252484624274075
-0.0657501220703125;-0.1551513671875;-1.0019683837890625;-0.037103425711393356;0.011445201002061367;0.000434361572843045
-0.0657501220703125;-0.1551513671875;-1.0019683837890625;-0.037103425711393356;0.011445201002061367;0.000434361572843045
-0.0657501220703125;-0.1551513671875;-1.0019683837890625;-0.037103425711393356;0.011445201002061367;0.000434361572843045
-0.0657501220703125;-0.1551513671875;-1.0019683837890625;-0.037103425711393356;0.011445201002061367;0.000434361572843045
-0.0657501220703125;-0.1551513671875;-1.0019683837890625;-0.037103425711393356;0.011445201002061367;0.000434361572843045
-0.06689453125;-0.1560211181640625;-0.9993743896484375;-0.038731418550014496;0.014567490667104721;-0.004613926634192467
-0.06689453125;-0.1560211181640625;-0.9993743896484375;-0.038731418550014496;0.014567490667104721;-0.004613926634192467
-0.06689453125;-0.1560211181640625;-0.9993743896484375;-0.038731418550014496;0.014567490667104721;-0.004613926634192467
-0.06689453125;-0.1560211181640625;-0.9993743896484375;-0.038731418550014496;0.014567490667104721;-0.004613926634192467
-0.06689453125;-0.1560211181640625;-0.9993743896484375;-0.038731418550014496;0.014567490667104721;-0.004613926634192467
-0.06646728515625;-0.1572723388671875;-0.99884033203125;-0.04144864156842232;0.014156565070152283;-0.003968376200646162
-0.06646728515625;-0.1572723388671875;-0.99884033203125;-0.04144864156842232;0.014156565070152283;-0.003968376200646162
-0.06646728515625;-0.1572723388671875;-0.99884033203125;-0.04144864156842232;0.014156565070152283;-0.003968376200646162
-0.06646728515625;-0.1572723388671875;-0.99884033203125;-0.04144864156842232;0.014156565070152283;-0.003968376200646162
-0.06646728515625;-0.1572723388671875;-0.99884033203125;-0.04144864156842232;0.014156565070152283;-0.003968376200646162
-0.064788818359375;-0.1566619873046875;-0.99847412109375;-0.04103158786892891;0.008696019649505615;-0.0026770094409585
-0.064788818359375;-0.1566619873046875;-0.99847412109375;-0.04103158786892891;0.008696019649505615;-0.0026770094409585
-0.064788818359375;-0.1566619873046875;-0.99847412109375;-0.04103158786892891;0.008696019649505615;-0.0026770094409585
-0.064788818359375;-0.1566619873046875;-0.99847412109375;-0.04103158786892891;0.008696019649505615;-0.0026770094409585
-0.064788818359375;-0.1566619873046875;-0.99847412109375;-0.04103158786892891;0.008696019649505615;-0.0026770094409585
-0.0623321533203125;-0.1552581787109375;-0.99993896484375;-0.03302745893597603;0.007476025726646185;-0.000723048229701817
-0.0623321533203125;-0.1552581787109375;-0.99993896484375;-0.03302745893597603;0.007476025726646185;-0.000723048229701817
-0.0623321533203125;-0.1552581787109375;-0.99993896484375;-0.03302745893597603;0.007476025726646185;-0.000723048229701817
-0.0623321533203125;-0.1552581787109375;-0.99993896484375;-0.03302745893597603;0.007476025726646185;-0.000723048229701817
-0.0623321533203125;-0.1552581787109375;-0.99993896484375;-0.02708408236503601;0.006469617132097483;0.0007355650886893272
-0.0622100830078125;-0.154571533203125;-1.0003662109375;-0.02708408236503601;0.006469617132097483;0.0007355650886893272
-0.0622100830078125;-0.154571533203125;-1.0003662109375;-0.02708408236503601;0.006469617132097483;0.0007355650886893272
-0.0622100830078125;-0.154571533203125;-1.0003662109375;-0.02708408236503601;0.006469617132097483;0.0007355650886893272
-0.0622100830078125;-0.154571533203125;-1.0003662109375;-0.02708408236503601;0.006469617132097483;0.0007355650886893272
-0.0622100830078125;-0.154571533203125;-1.0003662109375;-0.025407621636986732;0.0092307822778821;0.0026551715563982725
-0.0628662109375;-0.153350830078125;-0.9989776611328125;-0.025407621636986732;0.0092307822778821;0.0026551715563982725
-0.0628662109375;-0.153350830078125;-0.9989776611328125;-0.025407621636986732;0.0092307822778821;0.0026551715563982725
-0.0628662109375;-0.153350830078125;-0.9989776611328125;-0.025407621636986732;0.0092307822778821;0.0026551715563982725
-0.0628662109375;-0.153350830078125;-0.9989776611328125;-0.025407621636986732;0.0092307822778821;0.0026551715563982725
-0.0634613037109375;-0.1537933349609375;-0.994720458984375;-0.027591681107878685;0.017838118597865105;0.0023611586075276136
-0.0634613037109375;-0.1537933349609375;-0.994720458984375;-0.027591681107878685;0.017838118597865105;0.0023611586075276136
-0.0634613037109375;-0.1537933349609375;-0.994720458984375;-0.027591681107878685;0.017838118597865105;0.0023611586075276136
-0.0634613037109375;-0.1537933349609375;-0.994720458984375;-0.027591681107878685;0.017838118597865105;0.0023611586075276136
-0.0634613037109375;-0.1537933349609375;-0.994720458984375;-0.027591681107878685;0.017838118597865105;0.0023611586075276136
-0.063720703125;-0.1537628173828125;-0.9915771484375;-0.03241972625255585;0.020433636382222176;0.000595216522924602
-0.063720703125;-0.1537628173828125;-0.9915771484375;-0.03241972625255585;0.020433636382222176;0.000595216522924602
-0.063720703125;-0.1537628173828125;-0.9915771484375;-0.03241972625255585;0.020433636382222176;0.000595216522924602
-0.063720703125;-0.1537628173828125;-0.9915771484375;-0.03241972625255585;0.020433636382222176;0.000595216522924602
-0.063720703125;-0.1537628173828125;-0.9915771484375;-0.03241972625255585;0.020433636382222176;0.000595216522924602
-0.063720703125;-0.1537628173828125;-0.9915771484375;-0.0402374342083931;0.015109976753592491;0.004577174782752991
-0.0624847412109375;-0.153564453125;-0.991241455078125;-0.0402374342083931;0.015109976753592491;0.004577174782752991
-0.0624847412109375;-0.153564453125;-0.991241455078125;-0.0402374342083931;0.015109976753592491;0.004577174782752991
-0.0624847412109375;-0.153564453125;-0.991241455078125;-0.0402374342083931;0.015109976753592491;0.004577174782752991
-0.0624847412109375;-0.153564453125;-0.991241455078125;-0.0402374342083931;0.015109976753592491;0.004577174782752991
-0.060394287109375;-0.1526031494140625;-0.994873046875;-0.039441946893930435;-0.0004820321628358215;0.003123355330899358
-0.060394287109375;-0.1526031494140625;-0.994873046875;-0.039441946893930435;-0.0004820321628358215;0.003123355330899358
-0.060394287109375;-0.1526031494140625;-0.994873046875;-0.039441946893930435;-0.0004820321628358215;0.003123355330899358
-0.060394287109375;-0.1526031494140625;-0.994873046875;-0.039441946893930435;-0.0004820321628358215;0.003123355330899358
-0.060394287109375;-0.1526031494140625;-0.994873046875;-0.039441946893930435;-0.0004820321628358215;0.003123355330899358
-0.0587615966796875;-0.1506195068359375;-0.999481201171875;-0.035527899861335754;-0.021647239103913307;0.0034056503791362047
-0.0587615966796875;-0.1506195068359375;-0.999481201171875;-0.035527899861335754;-0.021647239103913307;0.0034056503791362047
-0.0587615966796875;-0.1506195068359375;-0.999481201171875;-0.035527899861335754;-0.021647239103913307;0.0034056503791362047
-0.0587615966796875;-0.1506195068359375;-0.999481201171875;-0.035527899861335754;-0.021647239103913307;0.0034056503791362047
-0.0587615966796875;-0.1506195068359375;-0.999481201171875;-0.035527899861335754;-0.021647239103913307;0.0034056503791362047
-0.0587615966796875;-0.1506195068359375;-0.999481201171875;-0.025054752826690674;-0.03334144502878189;0.005290902219712734
-0.058990478515625;-0.1505584716796875;-1.003570556640625;-0.025054752826690674;-0.03334144502878189;0.005290902219712734
-0.058990478515625;-0.1505584716796875;-1.003570556640625;-0.025054752826690674;-0.03334144502878189;0.005290902219712734
-0.058990478515625;-0.1505584716796875;-1.003570556640625;-0.025054752826690674;-0.03334144502878189;0.005290902219712734
-0.058990478515625;-0.1505584716796875;-1.003570556640625;-0.025054752826690674;-0.03334144502878189;0.005290902219712734
-0.060394287109375;-0.149627685546875;-1.005828857421875;-0.013484383001923561;-0.036917004734277725;0.005253085400909185
-0.060394287109375;-0.149627685546875;-1.005828857421875;-0.013484383001923561;-0.036917004734277725;0.005253085400909185
-0.060394287109375;-0.149627685546875;-1.005828857421875;-0.013484383001923561;-0.036917004734277725;0.005253085400909185
-0.060394287109375;-0.149627685546875;-1.005828857421875;-0.013484383001923561;-0.036917004734277725;0.005253085400909185
-0.060394287109375;-0.149627685546875;-1.005828857421875;-0.013484383001923561;-0.036917004734277725;0.005253085400909185
-0.062652587890625;-0.1498870849609375;-1.0069427490234375;-0.0019981698133051395;-0.033842120319604874;0.0049558766186237335
-0.062652587890625;-0.1498870849609375;-1.0069427490234375;-0.0019981698133051395;-0.033842120319604874;0.0049558766186237335
-0.062652587890625;-0.1498870849609375;-1.0069427490234375;-0.0019981698133051395;-0.033842120319604874;0.0049558766186237335
-0.062652587890625;-0.1498870849609375;-1.0069427490234375;-0.0019981698133051395;-0.033842120319604874;0.0049558766186237335
-0.062652587890625;-0.1498870849609375;-1.0069427490234375;-0.0019981698133051395;-0.033842120319604874;0.0049558766186237335
-0.063873291015625;-0.1502838134765625;-1.0073089599609375;0.011696070432662964;-0.024392956867814064;0.004236822947859764
-0.063873291015625;-0.1502838134765625;-1.0073089599609375;0.011696070432662964;-0.024392956867814064;0.004236822947859764
-0.063873291015625;-0.1502838134765625;-1.0073089599609375;0.011696070432662964;-0.024392956867814064;0.004236822947859764
-0.063873291015625;-0.1502838134765625;-1.0073089599609375;0.011696070432662964;-0.024392956867814064;0.004236822947859764
-0.063873291015625;-0.1502838134765625;-1.0073089599609375;0.011696070432662964;-0.024392956867814064;0.004236822947859764
-0.0641326904296875;-0.1508331298828125;-1.008270263671875;0.019705528393387794;-0.014788000844419003;0.00433189794421196
-0.0641326904296875;-0.1508331298828125;-1.008270263671875;0.019705528393387794;-0.014788000844419003;0.00433189794421196
-0.0641326904296875;-0.1508331298828125;-1.008270263671875;0.019705528393387794;-0.014788000844419003;0.00433189794421196
-0.0641326904296875;-0.1508331298828125;-1.008270263671875;0.019705528393387794;-0.014788000844419003;0.00433189794421196
-0.0641326904296875;-0.1508331298828125;-1.008270263671875;0.019705528393387794;-0.014788000844419003;0.00433189794421196
-0.0636749267578125;-0.1502838134765625;-1.009033203125;0.027786623686552048;-0.010586597956717014;0.004542021080851555
-0.0636749267578125;-0.1502838134765625;-1.009033203125;0.027786623686552048;-0.010586597956717014;0.004542021080851555
-0.0636749267578125;-0.1502838134765625;-1.009033203125;0.027786623686552048;-0.010586597956717014;0.004542021080851555
-0.0636749267578125;-0.1502838134765625;-1.009033203125;0.027786623686552048;-0.010586597956717014;0.004542021080851555
-0.0636749267578125;-0.1502838134765625;-1.009033203125;0.027786623686552048;-0.010586597956717014;0.004542021080851555
-0.06298828125;-0.15155029296875;-1.0084381103515625;0.0317121222615242;-0.010042780078947544;0.0033417344093322754
-0.06298828125;-0.15155029296875;-1.0084381103515625;0.0317121222615242;-0.010042780078947544;0.0033417344093322754
-0.06298828125;-0.15155029296875;-1.0084381103515625;0.0317121222615242;-0.010042780078947544;0.0033417344093322754
-0.06298828125;-0.15155029296875;-1.0084381103515625;0.0317121222615242;-0.010042780078947544;0.0033417344093322754
-0.06298828125;-0.15155029296875;-1.0084381103515625;0.0317121222615242;-0.010042780078947544;0.0033417344093322754
-0.062103271484375;-0.1514739990234375;-1.00860595703125;0.03338964655995369;-0.014795457944273949;0.006364156026393175
-0.062103271484375;-0.1514739990234375;-1.00860595703125;0.03338964655995369;-0.014795457944273949;0.006364156026393175
-0.062103271484375;-0.1514739990234375;-1.00860595703125;0.03338964655995369;-0.014795457944273949;0.006364156026393175
-0.062103271484375;-0.1514739990234375;-1.00860595703125;0.03338964655995369;-0.014795457944273949;0.006364156026393175
-0.062103271484375;-0.1514739990234375;-1.00860595703125;0.03338964655995369;-0.014795457944273949;0.006364156026393175
-0.0614471435546875;-0.150909423828125;-1.007843017578125;0.031801339238882065;-0.017593640834093094;0.0034698324743658304
-0.0614471435546875;-0.150909423828125;-1.007843017578125;0.031801339238882065;-0.017593640834093094;0.0034698324743658304
-0.0614471435546875;-0.150909423828125;-1.007843017578125;0.031801339238882065;-0.017593640834093094;0.0034698324743658304
-0.0614471435546875;-0.150909423828125;-1.007843017578125;0.031801339238882065;-0.017593640834093094;0.0034698324743658304
-0.0614471435546875;-0.150909423828125;-1.007843017578125;0.031801339238882065;-0.017593640834093094;0.0034698324743658304
-0.0609588623046875;-0.1505279541015625;-1.0062713623046875;0.02737356722354889;-0.017049023881554604;0.006178267300128937
-0.0609588623046875;-0.1505279541015625;-1.0062713623046875;0.02737356722354889;-0.017049023881554604;0.006178267300128937
-0.0609588623046875;-0.1505279541015625;-1.0062713623046875;0.02737356722354889;-0.017049023881554604;0.006178267300128937
-0.0609588623046875;-0.1505279541015625;-1.0062713623046875;0.02737356722354889;-0.017049023881554604;0.006178267300128937
-0.0609588623046875;-0.1505279541015625;-1.0062713623046875;0.02737356722354889;-0.017049023881554604;0.006178267300128937
-0.0608062744140625;-0.1492767333984375;-1.00347900390625;0.026631344109773636;-0.014919294975697994;0.002526008291170001
-0.0608062744140625;-0.1492767333984375;-1.00347900390625;0.026631344109773636;-0.014919294975697994;0.002526008291170001
-0.0608062744140625;-0.1492767333984375;-1.00347900390625;0.026631344109773636;-0.014919294975697994;0.002526008291170001
-0.0608062744140625;-0.1492767333984375;-1.00347900390625;0.026631344109773636;-0.014919294975697994;0.002526008291170001
-0.0608062744140625;-0.1492767333984375;-1.00347900390625;0.026631344109773636;-0.014919294975697994;0.002526008291170001
-0.0620269775390625;-0.148956298828125;-1.0010223388671875;0.024477379396557808;-0.013175456784665585;0.004186489153653383
-0.0620269775390625;-0.148956298828125;-1.0010223388671875;0.024477379396557808;-0.013175456784665585;0.004186489153653383
-0.0620269775390625;-0.148956298828125;-1.0010223388671875;0.024477379396557808;-0.013175456784665585;0.004186489153653383
-0.0620269775390625;-0.148956298828125;-1.0010223388671875;0.024477379396557808;-0.013175456784665585;0.004186489153653383
-0.0620269775390625;-0.148956298828125;-1.0010223388671875;0.024477379396557808;-0.013175456784665585;0.004186489153653383
-0.0623779296875;-0.1495819091796875;-0.9998626708984375;0.018544388934969902;-0.010919226333498955;0.0019001654582098126
-0.0623779296875;-0.1495819091796875;-0.9998626708984375;0.018544388934969902;-0.010919226333498955;0.0019001654582098126
-0.0623779296875;-0.1495819091796875;-0.9998626708984375;0.018544388934969902;-0.010919226333498955;0.0019001654582098126
-0.0623779296875;-0.1495819091796875;-0.9998626708984375;0.018544388934969902;-0.010919226333498955;0.0019001654582098126
-0.0623779296875;-0.1495819091796875;-0.9998626708984375;0.018544388934969902;-0.010919226333498955;0.0019001654582098126
-0.0615692138671875;-0.14947509765625;-0.998809814453125;0.015868712216615677;-0.009532252326607704;0.0027651600539684296
-0.0615692138671875;-0.14947509765625;-0.998809814453125;0.015868712216615677;-0.009532252326607704;0.0027651600539684296
-0.0615692138671875;-0.14947509765625;-0.998809814453125;0.015868712216615677;-0.009532252326607704;0.0027651600539684296
-0.0615692138671875;-0.14947509765625;-0.998809814453125;0.015868712216615677;-0.009532252326607704;0.0027651600539684296
-0.0615692138671875;-0.14947509765625;-0.998809814453125;0.015868712216615677;-0.009532252326607704;0.0027651600539684296
-0.06317138671875;-0.149444580078125;-0.998291015625;0.011815113946795464;-0.008275507017970085;0.0027409254107624292
-0.06317138671875;-0.149444580078125;-0.998291015625;0.011815113946795464;-0.008275507017970085;0.0027409254107624292
-0.06317138671875;-0.149444580078125;-0.998291015625;0.011815113946795464;-0.008275507017970085;0.0027409254107624292
-0.06317138671875;-0.149444580078125;-0.998291015625;0.011815113946795464;-0.008275507017970085;0.0027409254107624292
-0.06317138671875;-0.149444580078125;-0.998291015625;0.011815113946795464;-0.008275507017970085;0.0027409254107624292
-0.064300537109375;-0.14971923828125;-0.998565673828125;0.007567638531327248;-0.004807538352906704;0.0022218753583729267
-0.064300537109375;-0.14971923828125;-0.998565673828125;0.007567638531327248;-0.004807538352906704;0.0022218753583729267
-0.064300537109375;-0.14971923828125;-0.998565673828125;0.007567638531327248;-0.004807538352906704;0.0022218753583729267
-0.064300537109375;-0.14971923828125;-0.998565673828125;0.007567638531327248;-0.004807538352906704;0.0022218753583729267
-0.064300537109375;-0.14971923828125;-0.998565673828125;0.007567638531327248;-0.004807538352906704;0.0022218753583729267
-0.0641632080078125;-0.151153564453125;-0.9998321533203125;0.0072986590676009655;-0.010040383785963058;0.005275722127407789
-0.0641632080078125;-0.151153564453125;-0.9998321533203125;0.0072986590676009655;-0.010040383785963058;0.005275722127407789
-0.0641632080078125;-0.151153564453125;-0.9998321533203125;0.0072986590676009655;-0.010040383785963058;0.005275722127407789
-0.0641632080078125;-0.151153564453125;-0.9998321533203125;0.0072986590676009655;-0.010040383785963058;0.005275722127407789
-0.0641632080078125;-0.151153564453125;-0.9998321533203125;0.0072986590676009655;-0.010040383785963058;0.005275722127407789
-0.0642547607421875;-0.15234375;-1.001739501953125;0.009475260972976685;-0.013116334564983845;0.0034011229872703552
-0.0642547607421875;-0.15234375;-1.001739501953125;0.009475260972976685;-0.013116334564983845;0.0034011229872703552
-0.0642547607421875;-0.15234375;-1.001739501953125;0.009475260972976685;-0.013116334564983845;0.0034011229872703552
-0.0642547607421875;-0.15234375;-1.001739501953125;0.009475260972976685;-0.013116334564983845;0.0034011229872703552
-0.0642547607421875;-0.15234375;-1.001739501953125;0.009475260972976685;-0.013116334564983845;0.0034011229872703552
-0.0643768310546875;-0.152618408203125;-1.0032958984375;0.006837932392954826;-0.0153738958761096;0.00023169501218944788
-0.0643768310546875;-0.152618408203125;-1.0032958984375;0.006837932392954826;-0.0153738958761096;0.00023169501218944788
-0.0643768310546875;-0.152618408203125;-1.0032958984375;0.006837932392954826;-0.0153738958761096;0.00023169501218944788
-0.0643768310546875;-0.152618408203125;-1.0032958984375;0.006837932392954826;-0.0153738958761096;0.00023169501218944788
-0.0643768310546875;-0.152618408203125;-1.0032958984375;0.006837932392954826;-0.0153738958761096;0.00023169501218944788
-0.064056396484375;-0.1517333984375;-1.001861572265625;0.005805424880236387;-0.01575685851275921;0.00042104575550183654
-0.064056396484375;-0.1517333984375;-1.001861572265625;0.005805424880236387;-0.01575685851275921;0.00042104575550183654
-0.064056396484375;-0.1517333984375;-1.001861572265625;0.005805424880236387;-0.01575685851275921;0.00042104575550183654
-0.064056396484375;-0.1517333984375;-1.001861572265625;0.005805424880236387;-0.01575685851275921;0.00042104575550183654
-0.064056396484375;-0.1517333984375;-1.001861572265625;0.005805424880236387;-0.01575685851275921;0.00042104575550183654
-0.0633544921875;-0.1513519287109375;-1.00079345703125;0.0030655646696686745;-0.01494992058724165;-0.0005560680292546749
-0.0633544921875;-0.1513519287109375;-1.00079345703125;0.0030655646696686745;-0.01494992058724165;-0.0005560680292546749
-0.0633544921875;-0.1513519287109375;-1.00079345703125;0.0030655646696686745;-0.01494992058724165;-0.0005560680292546749
-0.0633544921875;-0.1513519287109375;-1.00079345703125;0.0030655646696686745;-0.01494992058724165;-0.0005560680292546749
-0.0633544921875;-0.1513519287109375;-1.00079345703125;0.0030655646696686745;-0.01494992058724165;-0.0005560680292546749
-0.0631103515625;-0.1517181396484375;-0.9982147216796875;-0.002781671704724431;-0.017788052558898926;0.00221947836689651
-0.0631103515625;-0.1517181396484375;-0.9982147216796875;-0.002781671704724431;-0.017788052558898926;0.00221947836689651
-0.0631103515625;-0.1517181396484375;-0.9982147216796875;-0.002781671704724431;-0.017788052558898926;0.00221947836689651
-0.0631103515625;-0.1517181396484375;-0.9982147216796875;-0.002781671704724431;-0.017788052558898926;0.00221947836689651
-0.0631103515625;-0.1517181396484375;-0.9982147216796875;-0.002781671704724431;-0.017788052558898926;0.00221947836689651
-0.0630950927734375;-0.1527099609375;-0.99652099609375;-0.008128500543534756;-0.01865384541451931;0.0036786242853850126
-0.0630950927734375;-0.1527099609375;-0.99652099609375;-0.008128500543534756;-0.01865384541451931;0.0036786242853850126
-0.0630950927734375;-0.1527099609375;-0.99652099609375;-0.008128500543534756;-0.01865384541451931;0.0036786242853850126
-0.0630950927734375;-0.1527099609375;-0.99652099609375;-0.008128500543534756;-0.01865384541451931;0.0036786242853850126
-0.0630950927734375;-0.1527099609375;-0.99652099609375;-0.008128500543534756;-0.01865384541451931;0.0036786242853850126
-0.0637664794921875;-0.15289306640625;-0.9976043701171875;-0.011199125088751316;-0.018459700047969818;0.0013749900972470641
-0.0637664794921875;-0.15289306640625;-0.9976043701171875;-0.011199125088751316;-0.018459700047969818;0.0013749900972470641
-0.0637664794921875;-0.15289306640625;-0.9976043701171875;-0.011199125088751316;-0.018459700047969818;0.0013749900972470641
-0.0637664794921875;-0.15289306640625;-0.9976043701171875;-0.011199125088751316;-0.018459700047969818;0.0013749900972470641
-0.0637664794921875;-0.15289306640625;-0.9976043701171875;-0.011199125088751316;-0.018459700047969818;0.0013749900972470641
-0.0634307861328125;-0.1532135009765625;-0.9985809326171875;-0.009466472081840038;-0.02015453577041626;0.0009590042755007744
-0.0634307861328125;-0.1532135009765625;-0.9985809326171875;-0.009466472081840038;-0.02015453577041626;0.0009590042755007744
-0.0634307861328125;-0.1532135009765625;-0.9985809326171875;-0.009466472081840038;-0.02015453577041626;0.0009590042755007744
-0.0634307861328125;-0.1532135009765625;-0.9985809326171875;-0.009466472081840038;-0.02015453577041626;0.0009590042755007744
-0.0634307861328125;-0.1532135009765625;-0.9985809326171875;-0.009466472081840038;-0.02015453577041626;0.0009590042755007744
-0.065032958984375;-0.15228271484375;-1.00042724609375;-0.0062395199202001095;-0.022308234125375748;0.00041811628034338355
-0.065032958984375;-0.15228271484375;-1.00042724609375;-0.0062395199202001095;-0.022308234125375748;0.00041811628034338355
-0.065032958984375;-0.15228271484375;-1.00042724609375;-0.0062395199202001095;-0.022308234125375748;0.00041811628034338355
-0.065032958984375;-0.15228271484375;-1.00042724609375;-0.0062395199202001095;-0.022308234125375748;0.00041811628034338355
-0.065032958984375;-0.15228271484375;-1.00042724609375;-0.0062395199202001095;-0.022308234125375748;0.00041811628034338355
-0.065032958984375;-0.1528778076171875;-1.004608154296875;0.007364972028881311;-0.024208134040236473;0.0004655205411836505
-0.065032958984375;-0.1528778076171875;-1.004608154296875;0.007364972028881311;-0.024208134040236473;0.0004655205411836505
-0.065032958984375;-0.1528778076171875;-1.004608154296875;0.007364972028881311;-0.024208134040236473;0.0004655205411836505
-0.065032958984375;-0.1528778076171875;-1.004608154296875;0.007364972028881311;-0.024208134040236473;0.0004655205411836505
-0.065032958984375;-0.1528778076171875;-1.004608154296875;0.007364972028881311;-0.024208134040236473;0.0004655205411836505
-0.06561279296875;-0.1540374755859375;-1.009490966796875;0.022789468988776207;-0.02412903867661953;-0.0014293185668066144
-0.06561279296875;-0.1540374755859375;-1.009490966796875;0.022789468988776207;-0.02412903867661953;-0.0014293185668066144
-0.06561279296875;-0.1540374755859375;-1.009490966796875;0.022789468988776207;-0.02412903867661953;-0.0014293185668066144
-0.06561279296875;-0.1540374755859375;-1.009490966796875;0.022789468988776207;-0.02412903867661953;-0.0014293185668066144
-0.06561279296875;-0.1540374755859375;-1.009490966796875;0.022789468988776207;-0.02412903867661953;-0.0014293185668066144
-0.0666351318359375;-0.15478515625;-1.0116424560546875;0.0400153249502182;-0.030186930671334267;-0.0007701861904934049
-0.0666351318359375;-0.15478515625;-1.0116424560546875;0.0400153249502182;-0.030186930671334267;-0.0007701861904934049
-0.0666351318359375;-0.15478515625;-1.0116424560546875;0.0400153249502182;-0.030186930671334267;-0.0007701861904934049
-0.0666351318359375;-0.15478515625;-1.0116424560546875;0.0400153249502182;-0.030186930671334267;-0.0007701861904934049
-0.0666351318359375;-0.15478515625;-1.0116424560546875;0.0400153249502182;-0.030186930671334267;-0.0007701861904934049
-0.066009521484375;-0.15533447265625;-1.014190673828125;0.0568571574985981;-0.0366421677172184;0.0011922972043976188
-0.066009521484375;-0.15533447265625;-1.014190673828125;0.0568571574985981;-0.0366421677172184;0.0011922972043976188
-0.066009521484375;-0.15533447265625;-1.014190673828125;0.0568571574985981;-0.0366421677172184;0.0011922972043976188
-0.066009521484375;-0.15533447265625;-1.014190673828125;0.0568571574985981;-0.0366421677172184;0.0011922972043976188
-0.066009521484375;-0.15533447265625;-1.014190673828125;0.0568571574985981;-0.0366421677172184;0.0011922972043976188
-0.0653839111328125;-0.1558837890625;-1.01312255859375;0.06504690647125244;-0.03320322558283806;-0.0002966761530842632
-0.0653839111328125;-0.1558837890625;-1.01312255859375;0.06504690647125244;-0.03320322558283806;-0.0002966761530842632
-0.0653839111328125;-0.1558837890625;-1.01312255859375;0.06504690647125244;-0.03320322558283806;-0.0002966761530842632
-0.0653839111328125;-0.1558837890625;-1.01312255859375;0.06504690647125244;-0.03320322558283806;-0.0002966761530842632
-0.0653839111328125;-0.1558837890625;-1.01312255859375;0.06504690647125244;-0.03320322558283806;-0.0002966761530842632
-0.064666748046875;-0.1571502685546875;-1.004119873046875;0.059903547167778015;-0.01990899257361889;0.006405967753380537
-0.064666748046875;-0.1571502685546875;-1.004119873046875;0.059903547167778015;-0.01990899257361889;0.006405967753380537
-0.064666748046875;-0.1571502685546875;-1.004119873046875;0.059903547167778015;-0.01990899257361889;0.006405967753380537
-0.064666748046875;-0.1571502685546875;-1.004119873046875;0.059903547167778015;-0.01990899257361889;0.006405967753380537
-0.064666748046875;-0.1571502685546875;-1.004119873046875;0.059903547167778015;-0.01990899257361889;0.006405967753380537
-0.06646728515625;-0.157958984375;-0.99359130859375;0.044565603137016296;-0.0035278894938528538;0.007738080807030201
-0.06646728515625;-0.157958984375;-0.99359130859375;0.044565603137016296;-0.0035278894938528538;0.007738080807030201
-0.06646728515625;-0.157958984375;-0.99359130859375;0.044565603137016296;-0.0035278894938528538;0.007738080807030201
-0.06646728515625;-0.157958984375;-0.99359130859375;0.044565603137016296;-0.0035278894938528538;0.007738080807030201
-0.06646728515625;-0.157958984375;-0.99359130859375;0.044565603137016296;-0.0035278894938528538;0.007738080807030201
-0.0672607421875;-0.15740966796875;-0.98675537109375;0.024411866441369057;0.007938350550830364;0.007982292212545872
-0.0672607421875;-0.15740966796875;-0.98675537109375;0.024411866441369057;0.007938350550830364;0.007982292212545872
-0.0672607421875;-0.15740966796875;-0.98675537109375;0.024411866441369057;0.007938350550830364;0.007982292212545872
-0.0672607421875;-0.15740966796875;-0.98675537109375;0.024411866441369057;0.007938350550830364;0.007982292212545872
-0.0672607421875;-0.15740966796875;-0.98675537109375;0.0033888723701238632;0.002916427794843912;0.009959157556295395
-0.06781005859375;-0.1556396484375;-0.9853515625;0.0033888723701238632;0.002916427794843912;0.009959157556295395
-0.06781005859375;-0.1556396484375;-0.9853515625;0.0033888723701238632;0.002916427794843912;0.009959157556295395
-0.06781005859375;-0.1556396484375;-0.9853515625;0.0033888723701238632;0.002916427794843912;0.009959157556295395
-0.06781005859375;-0.1556396484375;-0.9853515625;0.0033888723701238632;0.002916427794843912;0.009959157556295395
-0.06781005859375;-0.1556396484375;-0.9853515625;0.0033888723701238632;0.002916427794843912;0.009959157556295395
-0.068572998046875;-0.154296875;-0.9879913330078125;-0.010510165244340897;-0.00845606904476881;0.008101868443191051
-0.068572998046875;-0.154296875;-0.9879913330078125;-0.010510165244340897;-0.00845606904476881;0.008101868443191051
-0.068572998046875;-0.154296875;-0.9879913330078125;-0.010510165244340897;-0.00845606904476881;0.008101868443191051
-0.068572998046875;-0.154296875;-0.9879913330078125;-0.010510165244340897;-0.00845606904476881;0.008101868443191051
-0.0688629150390625;-0.1522216796875;-0.9937591552734375;-0.016817595809698105;-0.018519887700676918;0.003635747591033578
-0.0688629150390625;-0.1522216796875;-0.9937591552734375;-0.016817595809698105;-0.018519887700676918;0.003635747591033578
-0.0688629150390625;-0.1522216796875;-0.9937591552734375;-0.016817595809698105;-0.018519887700676918;0.003635747591033578
-0.0688629150390625;-0.1522216796875;-0.9937591552734375;-0.016817595809698105;-0.018519887700676918;0.003635747591033578
-0.0688629150390625;-0.1522216796875;-0.9937591552734375;-0.016817595809698105;-0.018519887700676918;0.003635747591033578
-0.068634033203125;-0.1502227783203125;-0.9987335205078125;-0.011268100701272488;-0.03173156455159187;0.004356931429356337
-0.068634033203125;-0.1502227783203125;-0.9987335205078125;-0.011268100701272488;-0.03173156455159187;0.004356931429356337
-0.068634033203125;-0.1502227783203125;-0.9987335205078125;-0.011268100701272488;-0.03173156455159187;0.004356931429356337
-0.068634033203125;-0.1502227783203125;-0.9987335205078125;-0.011268100701272488;-0.03173156455159187;0.004356931429356337
-0.068634033203125;-0.1502227783203125;-0.9987335205078125;-0.011268100701272488;-0.03173156455159187;0.004356931429356337
-0.068634033203125;-0.1502227783203125;-0.9987335205078125;0.006380667444318533;-0.03575533255934715;0.002627208363264799
-0.0677947998046875;-0.1500701904296875;-1.006683349609375;0.006380667444318533;-0.03575533255934715;0.002627208363264799
-0.0677947998046875;-0.1500701904296875;-1.006683349609375;0.006380667444318533;-0.03575533255934715;0.002627208363264799
-0.0677947998046875;-0.1500701904296875;-1.006683349609375;0.006380667444318533;-0.03575533255934715;0.002627208363264799
-0.0677947998046875;-0.1500701904296875;-1.006683349609375;0.006380667444318533;-0.03575533255934715;0.002627208363264799
-0.069183349609375;-0.149627685546875;-1.0147705078125;0.022730879485607147;-0.03646666556596756;0.0046488139778375626
-0.069183349609375;-0.149627685546875;-1.0147705078125;0.022730879485607147;-0.03646666556596756;0.0046488139778375626
-0.069183349609375;-0.149627685546875;-1.0147705078125;0.022730879485607147;-0.03646666556596756;0.0046488139778375626
-0.069183349609375;-0.149627685546875;-1.0147705078125;0.022730879485607147;-0.03646666556596756;0.0046488139778375626
-0.069183349609375;-0.149627685546875;-1.0147705078125;0.022730879485607147;-0.03646666556596756;0.0046488139778375626
-0.0697174072265625;-0.1516571044921875;-1.0146484375;0.03365330025553703;-0.023451529443264008;0.005298092495650053
-0.0697174072265625;-0.1516571044921875;-1.0146484375;0.03365330025553703;-0.023451529443264008;0.005298092495650053
-0.0697174072265625;-0.1516571044921875;-1.0146484375;0.03365330025553703;-0.023451529443264008;0.005298092495650053
-0.0697174072265625;-0.1516571044921875;-1.0146484375;0.03365330025553703;-0.023451529443264008;0.005298092495650053
-0.0697174072265625;-0.1516571044921875;-1.0146484375;0.03365330025553703;-0.023451529443264008;0.005298092495650053
-0.0691375732421875;-0.1553497314453125;-1.0072784423828125;0.03699370473623276;-0.007464307826012373;0.0017086841398850083
-0.0691375732421875;-0.1553497314453125;-1.0072784423828125;0.03699370473623276;-0.007464307826012373;0.0017086841398850083
-0.0691375732421875;-0.1553497314453125;-1.0072784423828125;0.03699370473623276;-0.007464307826012373;0.0017086841398850083
-0.0691375732421875;-0.1553497314453125;-1.0072784423828125;0.03699370473623276;-0.007464307826012373;0.0017086841398850083
-0.0691375732421875;-0.1553497314453125;-1.0072784423828125;0.03699370473623276;-0.007464307826012373;0.0017086841398850083
-0.068389892578125;-0.1583709716796875;-0.9969940185546875;0.034514036029577255;0.004328968469053507;0.004594751633703709
-0.068389892578125;-0.1583709716796875;-0.9969940185546875;0.034514036029577255;0.004328968469053507;0.004594751633703709
-0.068389892578125;-0.1583709716796875;-0.9969940185546875;0.034514036029577255;0.004328968469053507;0.004594751633703709
-0.068389892578125;-0.1583709716796875;-0.9969940185546875;0.034514036029577255;0.004328968469053507;0.004594751633703709
-0.068389892578125;-0.1583709716796875;-0.9969940185546875;0.034514036029577255;0.004328968469053507;0.004594751633703709
-0.0667724609375;-0.1607666015625;-0.9931182861328125;0.028271052986383438;0.011920575052499771;0.004848551005125046
-0.0667724609375;-0.1607666015625;-0.9931182861328125;0.028271052986383438;0.011920575052499771;0.004848551005125046
-0.0667724609375;-0.1607666015625;-0.9931182861328125;0.028271052986383438;0.011920575052499771;0.004848551005125046
-0.0667724609375;-0.1607666015625;-0.9931182861328125;0.028271052986383438;0.011920575052499771;0.004848551005125046
-0.0667724609375;-0.1607666015625;-0.9931182861328125;0.028271052986383438;0.011920575052499771;0.004848551005125046
-0.06414794921875;-0.16259765625;-0.9953155517578125;0.027164509519934654;0.0026972496416419744;0.005079713650047779
-0.06414794921875;-0.16259765625;-0.9953155517578125;0.027164509519934654;0.0026972496416419744;0.005079713650047779
-0.06414794921875;-0.16259765625;-0.9953155517578125;0.027164509519934654;0.0026972496416419744;0.005079713650047779
-0.06414794921875;-0.16259765625;-0.9953155517578125;0.027164509519934654;0.0026972496416419744;0.005079713650047779
-0.06414794921875;-0.16259765625;-0.9953155517578125;0.027164509519934654;0.0026972496416419744;0.005079713650047779
-0.0631103515625;-0.1620635986328125;-0.9983978271484375;0.02743109129369259;-0.013994645327329636;0.0041430797427892685
-0.0631103515625;-0.1620635986328125;-0.9983978271484375;0.02743109129369259;-0.013994645327329636;0.0041430797427892685
-0.0631103515625;-0.1620635986328125;-0.9983978271484375;0.02743109129369259;-0.013994645327329636;0.0041430797427892685
-0.0631103515625;-0.1620635986328125;-0.9983978271484375;0.02743109129369259;-0.013994645327329636;0.0041430797427892685
-0.0631103515625;-0.1620635986328125;-0.9983978271484375;0.02743109129369259;-0.013994645327329636;0.0041430797427892685
-0.0636138916015625;-0.16265869140625;-1.0010223388671875;0.03401043266057968;-0.03259922191500664;0.005589975044131279
-0.0636138916015625;-0.16265869140625;-1.0010223388671875;0.03401043266057968;-0.03259922191500664;0.005589975044131279
-0.0636138916015625;-0.16265869140625;-1.0010223388671875;0.03401043266057968;-0.03259922191500664;0.005589975044131279
-0.0636138916015625;-0.16265869140625;-1.0010223388671875;0.03401043266057968;-0.03259922191500664;0.005589975044131279
-0.0636138916015625;-0.16265869140625;-1.0010223388671875;0.03401043266057968;-0.03259922191500664;0.005589975044131279
-0.065643310546875;-0.162322998046875;-1.0025787353515625;0.04312270134687424;-0.0536256767809391;0.005276521202176809
-0.065643310546875;-0.162322998046875;-1.0025787353515625;0.04312270134687424;-0.0536256767809391;0.005276521202176809
-0.065643310546875;-0.162322998046875;-1.0025787353515625;0.04312270134687424;-0.0536256767809391;0.005276521202176809
-0.065643310546875;-0.162322998046875;-1.0025787353515625;0.04312270134687424;-0.0536256767809391;0.005276521202176809
-0.065643310546875;-0.162322998046875;-1.0025787353515625;0.04312270134687424;-0.0536256767809391;0.005276521202176809
-0.067962646484375;-0.1612701416015625;-1.003173828125;0.04561542347073555;-0.06457952409982681;0.007535680662840605
-0.067962646484375;-0.1612701416015625;-1.003173828125;0.04561542347073555;-0.06457952409982681;0.007535680662840605
-0.067962646484375;-0.1612701416015625;-1.003173828125;0.04561542347073555;-0.06457952409982681;0.007535680662840605
-0.067962646484375;-0.1612701416015625;-1.003173828125;0.04561542347073555;-0.06457952409982681;0.007535680662840605
-0.067962646484375;-0.1612701416015625;-1.003173828125;0.04561542347073555;-0.06457952409982681;0.007535680662840605
-0.0711669921875;-0.1600799560546875;-1.00140380859375;0.04751505330204964;-0.0717673972249031;0.006505569908767939
-0.0711669921875;-0.1600799560546875;-1.00140380859375;0.04751505330204964;-0.0717673972249031;0.006505569908767939
-0.0711669921875;-0.1600799560546875;-1.00140380859375;0.04751505330204964;-0.0717673972249031;0.006505569908767939
-0.0711669921875;-0.1600799560546875;-1.00140380859375;0.04751505330204964;-0.0717673972249031;0.006505569908767939
-0.0711669921875;-0.1600799560546875;-1.00140380859375;0.04751505330204964;-0.0717673972249031;0.006505569908767939
-0.07391357421875;-0.15728759765625;-0.997344970703125;0.04575603827834129;-0.0677308440208435;0.006032059900462627
-0.07391357421875;-0.15728759765625;-0.997344970703125;0.04575603827834129;-0.0677308440208435;0.006032059900462627
-0.07391357421875;-0.15728759765625;-0.997344970703125;0.04575603827834129;-0.0677308440208435;0.006032059900462627
-0.07391357421875;-0.15728759765625;-0.997344970703125;0.04575603827834129;-0.0677308440208435;0.006032059900462627
-0.07391357421875;-0.15728759765625;-0.997344970703125;0.04575603827834129;-0.0677308440208435;0.006032059900462627
-0.074737548828125;-0.154510498046875;-0.99505615234375;0.04579918086528778;-0.06111608445644379;0.00854155607521534
-0.074737548828125;-0.154510498046875;-0.99505615234375;0.04579918086528778;-0.06111608445644379;0.00854155607521534
-0.074737548828125;-0.154510498046875;-0.99505615234375;0.04579918086528778;-0.06111608445644379;0.00854155607521534
-0.074737548828125;-0.154510498046875;-0.99505615234375;0.04579918086528778;-0.06111608445644379;0.00854155607521534
-0.07318115234375;-0.153472900390625;-0.993896484375;0.03705282509326935;-0.057018812745809555;0.01050377357751131
-0.07318115234375;-0.153472900390625;-0.993896484375;0.03705282509326935;-0.057018812745809555;0.01050377357751131
-0.07318115234375;-0.153472900390625;-0.993896484375;0.03705282509326935;-0.057018812745809555;0.01050377357751131
-0.07318115234375;-0.153472900390625;-0.993896484375;0.03705282509326935;-0.057018812745809555;0.01050377357751131
-0.07318115234375;-0.153472900390625;-0.993896484375;0.03705282509326935;-0.057018812745809555;0.01050377357751131
-0.0720367431640625;-0.1529541015625;-0.99554443359375;0.03381175920367241;-0.05343073606491089;0.012862002477049828
-0.0720367431640625;-0.1529541015625;-0.99554443359375;0.03381175920367241;-0.05343073606491089;0.012862002477049828
-0.0720367431640625;-0.1529541015625;-0.99554443359375;0.03381175920367241;-0.05343073606491089;0.012862002477049828
-0.0720367431640625;-0.1529541015625;-0.99554443359375;0.03381175920367241;-0.05343073606491089;0.012862002477049828
-0.0720367431640625;-0.1529541015625;-0.99554443359375;0.03381175920367241;-0.05343073606491089;0.012862002477049828
-0.0713348388671875;-0.15411376953125;-0.99981689453125;0.03724990040063858;-0.05799965187907219;0.012921124696731567
-0.0713348388671875;-0.15411376953125;-0.99981689453125;0.03724990040063858;-0.05799965187907219;0.012921124696731567
-0.0713348388671875;-0.15411376953125;-0.99981689453125;0.03724990040063858;-0.05799965187907219;0.012921124696731567
-0.0713348388671875;-0.15411376953125;-0.99981689453125;0.03724990040063858;-0.05799965187907219;0.012921124696731567
-0.0713348388671875;-0.15411376953125;-0.99981689453125;0.03724990040063858;-0.05799965187907219;0.012921124696731567
-0.0709381103515625;-0.155364990234375;-1.0037841796875;0.04409236088395119;-0.05841057747602463;0.009047823026776314
-0.0709381103515625;-0.155364990234375;-1.0037841796875;0.04409236088395119;-0.05841057747602463;0.009047823026776314
-0.0709381103515625;-0.155364990234375;-1.0037841796875;0.04409236088395119;-0.05841057747602463;0.009047823026776314
-0.0709381103515625;-0.155364990234375;-1.0037841796875;0.04409236088395119;-0.05841057747602463;0.009047823026776314
-0.0709381103515625;-0.155364990234375;-1.0037841796875;0.04409236088395119;-0.05841057747602463;0.009047823026776314
-0.0713348388671875;-0.157470703125;-1.010040283203125;0.05416230484843254;-0.053276803344488144;0.006747651379555464
-0.0713348388671875;-0.157470703125;-1.010040283203125;0.05416230484843254;-0.053276803344488144;0.006747651379555464
-0.0713348388671875;-0.157470703125;-1.010040283203125;0.05416230484843254;-0.053276803344488144;0.006747651379555464
-0.0713348388671875;-0.157470703125;-1.010040283203125;0.05416230484843254;-0.053276803344488144;0.006747651379555464
-0.0713348388671875;-0.157470703125;-1.010040283203125;0.05416230484843254;-0.053276803344488144;0.006747651379555464
-0.0720062255859375;-0.1592254638671875;-1.0129241943359375;0.06627515703439713;-0.05222751945257187;0.005050951149314642
-0.0720062255859375;-0.1592254638671875;-1.0129241943359375;0.06627515703439713;-0.05222751945257187;0.005050951149314642
-0.0720062255859375;-0.1592254638671875;-1.0129241943359375;0.06627515703439713;-0.05222751945257187;0.005050951149314642
-0.0720062255859375;-0.1592254638671875;-1.0129241943359375;0.06627515703439713;-0.05222751945257187;0.005050951149314642
-0.0720062255859375;-0.1592254638671875;-1.0129241943359375;0.06627515703439713;-0.05222751945257187;0.005050951149314642
-0.0724945068359375;-0.1617584228515625;-1.0146026611328125;0.07762155681848526;-0.0428294874727726;0.0032141690608114004
-0.0724945068359375;-0.1617584228515625;-1.0146026611328125;0.07762155681848526;-0.0428294874727726;0.0032141690608114004
-0.0724945068359375;-0.1617584228515625;-1.0146026611328125;0.07762155681848526;-0.0428294874727726;0.0032141690608114004
-0.0724945068359375;-0.1617584228515625;-1.0146026611328125;0.07762155681848526;-0.0428294874727726;0.0032141690608114004
-0.0724945068359375;-0.1617584228515625;-1.0146026611328125;0.07762155681848526;-0.0428294874727726;0.0032141690608114004
-0.0729827880859375;-0.1638946533203125;-1.015106201171875;0.09205828607082367;-0.030128873884677887;-0.0019361181184649467
-0.0729827880859375;-0.1638946533203125;-1.015106201171875;0.09205828607082367;-0.030128873884677887;-0.0019361181184649467
-0.0729827880859375;-0.1638946533203125;-1.015106201171875;0.09205828607082367;-0.030128873884677887;-0.0019361181184649467
-0.0729827880859375;-0.1638946533203125;-1.015106201171875;0.09205828607082367;-0.030128873884677887;-0.0019361181184649467
-0.0729827880859375;-0.1638946533203125;-1.015106201171875;0.09205828607082367;-0.030128873884677887;-0.0019361181184649467
-0.072265625;-0.1676177978515625;-1.01226806640625;0.09461092948913574;-0.019964121282100677;-0.0030860709957778454
-0.072265625;-0.1676177978515625;-1.01226806640625;0.09461092948913574;-0.019964121282100677;-0.0030860709957778454
-0.072265625;-0.1676177978515625;-1.01226806640625;0.09461092948913574;-0.019964121282100677;-0.0030860709957778454
-0.072265625;-0.1676177978515625;-1.01226806640625;0.09461092948913574;-0.019964121282100677;-0.0030860709957778454
-0.072265625;-0.1676177978515625;-1.01226806640625;0.09461092948913574;-0.019964121282100677;-0.0030860709957778454
-0.0735015869140625;-0.1699066162109375;-1.007598876953125;0.09170807898044586;-0.010573015548288822;-0.009229185059666634
-0.0735015869140625;-0.1699066162109375;-1.007598876953125;0.09170807898044586;-0.010573015548288822;-0.009229185059666634
-0.0735015869140625;-0.1699066162109375;-1.007598876953125;0.09170807898044586;-0.010573015548288822;-0.009229185059666634
-0.0735015869140625;-0.1699066162109375;-1.007598876953125;0.09170807898044586;-0.010573015548288822;-0.009229185059666634
-0.0735015869140625;-0.1699066162109375;-1.007598876953125;0.09170807898044586;-0.010573015548288822;-0.009229185059666634
-0.07421875;-0.1724853515625;-1.0050506591796875;0.0861993357539177;-0.003712712787091732;-0.008876582607626915
-0.07421875;-0.1724853515625;-1.0050506591796875;0.0861993357539177;-0.003712712787091732;-0.008876582607626915
-0.07421875;-0.1724853515625;-1.0050506591796875;0.0861993357539177;-0.003712712787091732;-0.008876582607626915
-0.07421875;-0.1724853515625;-1.0050506591796875;0.0861993357539177;-0.003712712787091732;-0.008876582607626915
-0.07421875;-0.1724853515625;-1.0050506591796875;0.0861993357539177;-0.003712712787091732;-0.008876582607626915
-0.07568359375;-0.17449951171875;-1.0016632080078125;0.07843994349241257;-0.004865595139563084;-0.009584450162947178
-0.07568359375;-0.17449951171875;-1.0016632080078125;0.07843994349241257;-0.004865595139563084;-0.009584450162947178
-0.07568359375;-0.17449951171875;-1.0016632080078125;0.07843994349241257;-0.004865595139563084;-0.009584450162947178
-0.07568359375;-0.17449951171875;-1.0016632080078125;0.07843994349241257;-0.004865595139563084;-0.009584450162947178
-0.07568359375;-0.17449951171875;-1.0016632080078125;0.07843994349241257;-0.004865595139563084;-0.009584450162947178
-0.0743255615234375;-0.1759033203125;-0.9999542236328125;0.06739795207977295;-0.005864280741661787;-0.009976734407246113
-0.0743255615234375;-0.1759033203125;-0.9999542236328125;0.06739795207977295;-0.005864280741661787;-0.009976734407246113
-0.0743255615234375;-0.1759033203125;-0.9999542236328125;0.06739795207977295;-0.005864280741661787;-0.009976734407246113
-0.0743255615234375;-0.1759033203125;-0.9999542236328125;0.06739795207977295;-0.005864280741661787;-0.009976734407246113
-0.0743255615234375;-0.1759033203125;-0.9999542236328125;0.06739795207977295;-0.005864280741661787;-0.009976734407246113
-0.07489013671875;-0.1758575439453125;-1.0012969970703125;0.05945480614900589;-0.0033342777751386166;-0.007185741327702999
-0.07489013671875;-0.1758575439453125;-1.0012969970703125;0.05945480614900589;-0.0033342777751386166;-0.007185741327702999
-0.07489013671875;-0.1758575439453125;-1.0012969970703125;0.05945480614900589;-0.0033342777751386166;-0.007185741327702999
-0.07489013671875;-0.1758575439453125;-1.0012969970703125;0.05945480614900589;-0.0033342777751386166;-0.007185741327702999
-0.07489013671875;-0.1758575439453125;-1.0012969970703125;0.05945480614900589;-0.0033342777751386166;-0.007185741327702999
-0.0754241943359375;-0.174896240234375;-1.0019073486328125;0.04716751351952553;-0.0007792409160174429;-0.005120726302266121
-0.0754241943359375;-0.174896240234375;-1.0019073486328125;0.04716751351952553;-0.0007792409160174429;-0.005120726302266121
-0.0754241943359375;-0.174896240234375;-1.0019073486328125;0.04716751351952553;-0.0007792409160174429;-0.005120726302266121
-0.0754241943359375;-0.174896240234375;-1.0019073486328125;0.04716751351952553;-0.0007792409160174429;-0.005120726302266121
-0.0754241943359375;-0.174896240234375;-1.0019073486328125;0.04716751351952553;-0.0007792409160174429;-0.005120726302266121
-0.076812744140625;-0.1736907958984375;-0.99627685546875;0.033179257065057755;0.004881840664893389;-0.0010615360224619508
-0.076812744140625;-0.1736907958984375;-0.99627685546875;0.033179257065057755;0.004881840664893389;-0.0010615360224619508
-0.076812744140625;-0.1736907958984375;-0.99627685546875;0.033179257065057755;0.004881840664893389;-0.0010615360224619508
-0.076812744140625;-0.1736907958984375;-0.99627685546875;0.033179257065057755;0.004881840664893389;-0.0010615360224619508
-0.076812744140625;-0.1736907958984375;-0.99627685546875;0.033179257065057755;0.004881840664893389;-0.0010615360224619508
-0.077178955078125;-0.1748809814453125;-0.9906158447265625;0.012949354015290737;0.012724317610263824;-0.0016263924771919847
-0.077178955078125;-0.1748809814453125;-0.9906158447265625;0.012949354015290737;0.012724317610263824;-0.0016263924771919847
-0.077178955078125;-0.1748809814453125;-0.9906158447265625;0.012949354015290737;0.012724317610263824;-0.0016263924771919847
-0.077178955078125;-0.1748809814453125;-0.9906158447265625;0.012949354015290737;0.012724317610263824;-0.0016263924771919847
-0.077178955078125;-0.1748809814453125;-0.9906158447265625;0.012949354015290737;0.012724317610263824;-0.0016263924771919847
-0.0787353515625;-0.1739044189453125;-0.986083984375;-0.005441370885819197;0.01648922823369503;-0.0003909520455636084
-0.0787353515625;-0.1739044189453125;-0.986083984375;-0.005441370885819197;0.01648922823369503;-0.0003909520455636084
-0.0787353515625;-0.1739044189453125;-0.986083984375;-0.005441370885819197;0.01648922823369503;-0.0003909520455636084
-0.0787353515625;-0.1739044189453125;-0.986083984375;-0.005441370885819197;0.01648922823369503;-0.0003909520455636084
-0.0787353515625;-0.1739044189453125;-0.986083984375;-0.005441370885819197;0.01648922823369503;-0.0003909520455636084
-0.0782318115234375;-0.1710662841796875;-0.9868316650390625;-0.023747406899929047;0.011098723858594894;0.0018815232906490564
-0.0782318115234375;-0.1710662841796875;-0.9868316650390625;-0.023747406899929047;0.011098723858594894;0.0018815232906490564
-0.0782318115234375;-0.1710662841796875;-0.9868316650390625;-0.023747406899929047;0.011098723858594894;0.0018815232906490564
-0.0782318115234375;-0.1710662841796875;-0.9868316650390625;-0.023747406899929047;0.011098723858594894;0.0018815232906490564
-0.0782318115234375;-0.1710662841796875;-0.9868316650390625;-0.023747406899929047;0.011098723858594894;0.0018815232906490564
-0.0777130126953125;-0.168853759765625;-0.9917755126953125;-0.033674340695142746;-0.0028493159916251898;0.0007427555974572897
-0.0777130126953125;-0.168853759765625;-0.9917755126953125;-0.033674340695142746;-0.0028493159916251898;0.0007427555974572897
-0.0777130126953125;-0.168853759765625;-0.9917755126953125;-0.033674340695142746;-0.0028493159916251898;0.0007427555974572897
-0.0777130126953125;-0.168853759765625;-0.9917755126953125;-0.033674340695142746;-0.0028493159916251898;0.0007427555974572897
-0.0777130126953125;-0.168853759765625;-0.9917755126953125;-0.033674340695142746;-0.0028493159916251898;0.0007427555974572897
-0.0760498046875;-0.166778564453125;-0.99755859375;-0.029271602630615234;-0.017117468640208244;0.0016825852217152715
-0.0760498046875;-0.166778564453125;-0.99755859375;-0.029271602630615234;-0.017117468640208244;0.0016825852217152715
-0.0760498046875;-0.166778564453125;-0.99755859375;-0.029271602630615234;-0.017117468640208244;0.0016825852217152715
-0.0760498046875;-0.166778564453125;-0.99755859375;-0.029271602630615234;-0.017117468640208244;0.0016825852217152715
-0.0760498046875;-0.166778564453125;-0.99755859375;-0.029271602630615234;-0.017117468640208244;0.0016825852217152715
-0.0744781494140625;-0.1658935546875;-1.0008697509765625;-0.023265374824404716;-0.040414001792669296;0.0035057852510362864
-0.0744781494140625;-0.1658935546875;-1.0008697509765625;-0.023265374824404716;-0.040414001792669296;0.0035057852510362864
-0.0744781494140625;-0.1658935546875;-1.0008697509765625;-0.023265374824404716;-0.040414001792669296;0.0035057852510362864
-0.0744781494140625;-0.1658935546875;-1.0008697509765625;-0.023265374824404716;-0.040414001792669296;0.0035057852510362864
-0.0744781494140625;-0.1658935546875;-1.0008697509765625;-0.023265374824404716;-0.040414001792669296;0.0035057852510362864
-0.074127197265625;-0.1652984619140625;-1.00341796875;-0.007808388210833073;-0.04309767112135887;0.0011470235185697675
-0.074127197265625;-0.1652984619140625;-1.00341796875;-0.007808388210833073;-0.04309767112135887;0.0011470235185697675
-0.074127197265625;-0.1652984619140625;-1.00341796875;-0.007808388210833073;-0.04309767112135887;0.0011470235185697675
-0.074127197265625;-0.1652984619140625;-1.00341796875;-0.007808388210833073;-0.04309767112135887;0.0011470235185697675
-0.074127197265625;-0.1652984619140625;-1.00341796875;0.009137039072811604;-0.04273787513375282;0.0008364989189431071
-0.074432373046875;-0.166168212890625;-1.00445556640625;0.009137039072811604;-0.04273787513375282;0.0008364989189431071
-0.074432373046875;-0.166168212890625;-1.00445556640625;0.009137039072811604;-0.04273787513375282;0.0008364989189431071
-0.074432373046875;-0.166168212890625;-1.00445556640625;0.009137039072811604;-0.04273787513375282;0.0008364989189431071
-0.074432373046875;-0.166168212890625;-1.00445556640625;0.009137039072811604;-0.04273787513375282;0.0008364989189431071
-0.074432373046875;-0.166168212890625;-1.00445556640625;0.0293728020042181;-0.035882368683815;0.0001233043585671112
-0.0755615234375;-0.165802001953125;-1.0054473876953125;0.0293728020042181;-0.035882368683815;0.0001233043585671112
-0.0755615234375;-0.165802001953125;-1.0054473876953125;0.0293728020042181;-0.035882368683815;0.0001233043585671112
-0.0755615234375;-0.165802001953125;-1.0054473876953125;0.0293728020042181;-0.035882368683815;0.0001233043585671112
-0.0755615234375;-0.165802001953125;-1.0054473876953125;0.0293728020042181;-0.035882368683815;0.0001233043585671112
-0.0759735107421875;-0.1671295166015625;-1.0059967041015625;0.04794302582740784;-0.026081934571266174;0.00047617321251891553
-0.0759735107421875;-0.1671295166015625;-1.0059967041015625;0.04794302582740784;-0.026081934571266174;0.00047617321251891553
-0.0759735107421875;-0.1671295166015625;-1.0059967041015625;0.04794302582740784;-0.026081934571266174;0.00047617321251891553
-0.0759735107421875;-0.1671295166015625;-1.0059967041015625;0.04794302582740784;-0.026081934571266174;0.00047617321251891553
-0.0759735107421875;-0.1671295166015625;-1.0059967041015625;0.04794302582740784;-0.026081934571266174;0.00047617321251891553
-0.0759735107421875;-0.1671295166015625;-1.0059967041015625;0.06101488322019577;-0.016986174508929253;-0.002410160843282938
-0.077484130859375;-0.167572021484375;-1.004852294921875;0.06101488322019577;-0.016986174508929253;-0.002410160843282938
-0.077484130859375;-0.167572021484375;-1.004852294921875;0.06101488322019577;-0.016986174508929253;-0.002410160843282938
-0.077484130859375;-0.167572021484375;-1.004852294921875;0.06101488322019577;-0.016986174508929253;-0.002410160843282938
-0.077484130859375;-0.167572021484375;-1.004852294921875;0.06101488322019577;-0.016986174508929253;-0.002410160843282938
-0.077484130859375;-0.167572021484375;-1.004852294921875;0.07453495264053345;-0.012299010530114174;-0.002389388158917427
-0.0764617919921875;-0.169525146484375;-1.007415771484375;0.07453495264053345;-0.012299010530114174;-0.002389388158917427
-0.0764617919921875;-0.169525146484375;-1.007415771484375;0.07453495264053345;-0.012299010530114174;-0.002389388158917427
-0.0764617919921875;-0.169525146484375;-1.007415771484375;0.07453495264053345;-0.012299010530114174;-0.002389388158917427
-0.0764617919921875;-0.169525146484375;-1.007415771484375;0.07453495264053345;-0.012299010530114174;-0.002389388158917427
-0.0764617919921875;-0.169525146484375;-1.007415771484375;0.08220485597848892;-0.013935523107647896;-0.00339126936160028
-0.0760955810546875;-0.1714324951171875;-1.0078125;0.08220485597848892;-0.013935523107647896;-0.00339126936160028
-0.0760955810546875;-0.1714324951171875;-1.0078125;0.08220485597848892;-0.013935523107647896;-0.00339126936160028
-0.0760955810546875;-0.1714324951171875;-1.0078125;0.08220485597848892;-0.013935523107647896;-0.00339126936160028
-0.0760955810546875;-0.1714324951171875;-1.0078125;0.08220485597848892;-0.013935523107647896;-0.00339126936160028
-0.0760955810546875;-0.1714324951171875;-1.0078125;0.08609866350889206;-0.015326491557061672;-0.005082643125206232
-0.076202392578125;-0.17303466796875;-1.0063934326171875;0.08609866350889206;-0.015326491557061672;-0.005082643125206232
-0.076202392578125;-0.17303466796875;-1.0063934326171875;0.08609866350889206;-0.015326491557061672;-0.005082643125206232
-0.076202392578125;-0.17303466796875;-1.0063934326171875;0.08609866350889206;-0.015326491557061672;-0.005082643125206232
-0.076202392578125;-0.17303466796875;-1.0063934326171875;0.08609866350889206;-0.015326491557061672;-0.005082643125206232
-0.076324462890625;-0.175689697265625;-1.0047760009765625;0.08656764775514603;-0.01293683797121048;-0.005775597412139177
-0.076324462890625;-0.175689697265625;-1.0047760009765625;0.08656764775514603;-0.01293683797121048;-0.005775597412139177
-0.076324462890625;-0.175689697265625;-1.0047760009765625;0.08656764775514603;-0.01293683797121048;-0.005775597412139177
-0.076324462890625;-0.175689697265625;-1.0047760009765625;0.08656764775514603;-0.01293683797121048;-0.005775597412139177
-0.076324462890625;-0.175689697265625;-1.0047760009765625;0.08656764775514603;-0.01293683797121048;-0.005775597412139177
-0.0767364501953125;-0.176544189453125;-1.0017547607421875;0.08168287575244904;-0.006039250176399946;-0.007297327741980553
-0.0767364501953125;-0.176544189453125;-1.0017547607421875;0.08168287575244904;-0.006039250176399946;-0.007297327741980553
-0.0767364501953125;-0.176544189453125;-1.0017547607421875;0.08168287575244904;-0.006039250176399946;-0.007297327741980553
-0.0767364501953125;-0.176544189453125;-1.0017547607421875;0.08168287575244904;-0.006039250176399946;-0.007297327741980553
-0.0767364501953125;-0.176544189453125;-1.0017547607421875;0.08168287575244904;-0.006039250176399946;-0.007297327741980553
-0.0765838623046875;-0.1782073974609375;-0.9988250732421875;0.076296366751194;-0.005228584166616201;-0.004568652715533972
-0.0765838623046875;-0.1782073974609375;-0.9988250732421875;0.076296366751194;-0.005228584166616201;-0.004568652715533972
-0.0765838623046875;-0.1782073974609375;-0.9988250732421875;0.076296366751194;-0.005228584166616201;-0.004568652715533972
-0.0765838623046875;-0.1782073974609375;-0.9988250732421875;0.076296366751194;-0.005228584166616201;-0.004568652715533972
-0.0765838623046875;-0.1782073974609375;-0.9988250732421875;0.076296366751194;-0.005228584166616201;-0.004568652715533972
-0.07745361328125;-0.17822265625;-0.9971160888671875;0.0675516128540039;-0.0062248725444078445;-0.007140467409044504
-0.07745361328125;-0.17822265625;-0.9971160888671875;0.0675516128540039;-0.0062248725444078445;-0.007140467409044504
-0.07745361328125;-0.17822265625;-0.9971160888671875;0.0675516128540039;-0.0062248725444078445;-0.007140467409044504
-0.07745361328125;-0.17822265625;-0.9971160888671875;0.0675516128540039;-0.0062248725444078445;-0.007140467409044504
-0.07745361328125;-0.17822265625;-0.9971160888671875;0.0675516128540039;-0.0062248725444078445;-0.007140467409044504
-0.0777130126953125;-0.177734375;-0.994781494140625;0.05879274383187294;-0.002095108851790428;-0.006885603070259094
-0.0777130126953125;-0.177734375;-0.994781494140625;0.05879274383187294;-0.002095108851790428;-0.006885603070259094
-0.0777130126953125;-0.177734375;-0.994781494140625;0.05879274383187294;-0.002095108851790428;-0.006885603070259094
-0.0777130126953125;-0.177734375;-0.994781494140625;0.05879274383187294;-0.002095108851790428;-0.006885603070259094
-0.0777130126953125;-0.177734375;-0.994781494140625;0.05879274383187294;-0.002095108851790428;-0.006885603070259094
-0.0782318115234375;-0.1771240234375;-0.993316650390625;0.05025384947657585;-0.0013462279457598925;-0.008665659464895725
-0.0782318115234375;-0.1771240234375;-0.993316650390625;0.05025384947657585;-0.0013462279457598925;-0.008665659464895725
-0.0782318115234375;-0.1771240234375;-0.993316650390625;0.05025384947657585;-0.0013462279457598925;-0.008665659464895725
-0.0782318115234375;-0.1771240234375;-0.993316650390625;0.05025384947657585;-0.0013462279457598925;-0.008665659464895725
-0.0782318115234375;-0.1771240234375;-0.993316650390625;0.05025384947657585;-0.0013462279457598925;-0.008665659464895725
-0.077728271484375;-0.1779632568359375;-0.993499755859375;0.03907230123877525;-0.0037121803034096956;-0.0024056334514170885
-0.077728271484375;-0.1779632568359375;-0.993499755859375;0.03907230123877525;-0.0037121803034096956;-0.0024056334514170885
-0.077728271484375;-0.1779632568359375;-0.993499755859375;0.03907230123877525;-0.0037121803034096956;-0.0024056334514170885
-0.077728271484375;-0.1779632568359375;-0.993499755859375;0.03907230123877525;-0.0037121803034096956;-0.0024056334514170885
-0.077728271484375;-0.1779632568359375;-0.993499755859375;0.03907230123877525;-0.0037121803034096956;-0.0024056334514170885
-0.078155517578125;-0.1780853271484375;-0.99237060546875;0.033069536089897156;-0.0029830066487193108;-0.0034874093253165483
-0.078155517578125;-0.1780853271484375;-0.99237060546875;0.033069536089897156;-0.0029830066487193108;-0.0034874093253165483
-0.078155517578125;-0.1780853271484375;-0.99237060546875;0.033069536089897156;-0.0029830066487193108;-0.0034874093253165483
-0.078155517578125;-0.1780853271484375;-0.99237060546875;0.033069536089897156;-0.0029830066487193108;-0.0034874093253165483
-0.078155517578125;-0.1780853271484375;-0.99237060546875;0.033069536089897156;-0.0029830066487193108;-0.0034874093253165483
-0.077850341796875;-0.178070068359375;-0.994354248046875;0.029572539031505585;-0.005532717332243919;-0.0005126585019752383
-0.077850341796875;-0.178070068359375;-0.994354248046875;0.029572539031505585;-0.005532717332243919;-0.0005126585019752383
-0.077850341796875;-0.178070068359375;-0.994354248046875;0.029572539031505585;-0.005532717332243919;-0.0005126585019752383
-0.077850341796875;-0.178070068359375;-0.994354248046875;0.029572539031505585;-0.005532717332243919;-0.0005126585019752383
-0.077850341796875;-0.178070068359375;-0.994354248046875;0.029572539031505585;-0.005532717332243919;-0.0005126585019752383
-0.078033447265625;-0.1781768798828125;-0.995941162109375;0.027226295322179794;-0.00384374032728374;-0.0033135050907731056
-0.078033447265625;-0.1781768798828125;-0.995941162109375;0.027226295322179794;-0.00384374032728374;-0.0033135050907731056
-0.078033447265625;-0.1781768798828125;-0.995941162109375;0.027226295322179794;-0.00384374032728374;-0.0033135050907731056
-0.078033447265625;-0.1781768798828125;-0.995941162109375;0.027226295322179794;-0.00384374032728374;-0.0033135050907731056
-0.078033447265625;-0.1781768798828125;-0.995941162109375;0.027226295322179794;-0.00384374032728374;-0.0033135050907731056
-0.078125;-0.179656982421875;-0.99896240234375;0.03212651237845421;-0.011737083084881306;-0.0032147017773240805
-0.078125;-0.179656982421875;-0.99896240234375;0.03212651237845421;-0.011737083084881306;-0.0032147017773240805
-0.078125;-0.179656982421875;-0.99896240234375;0.03212651237845421;-0.011737083084881306;-0.0032147017773240805
-0.078125;-0.179656982421875;-0.99896240234375;0.03212651237845421;-0.011737083084881306;-0.0032147017773240805
-0.078125;-0.179656982421875;-0.99896240234375;0.03212651237845421;-0.011737083084881306;-0.0032147017773240805
-0.078582763671875;-0.1793060302734375;-1.0013275146484375;0.03117949143052101;-0.01515897922217846;-0.005603823345154524
-0.078582763671875;-0.1793060302734375;-1.0013275146484375;0.03117949143052101;-0.01515897922217846;-0.005603823345154524
-0.078582763671875;-0.1793060302734375;-1.0013275146484375;0.03117949143052101;-0.01515897922217846;-0.005603823345154524
-0.078582763671875;-0.1793060302734375;-1.0013275146484375;0.03117949143052101;-0.01515897922217846;-0.005603823345154524
-0.078582763671875;-0.1793060302734375;-1.0013275146484375;0.03117949143052101;-0.01515897922217846;-0.005603823345154524
-0.0788116455078125;-0.1798858642578125;-1.002777099609375;0.03139227628707886;-0.01816488988697529;-0.006730873137712479
-0.0788116455078125;-0.1798858642578125;-1.002777099609375;0.03139227628707886;-0.01816488988697529;-0.006730873137712479
-0.0788116455078125;-0.1798858642578125;-1.002777099609375;0.03139227628707886;-0.01816488988697529;-0.006730873137712479
-0.0788116455078125;-0.1798858642578125;-1.002777099609375;0.03139227628707886;-0.01816488988697529;-0.006730873137712479
-0.0788116455078125;-0.1798858642578125;-1.002777099609375;0.03139227628707886;-0.01816488988697529;-0.006730873137712479
-0.0786895751953125;-0.1805267333984375;-1.001739501953125;0.03485545143485069;-0.01654302328824997;-0.005437908694148064
-0.0786895751953125;-0.1805267333984375;-1.001739501953125;0.03485545143485069;-0.01654302328824997;-0.005437908694148064
-0.0786895751953125;-0.1805267333984375;-1.001739501953125;0.03485545143485069;-0.01654302328824997;-0.005437908694148064
-0.0786895751953125;-0.1805267333984375;-1.001739501953125;0.03485545143485069;-0.01654302328824997;-0.005437908694148064
-0.0786895751953125;-0.1805267333984375;-1.001739501953125;0.03485545143485069;-0.01654302328824997;-0.005437908694148064
-0.077880859375;-0.180419921875;-1.000579833984375;0.03924940153956413;-0.012162123806774616;-0.005058674607425928
-0.077880859375;-0.180419921875;-1.000579833984375;0.03924940153956413;-0.012162123806774616;-0.005058674607425928
-0.077880859375;-0.180419921875;-1.000579833984375;0.03924940153956413;-0.012162123806774616;-0.005058674607425928
-0.077880859375;-0.180419921875;-1.000579833984375;0.03924940153956413;-0.012162123806774616;-0.005058674607425928
-0.077880859375;-0.180419921875;-1.000579833984375;0.03924940153956413;-0.012162123806774616;-0.005058674607425928
-0.0766143798828125;-0.181365966796875;-1.0002288818359375;0.03456303849816322;-0.01426362432539463;-0.005085572600364685
-0.0766143798828125;-0.181365966796875;-1.0002288818359375;0.03456303849816322;-0.01426362432539463;-0.005085572600364685
-0.0766143798828125;-0.181365966796875;-1.0002288818359375;0.03456303849816322;-0.01426362432539463;-0.005085572600364685
-0.0766143798828125;-0.181365966796875;-1.0002288818359375;0.03456303849816322;-0.01426362432539463;-0.005085572600364685
-0.0766143798828125;-0.181365966796875;-1.0002288818359375;0.03456303849816322;-0.01426362432539463;-0.005085572600364685
-0.076995849609375;-0.1825408935546875;-0.9991302490234375;0.03163915127515793;-0.011402856558561325;-0.004085022956132889
-0.076995849609375;-0.1825408935546875;-0.9991302490234375;0.03163915127515793;-0.011402856558561325;-0.004085022956132889
-0.076995849609375;-0.1825408935546875;-0.9991302490234375;0.03163915127515793;-0.011402856558561325;-0.004085022956132889
-0.076995849609375;-0.1825408935546875;-0.9991302490234375;0.03163915127515793;-0.011402856558561325;-0.004085022956132889
-0.076995849609375;-0.1825408935546875;-0.9991302490234375;0.03163915127515793;-0.011402856558561325;-0.004085022956132889
-0.0758819580078125;-0.1828765869140625;-0.997589111328125;0.02845747396349907;-0.011064901947975159;-0.003177683800458908
-0.0758819580078125;-0.1828765869140625;-0.997589111328125;0.02845747396349907;-0.011064901947975159;-0.003177683800458908
-0.0758819580078125;-0.1828765869140625;-0.997589111328125;0.02845747396349907;-0.011064901947975159;-0.003177683800458908
-0.0758819580078125;-0.1828765869140625;-0.997589111328125;0.02845747396349907;-0.011064901947975159;-0.003177683800458908
-0.0758819580078125;-0.1828765869140625;-0.997589111328125;0.02845747396349907;-0.011064901947975159;-0.003177683800458908
-0.0760345458984375;-0.1822357177734375;-0.9994354248046875;0.028805281966924667;-0.006323143374174833;-0.0014199974248185754
-0.0760345458984375;-0.1822357177734375;-0.9994354248046875;0.028805281966924667;-0.006323143374174833;-0.0014199974248185754
-0.0760345458984375;-0.1822357177734375;-0.9994354248046875;0.028805281966924667;-0.006323143374174833;-0.0014199974248185754
-0.0760345458984375;-0.1822357177734375;-0.9994354248046875;0.028805281966924667;-0.006323143374174833;-0.0014199974248185754
-0.0760345458984375;-0.1822357177734375;-0.9994354248046875;0.028805281966924667;-0.006323143374174833;-0.0014199974248185754
-0.0757904052734375;-0.1825408935546875;-1.000762939453125;0.030901456251740456;-0.012865997850894928;-0.006623015273362398
-0.0757904052734375;-0.1825408935546875;-1.000762939453125;0.030901456251740456;-0.012865997850894928;-0.006623015273362398
-0.0757904052734375;-0.1825408935546875;-1.000762939453125;0.030901456251740456;-0.012865997850894928;-0.006623015273362398
-0.0757904052734375;-0.1825408935546875;-1.000762939453125;0.030901456251740456;-0.012865997850894928;-0.006623015273362398
-0.0757904052734375;-0.1825408935546875;-1.000762939453125;0.030901456251740456;-0.012865997850894928;-0.006623015273362398
-0.0769195556640625;-0.1829986572265625;-1.0035858154296875;0.03988057002425194;-0.014418087899684906;-0.007159376051276922
-0.0769195556640625;-0.1829986572265625;-1.0035858154296875;0.03988057002425194;-0.014418087899684906;-0.007159376051276922
-0.0769195556640625;-0.1829986572265625;-1.0035858154296875;0.03988057002425194;-0.014418087899684906;-0.007159376051276922
-0.0769195556640625;-0.1829986572265625;-1.0035858154296875;0.03988057002425194;-0.014418087899684906;-0.007159376051276922
-0.0769195556640625;-0.1829986572265625;-1.0035858154296875;0.03988057002425194;-0.014418087899684906;-0.007159376051276922
-0.076995849609375;-0.182708740234375;-1.0048065185546875;0.04321271926164627;-0.01461809128522873;-0.006649380549788475
-0.076995849609375;-0.182708740234375;-1.0048065185546875;0.04321271926164627;-0.01461809128522873;-0.006649380549788475
-0.076995849609375;-0.182708740234375;-1.0048065185546875;0.04321271926164627;-0.01461809128522873;-0.006649380549788475
-0.076995849609375;-0.182708740234375;-1.0048065185546875;0.04321271926164627;-0.01461809128522873;-0.006649380549788475
-0.076995849609375;-0.182708740234375;-1.0048065185546875;0.04321271926164627;-0.01461809128522873;-0.006649380549788475
-0.077392578125;-0.18328857421875;-1.006072998046875;0.05110765993595123;-0.0084877610206604;-0.006160424090921879
-0.077392578125;-0.18328857421875;-1.006072998046875;0.05110765993595123;-0.0084877610206604;-0.006160424090921879
-0.077392578125;-0.18328857421875;-1.006072998046875;0.05110765993595123;-0.0084877610206604;-0.006160424090921879
-0.077392578125;-0.18328857421875;-1.006072998046875;0.05110765993595123;-0.0084877610206604;-0.006160424090921879
-0.077392578125;-0.18328857421875;-1.006072998046875;0.05110765993595123;-0.0084877610206604;-0.006160424090921879
-0.0766143798828125;-0.1845703125;-1.00567626953125;0.056532785296440125;-0.012367453426122665;-0.002508165081962943
-0.0766143798828125;-0.1845703125;-1.00567626953125;0.056532785296440125;-0.012367453426122665;-0.002508165081962943
-0.0766143798828125;-0.1845703125;-1.00567626953125;0.056532785296440125;-0.012367453426122665;-0.002508165081962943
-0.0766143798828125;-0.1845703125;-1.00567626953125;0.056532785296440125;-0.012367453426122665;-0.002508165081962943
-0.0766143798828125;-0.1845703125;-1.00567626953125;0.056532785296440125;-0.012367453426122665;-0.002508165081962943
-0.07550048828125;-0.1846160888671875;-1.00244140625;0.051775313913822174;-0.00199390877969563;-0.0051995557732880116
-0.07550048828125;-0.1846160888671875;-1.00244140625;0.051775313913822174;-0.00199390877969563;-0.0051995557732880116
-0.07550048828125;-0.1846160888671875;-1.00244140625;0.051775313913822174;-0.00199390877969563;-0.0051995557732880116
-0.07550048828125;-0.1846160888671875;-1.00244140625;0.051775313913822174;-0.00199390877969563;-0.0051995557732880116
-0.07550048828125;-0.1846160888671875;-1.00244140625;0.051775313913822174;-0.00199390877969563;-0.0051995557732880116
-0.0764923095703125;-0.18548583984375;-0.9951324462890625;0.044374920427799225;0.008854211308062077;-0.0012934972764924169
-0.0764923095703125;-0.18548583984375;-0.9951324462890625;0.044374920427799225;0.008854211308062077;-0.0012934972764924169
-0.0764923095703125;-0.18548583984375;-0.9951324462890625;0.044374920427799225;0.008854211308062077;-0.0012934972764924169
-0.0764923095703125;-0.18548583984375;-0.9951324462890625;0.044374920427799225;0.008854211308062077;-0.0012934972764924169
-0.0764923095703125;-0.18548583984375;-0.9951324462890625;0.044374920427799225;0.008854211308062077;-0.0012934972764924169
-0.0771331787109375;-0.186004638671875;-0.99090576171875;0.0346197634935379;0.013847106136381626;-0.0005107942852191627
-0.0771331787109375;-0.186004638671875;-0.99090576171875;0.0346197634935379;0.013847106136381626;-0.0005107942852191627
-0.0771331787109375;-0.186004638671875;-0.99090576171875;0.0346197634935379;0.013847106136381626;-0.0005107942852191627
-0.0771331787109375;-0.186004638671875;-0.99090576171875;0.0346197634935379;0.013847106136381626;-0.0005107942852191627
-0.0771331787109375;-0.186004638671875;-0.99090576171875;0.0346197634935379;0.013847106136381626;-0.0005107942852191627
-0.0774078369140625;-0.1858062744140625;-0.991455078125;0.02426006644964218;0.0140758715569973;0.0012724583502858877
-0.0774078369140625;-0.1858062744140625;-0.991455078125;0.02426006644964218;0.0140758715569973;0.0012724583502858877
-0.0774078369140625;-0.1858062744140625;-0.991455078125;0.02426006644964218;0.0140758715569973;0.0012724583502858877
-0.0774078369140625;-0.1858062744140625;-0.991455078125;0.02426006644964218;0.0140758715569973;0.0012724583502858877
-0.0774078369140625;-0.1858062744140625;-0.991455078125;0.02426006644964218;0.0140758715569973;0.0012724583502858877
-0.0776214599609375;-0.186492919921875;-0.9934844970703125;0.014657505787909031;0.006994526367634535;0.0012231898726895452
-0.0776214599609375;-0.186492919921875;-0.9934844970703125;0.014657505787909031;0.006994526367634535;0.0012231898726895452
-0.0776214599609375;-0.186492919921875;-0.9934844970703125;0.014657505787909031;0.006994526367634535;0.0012231898726895452
-0.0776214599609375;-0.186492919921875;-0.9934844970703125;0.014657505787909031;0.006994526367634535;0.0012231898726895452
-0.0776214599609375;-0.186492919921875;-0.9934844970703125;0.014657505787909031;0.006994526367634535;0.0012231898726895452
-0.078399658203125;-0.1865997314453125;-0.9948272705078125;0.007250189781188965;-0.004294081125408411;0.0009502158500254154
-0.078399658203125;-0.1865997314453125;-0.9948272705078125;0.007250189781188965;-0.004294081125408411;0.0009502158500254154
-0.078399658203125;-0.1865997314453125;-0.9948272705078125;0.007250189781188965;-0.004294081125408411;0.0009502158500254154
-0.078399658203125;-0.1865997314453125;-0.9948272705078125;0.007250189781188965;-0.004294081125408411;0.0009502158500254154
-0.078399658203125;-0.1865997314453125;-0.9948272705078125;0.007250189781188965;-0.004294081125408411;0.0009502158500254154
-0.0796966552734375;-0.185333251953125;-0.9945831298828125;0.0031342741567641497;-0.012357333675026894;0.0003230414295103401
-0.0796966552734375;-0.185333251953125;-0.9945831298828125;0.0031342741567641497;-0.012357333675026894;0.0003230414295103401
-0.0796966552734375;-0.185333251953125;-0.9945831298828125;0.0031342741567641497;-0.012357333675026894;0.0003230414295103401
-0.0796966552734375;-0.185333251953125;-0.9945831298828125;0.0031342741567641497;-0.012357333675026894;0.0003230414295103401
-0.0796966552734375;-0.185333251953125;-0.9945831298828125;0.0031342741567641497;-0.012357333675026894;0.0003230414295103401
-0.078948974609375;-0.183837890625;-0.9959716796875;0.0018346516881138086;-0.01781441643834114;0.003133208956569433
-0.078948974609375;-0.183837890625;-0.9959716796875;0.0018346516881138086;-0.01781441643834114;0.003133208956569433
-0.078948974609375;-0.183837890625;-0.9959716796875;0.0018346516881138086;-0.01781441643834114;0.003133208956569433
-0.078948974609375;-0.183837890625;-0.9959716796875;0.0018346516881138086;-0.01781441643834114;0.003133208956569433
-0.078948974609375;-0.183837890625;-0.9959716796875;0.0018346516881138086;-0.01781441643834114;0.003133208956569433
-0.07781982421875;-0.1829376220703125;-0.99951171875;0.001044758129864931;-0.0178823284804821;0.001945439144037664
-0.07781982421875;-0.1829376220703125;-0.99951171875;0.001044758129864931;-0.0178823284804821;0.001945439144037664
-0.07781982421875;-0.1829376220703125;-0.99951171875;0.001044758129864931;-0.0178823284804821;0.001945439144037664
-0.07781982421875;-0.1829376220703125;-0.99951171875;0.001044758129864931;-0.0178823284804821;0.001945439144037664
-0.07781982421875;-0.1829376220703125;-0.99951171875;-0.004299141000956297;-0.005848301574587822;0.00042876892257481813
-0.078826904296875;-0.181732177734375;-1.000030517578125;-0.004299141000956297;-0.005848301574587822;0.00042876892257481813
-0.078826904296875;-0.181732177734375;-1.000030517578125;-0.004299141000956297;-0.005848301574587822;0.00042876892257481813
-0.078826904296875;-0.181732177734375;-1.000030517578125;-0.004299141000956297;-0.005848301574587822;0.00042876892257481813
-0.078826904296875;-0.181732177734375;-1.000030517578125;-0.004299141000956297;-0.005848301574587822;0.00042876892257481813
-0.078826904296875;-0.181732177734375;-1.000030517578125;-0.004299141000956297;-0.005848301574587822;0.00042876892257481813
-0.0797271728515625;-0.182281494140625;-0.9938507080078125;-0.020417390391230583;0.009399893693625927;-0.0016402408946305513
-0.0797271728515625;-0.182281494140625;-0.9938507080078125;-0.020417390391230583;0.009399893693625927;-0.0016402408946305513
-0.0797271728515625;-0.182281494140625;-0.9938507080078125;-0.020417390391230583;0.009399893693625927;-0.0016402408946305513
-0.0797271728515625;-0.182281494140625;-0.9938507080078125;-0.020417390391230583;0.009399893693625927;-0.0016402408946305513
-0.0791473388671875;-0.1855926513671875;-0.98626708984375;-0.03383466228842735;0.025132782757282257;-0.0034855452831834555
-0.0791473388671875;-0.1855926513671875;-0.98626708984375;-0.03383466228842735;0.025132782757282257;-0.0034855452831834555
-0.0791473388671875;-0.1855926513671875;-0.98626708984375;-0.03383466228842735;0.025132782757282257;-0.0034855452831834555
-0.0791473388671875;-0.1855926513671875;-0.98626708984375;-0.03383466228842735;0.025132782757282257;-0.0034855452831834555
-0.0791473388671875;-0.1855926513671875;-0.98626708984375;-0.03383466228842735;0.025132782757282257;-0.0034855452831834555
-0.0789031982421875;-0.1871490478515625;-0.9857940673828125;-0.043293144553899765;0.029569078236818314;-0.005094094667583704
-0.0789031982421875;-0.1871490478515625;-0.9857940673828125;-0.043293144553899765;0.029569078236818314;-0.005094094667583704
-0.0789031982421875;-0.1871490478515625;-0.9857940673828125;-0.043293144553899765;0.029569078236818314;-0.005094094667583704
-0.0789031982421875;-0.1871490478515625;-0.9857940673828125;-0.043293144553899765;0.029569078236818314;-0.005094094667583704
-0.0789031982421875;-0.1871490478515625;-0.9857940673828125;-0.043293144553899765;0.029569078236818314;-0.005094094667583704
-0.076019287109375;-0.186279296875;-0.9916229248046875;-0.03849306330084801;0.019809924066066742;-0.001788046327419579
-0.076019287109375;-0.186279296875;-0.9916229248046875;-0.03849306330084801;0.019809924066066742;-0.001788046327419579
-0.076019287109375;-0.186279296875;-0.9916229248046875;-0.03849306330084801;0.019809924066066742;-0.001788046327419579
-0.076019287109375;-0.186279296875;-0.9916229248046875;-0.03849306330084801;0.019809924066066742;-0.001788046327419579
-0.076019287109375;-0.186279296875;-0.9916229248046875;-0.03849306330084801;0.019809924066066742;-0.001788046327419579
-0.076019287109375;-0.186279296875;-0.9916229248046875;-0.02111567184329033;-0.001728924224153161;-0.0024913870729506016
-0.0742340087890625;-0.1875457763671875;-0.99993896484375;-0.02111567184329033;-0.001728924224153161;-0.0024913870729506016
-0.0742340087890625;-0.1875457763671875;-0.99993896484375;-0.02111567184329033;-0.001728924224153161;-0.0024913870729506016
-0.0742340087890625;-0.1875457763671875;-0.99993896484375;-0.02111567184329033;-0.001728924224153161;-0.0024913870729506016
-0.0742340087890625;-0.1875457763671875;-0.99993896484375;-0.02111567184329033;-0.001728924224153161;-0.0024913870729506016
-0.0730438232421875;-0.1880340576171875;-1.007293701171875;0.002546780975535512;-0.02034308761358261;-0.005697300657629967
-0.0730438232421875;-0.1880340576171875;-1.007293701171875;0.002546780975535512;-0.02034308761358261;-0.005697300657629967
-0.0730438232421875;-0.1880340576171875;-1.007293701171875;0.002546780975535512;-0.02034308761358261;-0.005697300657629967
-0.0730438232421875;-0.1880340576171875;-1.007293701171875;0.002546780975535512;-0.02034308761358261;-0.005697300657629967
-0.0730438232421875;-0.1880340576171875;-1.007293701171875;0.002546780975535512;-0.02034308761358261;-0.005697300657629967
-0.07440185546875;-0.1893157958984375;-1.0106964111328125;0.027510453015565872;-0.032762475311756134;-0.004700212739408016
-0.07440185546875;-0.1893157958984375;-1.0106964111328125;0.027510453015565872;-0.032762475311756134;-0.004700212739408016
-0.07440185546875;-0.1893157958984375;-1.0106964111328125;0.027510453015565872;-0.032762475311756134;-0.004700212739408016
-0.07440185546875;-0.1893157958984375;-1.0106964111328125;0.027510453015565872;-0.032762475311756134;-0.004700212739408016
-0.07440185546875;-0.1893157958984375;-1.0106964111328125;0.027510453015565872;-0.032762475311756134;-0.004700212739408016
-0.0756988525390625;-0.1910247802734375;-1.0098724365234375;0.05167730897665024;-0.02714240550994873;-0.005557484459131956
-0.0756988525390625;-0.1910247802734375;-1.0098724365234375;0.05167730897665024;-0.02714240550994873;-0.005557484459131956
-0.0756988525390625;-0.1910247802734375;-1.0098724365234375;0.05167730897665024;-0.02714240550994873;-0.005557484459131956
-0.0756988525390625;-0.1910247802734375;-1.0098724365234375;0.05167730897665024;-0.02714240550994873;-0.005557484459131956
-0.0756988525390625;-0.1910247802734375;-1.0098724365234375;0.05167730897665024;-0.02714240550994873;-0.005557484459131956
-0.0778961181640625;-0.1916046142578125;-1.0057525634765625;0.06799396127462387;-0.016981380060315132;-0.008447280153632164
-0.0778961181640625;-0.1916046142578125;-1.0057525634765625;0.06799396127462387;-0.016981380060315132;-0.008447280153632164
-0.0778961181640625;-0.1916046142578125;-1.0057525634765625;0.06799396127462387;-0.016981380060315132;-0.008447280153632164
-0.0778961181640625;-0.1916046142578125;-1.0057525634765625;0.06799396127462387;-0.016981380060315132;-0.008447280153632164
-0.0778961181640625;-0.1916046142578125;-1.0057525634765625;0.06799396127462387;-0.016981380060315132;-0.008447280153632164
-0.0795440673828125;-0.189849853515625;-1.003143310546875;0.07316875457763672;-0.006132727488875389;-0.005251220893114805
-0.0795440673828125;-0.189849853515625;-1.003143310546875;0.07316875457763672;-0.006132727488875389;-0.005251220893114805
-0.0795440673828125;-0.189849853515625;-1.003143310546875;0.07316875457763672;-0.006132727488875389;-0.005251220893114805
-0.0795440673828125;-0.189849853515625;-1.003143310546875;0.07316875457763672;-0.006132727488875389;-0.005251220893114805
-0.0795440673828125;-0.189849853515625;-1.003143310546875;0.07316875457763672;-0.006132727488875389;-0.005251220893114805
-0.0799560546875;-0.18963623046875;-1.0009765625;0.07088322937488556;-0.004187288228422403;-0.005420864559710026
-0.0799560546875;-0.18963623046875;-1.0009765625;0.07088322937488556;-0.004187288228422403;-0.005420864559710026
-0.0799560546875;-0.18963623046875;-1.0009765625;0.07088322937488556;-0.004187288228422403;-0.005420864559710026
-0.0799560546875;-0.18963623046875;-1.0009765625;0.07088322937488556;-0.004187288228422403;-0.005420864559710026
-0.0799560546875;-0.18963623046875;-1.0009765625;0.07088322937488556;-0.004187288228422403;-0.005420864559710026
-0.0799560546875;-0.18963623046875;-1.0009765625;0.07088322937488556;-0.004187288228422403;-0.005420864559710026
-0.07965087890625;-0.1882171630859375;-0.9975433349609375;0.0634428858757019;-0.005979595705866814;-0.002151301596313715
-0.07965087890625;-0.1882171630859375;-0.9975433349609375;0.0634428858757019;-0.005979595705866814;-0.002151301596313715
-0.07965087890625;-0.1882171630859375;-0.9975433349609375;0.0634428858757019;-0.005979595705866814;-0.002151301596313715
-0.07965087890625;-0.1882171630859375;-0.9975433349609375;0.0634428858757019;-0.005979595705866814;-0.002151301596313715
-0.0789642333984375;-0.1880340576171875;-0.99591064453125;0.04982880875468254;-0.0032868734560906887;0.0001715075777610764
-0.0789642333984375;-0.1880340576171875;-0.99591064453125;0.04982880875468254;-0.0032868734560906887;0.0001715075777610764
-0.0789642333984375;-0.1880340576171875;-0.99591064453125;0.04982880875468254;-0.0032868734560906887;0.0001715075777610764
-0.0789642333984375;-0.1880340576171875;-0.99591064453125;0.04982880875468254;-0.0032868734560906887;0.0001715075777610764
-0.0789642333984375;-0.1880340576171875;-0.99591064453125;0.04982880875468254;-0.0032868734560906887;0.0001715075777610764
-0.078216552734375;-0.187530517578125;-0.9945831298828125;0.03736787661910057;-0.007210508454591036;0.0011800467036664486
-0.078216552734375;-0.187530517578125;-0.9945831298828125;0.03736787661910057;-0.007210508454591036;0.0011800467036664486
-0.078216552734375;-0.187530517578125;-0.9945831298828125;0.03736787661910057;-0.007210508454591036;0.0011800467036664486
-0.078216552734375;-0.187530517578125;-0.9945831298828125;0.03736787661910057;-0.007210508454591036;0.0011800467036664486
-0.078216552734375;-0.187530517578125;-0.9945831298828125;0.03736787661910057;-0.007210508454591036;0.0011800467036664486
-0.078399658203125;-0.1864471435546875;-0.9933624267578125;0.022890668362379074;-0.012035091407597065;0.002620816696435213
-0.078399658203125;-0.1864471435546875;-0.9933624267578125;0.022890668362379074;-0.012035091407597065;0.002620816696435213
-0.078399658203125;-0.1864471435546875;-0.9933624267578125;0.022890668362379074;-0.012035091407597065;0.002620816696435213
-0.078399658203125;-0.1864471435546875;-0.9933624267578125;0.022890668362379074;-0.012035091407597065;0.002620816696435213
-0.078399658203125;-0.1864471435546875;-0.9933624267578125;0.022890668362379074;-0.012035091407597065;0.002620816696435213
-0.0777130126953125;-0.185546875;-0.9945068359375;0.012226572260260582;-0.015847139060497284;0.006962568499147892
-0.0777130126953125;-0.185546875;-0.9945068359375;0.012226572260260582;-0.015847139060497284;0.006962568499147892
-0.0777130126953125;-0.185546875;-0.9945068359375;0.012226572260260582;-0.015847139060497284;0.006962568499147892
-0.0777130126953125;-0.185546875;-0.9945068359375;0.012226572260260582;-0.015847139060497284;0.006962568499147892
-0.0777130126953125;-0.185546875;-0.9945068359375;0.012226572260260582;-0.015847139060497284;0.006962568499147892
-0.0778045654296875;-0.186004638671875;-0.9957733154296875;0.006195577792823315;-0.015904132276773453;0.004312456585466862
-0.0778045654296875;-0.186004638671875;-0.9957733154296875;0.006195577792823315;-0.015904132276773453;0.004312456585466862
-0.0778045654296875;-0.186004638671875;-0.9957733154296875;0.006195577792823315;-0.015904132276773453;0.004312456585466862
-0.0778045654296875;-0.186004638671875;-0.9957733154296875;0.006195577792823315;-0.015904132276773453;0.004312456585466862
-0.0778045654296875;-0.186004638671875;-0.9957733154296875;0.006195577792823315;-0.015904132276773453;0.004312456585466862
-0.078857421875;-0.1855621337890625;-0.9975738525390625;0.005613144487142563;-0.01691453531384468;0.0018932411912828684
-0.078857421875;-0.1855621337890625;-0.9975738525390625;0.005613144487142563;-0.01691453531384468;0.0018932411912828684
-0.078857421875;-0.1855621337890625;-0.9975738525390625;0.005613144487142563;-0.01691453531384468;0.0018932411912828684
-0.078857421875;-0.1855621337890625;-0.9975738525390625;0.005613144487142563;-0.01691453531384468;0.0018932411912828684
-0.078857421875;-0.1855621337890625;-0.9975738525390625;0.005613144487142563;-0.01691453531384468;0.0018932411912828684
-0.07830810546875;-0.1850128173828125;-0.999114990234375;0.008407865650951862;-0.01492435485124588;0.00192200334277004
-0.07830810546875;-0.1850128173828125;-0.999114990234375;0.008407865650951862;-0.01492435485124588;0.00192200334277004
-0.07830810546875;-0.1850128173828125;-0.999114990234375;0.008407865650951862;-0.01492435485124588;0.00192200334277004
-0.07830810546875;-0.1850128173828125;-0.999114990234375;0.008407865650951862;-0.01492435485124588;0.00192200334277004
-0.07830810546875;-0.1850128173828125;-0.999114990234375;0.008407865650951862;-0.01492435485124588;0.00192200334277004
-0.0773162841796875;-0.1862335205078125;-1.000823974609375;0.013555223122239113;-0.010963701643049717;0.0011976235546171665
-0.0773162841796875;-0.1862335205078125;-1.000823974609375;0.013555223122239113;-0.010963701643049717;0.0011976235546171665
-0.0773162841796875;-0.1862335205078125;-1.000823974609375;0.013555223122239113;-0.010963701643049717;0.0011976235546171665
-0.0773162841796875;-0.1862335205078125;-1.000823974609375;0.013555223122239113;-0.010963701643049717;0.0011976235546171665
-0.0773162841796875;-0.1862335205078125;-1.000823974609375;0.013555223122239113;-0.010963701643049717;0.0011976235546171665
-0.0779571533203125;-0.1881561279296875;-1.000274658203125;0.01792334020137787;-0.009455553255975246;-0.000892691605258733
-0.0779571533203125;-0.1881561279296875;-1.000274658203125;0.01792334020137787;-0.009455553255975246;-0.000892691605258733
-0.0779571533203125;-0.1881561279296875;-1.000274658203125;0.01792334020137787;-0.009455553255975246;-0.000892691605258733
-0.0779571533203125;-0.1881561279296875;-1.000274658203125;0.01792334020137787;-0.009455553255975246;-0.000892691605258733
-0.0779571533203125;-0.1881561279296875;-1.000274658203125;0.01792334020137787;-0.009455553255975246;-0.000892691605258733
-0.07818603515625;-0.1898345947265625;-0.9988250732421875;0.019340675324201584;-0.008204400539398193;-0.001044491771608591
-0.07818603515625;-0.1898345947265625;-0.9988250732421875;0.019340675324201584;-0.008204400539398193;-0.001044491771608591
-0.07818603515625;-0.1898345947265625;-0.9988250732421875;0.019340675324201584;-0.008204400539398193;-0.001044491771608591
-0.07818603515625;-0.1898345947265625;-0.9988250732421875;0.019340675324201584;-0.008204400539398193;-0.001044491771608591
-0.07818603515625;-0.1898345947265625;-0.9988250732421875;0.019340675324201584;-0.008204400539398193;-0.001044491771608591
-0.080322265625;-0.19195556640625;-0.99700927734375;0.02087492123246193;-0.006923419889062643;-0.0018777948571369052
-0.080322265625;-0.19195556640625;-0.99700927734375;0.02087492123246193;-0.006923419889062643;-0.0018777948571369052
-0.080322265625;-0.19195556640625;-0.99700927734375;0.02087492123246193;-0.006923419889062643;-0.0018777948571369052
-0.080322265625;-0.19195556640625;-0.99700927734375;0.02087492123246193;-0.006923419889062643;-0.0018777948571369052
-0.080322265625;-0.19195556640625;-0.99700927734375;0.02087492123246193;-0.006923419889062643;-0.0018777948571369052
-0.0795135498046875;-0.1943206787109375;-0.9988555908203125;0.022358035668730736;-0.007546066772192717;0.003031742526218295
-0.0795135498046875;-0.1943206787109375;-0.9988555908203125;0.022358035668730736;-0.007546066772192717;0.003031742526218295
-0.0795135498046875;-0.1943206787109375;-0.9988555908203125;0.022358035668730736;-0.007546066772192717;0.003031742526218295
-0.0795135498046875;-0.1943206787109375;-0.9988555908203125;0.022358035668730736;-0.007546066772192717;0.003031742526218295
-0.0795135498046875;-0.1943206787109375;-0.9988555908203125;0.022358035668730736;-0.007546066772192717;0.003031742526218295
-0.0787200927734375;-0.19403076171875;-1.0015106201171875;0.025974608957767487;-0.011066232807934284;0.0017164073651656508
-0.0787200927734375;-0.19403076171875;-1.0015106201171875;0.025974608957767487;-0.011066232807934284;0.0017164073651656508
-0.0787200927734375;-0.19403076171875;-1.0015106201171875;0.025974608957767487;-0.011066232807934284;0.0017164073651656508
-0.0787200927734375;-0.19403076171875;-1.0015106201171875;0.025974608957767487;-0.011066232807934284;0.0017164073651656508
-0.0787200927734375;-0.19403076171875;-1.0015106201171875;0.025974608957767487;-0.011066232807934284;0.0017164073651656508
-0.0779571533203125;-0.19573974609375;-1.000244140625;0.0275605209171772;-0.00666402792558074;0.002623746171593666
-0.0779571533203125;-0.19573974609375;-1.000244140625;0.0275605209171772;-0.00666402792558074;0.002623746171593666
-0.0779571533203125;-0.19573974609375;-1.000244140625;0.0275605209171772;-0.00666402792558074;0.002623746171593666
-0.0779571533203125;-0.19573974609375;-1.000244140625;0.0275605209171772;-0.00666402792558074;0.002623746171593666
-0.0779571533203125;-0.19573974609375;-1.000244140625;0.0275605209171772;-0.00666402792558074;0.002623746171593666
-0.07830810546875;-0.195068359375;-0.9962615966796875;0.018682874739170074;0.0006567355012521148;0.005121524911373854
-0.07830810546875;-0.195068359375;-0.9962615966796875;0.018682874739170074;0.0006567355012521148;0.005121524911373854
-0.07830810546875;-0.195068359375;-0.9962615966796875;0.018682874739170074;0.0006567355012521148;0.005121524911373854
-0.07830810546875;-0.195068359375;-0.9962615966796875;0.018682874739170074;0.0006567355012521148;0.005121524911373854
-0.07830810546875;-0.195068359375;-0.9962615966796875;0.018682874739170074;0.0006567355012521148;0.005121524911373854
-0.0791015625;-0.1950836181640625;-0.9903411865234375;0.0063196811825037;0.009734386578202248;0.006600910797715187
-0.0791015625;-0.1950836181640625;-0.9903411865234375;0.0063196811825037;0.009734386578202248;0.006600910797715187
-0.0791015625;-0.1950836181640625;-0.9903411865234375;0.0063196811825037;0.009734386578202248;0.006600910797715187
-0.0791015625;-0.1950836181640625;-0.9903411865234375;0.0063196811825037;0.009734386578202248;0.006600910797715187
-0.0791015625;-0.1950836181640625;-0.9903411865234375;0.0063196811825037;0.009734386578202248;0.006600910797715187
-0.0795135498046875;-0.196075439453125;-0.986083984375;-0.011565043590962887;0.020067451521754265;0.005100485868752003
-0.0795135498046875;-0.196075439453125;-0.986083984375;-0.011565043590962887;0.020067451521754265;0.005100485868752003
-0.0795135498046875;-0.196075439453125;-0.986083984375;-0.011565043590962887;0.020067451521754265;0.005100485868752003
-0.0795135498046875;-0.196075439453125;-0.986083984375;-0.011565043590962887;0.020067451521754265;0.005100485868752003
-0.0795135498046875;-0.196075439453125;-0.986083984375;-0.011565043590962887;0.020067451521754265;0.005100485868752003
-0.0802154541015625;-0.193603515625;-0.9848175048828125;-0.03061756305396557;0.01715714856982231;0.0022330605424940586
-0.0802154541015625;-0.193603515625;-0.9848175048828125;-0.03061756305396557;0.01715714856982231;0.0022330605424940586
-0.0802154541015625;-0.193603515625;-0.9848175048828125;-0.03061756305396557;0.01715714856982231;0.0022330605424940586
-0.0802154541015625;-0.193603515625;-0.9848175048828125;-0.03061756305396557;0.01715714856982231;0.0022330605424940586
-0.0802154541015625;-0.193603515625;-0.9848175048828125;-0.03061756305396557;0.01715714856982231;0.0022330605424940586
-0.0800323486328125;-0.1907806396484375;-0.98895263671875;-0.041063547134399414;0.008841427974402905;0.0028210864402353764
-0.0800323486328125;-0.1907806396484375;-0.98895263671875;-0.041063547134399414;0.008841427974402905;0.0028210864402353764
-0.0800323486328125;-0.1907806396484375;-0.98895263671875;-0.041063547134399414;0.008841427974402905;0.0028210864402353764
-0.0800323486328125;-0.1907806396484375;-0.98895263671875;-0.041063547134399414;0.008841427974402905;0.0028210864402353764
-0.0800323486328125;-0.1907806396484375;-0.98895263671875;-0.041063547134399414;0.008841427974402905;0.0028210864402353764
-0.0797576904296875;-0.1905517578125;-0.9946136474609375;-0.04502579942345619;-0.010250773280858994;0.0016937704058364034
-0.0797576904296875;-0.1905517578125;-0.9946136474609375;-0.04502579942345619;-0.010250773280858994;0.0016937704058364034
-0.0797576904296875;-0.1905517578125;-0.9946136474609375;-0.04502579942345619;-0.010250773280858994;0.0016937704058364034
-0.0797576904296875;-0.1905517578125;-0.9946136474609375;-0.04502579942345619;-0.010250773280858994;0.0016937704058364034
-0.0797576904296875;-0.1905517578125;-0.9946136474609375;-0.04502579942345619;-0.010250773280858994;0.0016937704058364034
-0.07928466796875;-0.18963623046875;-0.99957275390625;-0.04077965393662453;-0.018551846966147423;0.0022948458790779114
-0.07928466796875;-0.18963623046875;-0.99957275390625;-0.04077965393662453;-0.018551846966147423;0.0022948458790779114
-0.07928466796875;-0.18963623046875;-0.99957275390625;-0.04077965393662453;-0.018551846966147423;0.0022948458790779114
-0.07928466796875;-0.18963623046875;-0.99957275390625;-0.04077965393662453;-0.018551846966147423;0.0022948458790779114
-0.07928466796875;-0.18963623046875;-0.99957275390625;-0.04077965393662453;-0.018551846966147423;0.0022948458790779114
-0.078216552734375;-0.189483642578125;-1.0040130615234375;-0.028191424906253815;-0.025076057761907578;0.0007392935222014785
-0.078216552734375;-0.189483642578125;-1.0040130615234375;-0.028191424906253815;-0.025076057761907578;0.0007392935222014785
-0.078216552734375;-0.189483642578125;-1.0040130615234375;-0.028191424906253815;-0.025076057761907578;0.0007392935222014785
-0.078216552734375;-0.189483642578125;-1.0040130615234375;-0.028191424906253815;-0.025076057761907578;0.0007392935222014785
-0.078216552734375;-0.189483642578125;-1.0040130615234375;-0.028191424906253815;-0.025076057761907578;0.0007392935222014785
-0.0777435302734375;-0.190216064453125;-1.0072021484375;-0.01558135636150837;-0.025969814509153366;0.002641589380800724
-0.0777435302734375;-0.190216064453125;-1.0072021484375;-0.01558135636150837;-0.025969814509153366;0.002641589380800724
-0.0777435302734375;-0.190216064453125;-1.0072021484375;-0.01558135636150837;-0.025969814509153366;0.002641589380800724
-0.0777435302734375;-0.190216064453125;-1.0072021484375;-0.01558135636150837;-0.025969814509153366;0.002641589380800724
