Acell X;Acell Y;Acell Z;Gyro X;Gyro Y;Gyro Z

-0.0196075439453125;-0.1386871337890625;-1.0173187255859375;0.003884486621245742;0.23068034648895264;-0.0049066077917814255
-0.0196075439453125;-0.1386871337890625;-1.0173187255859375;0.003884486621245742;0.23068034648895264;-0.0049066077917814255
-0.0196075439453125;-0.1386871337890625;-1.0173187255859375;0.003884486621245742;0.23068034648895264;-0.0049066077917814255
-0.01129150390625;-0.142974853515625;-1.006591796875;-0.038118358701467514;0.08242669701576233;-0.0020567593164741993
-0.01129150390625;-0.142974853515625;-1.006591796875;-0.038118358701467514;0.08242669701576233;-0.0020567593164741993
-0.01129150390625;-0.142974853515625;-1.006591796875;-0.038118358701467514;0.08242669701576233;-0.0020567593164741993
-0.01129150390625;-0.142974853515625;-1.006591796875;-0.038118358701467514;0.08242669701576233;-0.0020567593164741993
-0.01129150390625;-0.142974853515625;-1.006591796875;-0.038118358701467514;0.08242669701576233;-0.0020567593164741993
-0.009918212890625;-0.146392822265625;-0.996826171875;-0.07175647467374802;-0.012510731816291809;0.002569950418546796
-0.009918212890625;-0.146392822265625;-0.996826171875;-0.07175647467374802;-0.012510731816291809;0.002569950418546796
-0.009918212890625;-0.146392822265625;-0.996826171875;-0.07175647467374802;-0.012510731816291809;0.002569950418546796
-0.009918212890625;-0.146392822265625;-0.996826171875;-0.07175647467374802;-0.012510731816291809;0.002569950418546796
-0.009918212890625;-0.146392822265625;-0.996826171875;-0.07175647467374802;-0.012510731816291809;0.002569950418546796
-0.0134735107421875;-0.1477508544921875;-0.990936279296875;-0.09832816570997238;-0.05560839921236038;0.002901247702538967
-0.0134735107421875;-0.1477508544921875;-0.990936279296875;-0.09832816570997238;-0.05560839921236038;0.002901247702538967
-0.0134735107421875;-0.1477508544921875;-0.990936279296875;-0.09832816570997238;-0.05560839921236038;0.002901247702538967
-0.0134735107421875;-0.1477508544921875;-0.990936279296875;-0.09832816570997238;-0.05560839921236038;0.002901247702538967
-0.0134735107421875;-0.1477508544921875;-0.990936279296875;-0.09832816570997238;-0.05560839921236038;0.002901247702538967
-0.01971435546875;-0.1454315185546875;-0.9882965087890625;-0.09948956966400146;-0.04907646402716637;0.0035744947381317616
-0.01971435546875;-0.1454315185546875;-0.9882965087890625;-0.09948956966400146;-0.04907646402716637;0.0035744947381317616
-0.01971435546875;-0.1454315185546875;-0.9882965087890625;-0.09948956966400146;-0.04907646402716637;0.0035744947381317616
-0.01971435546875;-0.1454315185546875;-0.9882965087890625;-0.09948956966400146;-0.04907646402716637;0.0035744947381317616
-0.01971435546875;-0.1454315185546875;-0.9882965087890625;-0.09948956966400146;-0.04907646402716637;0.0035744947381317616
-0.02398681640625;-0.141693115234375;-0.9916534423828125;-0.08715114742517471;-0.021140972152352333;0.00276169809512794
-0.02398681640625;-0.141693115234375;-0.9916534423828125;-0.08715114742517471;-0.021140972152352333;0.00276169809512794
-0.02398681640625;-0.141693115234375;-0.9916534423828125;-0.08715114742517471;-0.021140972152352333;0.00276169809512794
-0.02398681640625;-0.141693115234375;-0.9916534423828125;-0.08715114742517471;-0.021140972152352333;0.00276169809512794
-0.02398681640625;-0.141693115234375;-0.9916534423828125;-0.08715114742517471;-0.021140972152352333;0.00276169809512794
-0.0261077880859375;-0.13916015625;-0.9984283447265625;-0.0635954886674881;0.005586779210716486;0.000592020689509809
-0.0261077880859375;-0.13916015625;-0.9984283447265625;-0.0635954886674881;0.005586779210716486;0.000592020689509809
-0.0261077880859375;-0.13916015625;-0.9984283447265625;-0.0635954886674881;0.005586779210716486;0.000592020689509809
-0.0261077880859375;-0.13916015625;-0.9984283447265625;-0.0635954886674881;0.005586779210716486;0.000592020689509809
-0.0261077880859375;-0.13916015625;-0.9984283447265625;-0.0635954886674881;0.005586779210716486;0.000592020689509809
-0.0261688232421875;-0.136810302734375;-1.005035400390625;-0.040519196540117264;0.018741995096206665;-0.005042695440351963
-0.0261688232421875;-0.136810302734375;-1.005035400390625;-0.040519196540117264;0.018741995096206665;-0.005042695440351963
-0.0261688232421875;-0.136810302734375;-1.005035400390625;-0.040519196540117264;0.018741995096206665;-0.005042695440351963
-0.0261688232421875;-0.136810302734375;-1.005035400390625;-0.040519196540117264;0.018741995096206665;-0.005042695440351963
-0.0261688232421875;-0.136810302734375;-1.005035400390625;-0.040519196540117264;0.018741995096206665;-0.005042695440351963
-0.024139404296875;-0.1361541748046875;-1.0080718994140625;-0.020794227719306946;0.0201601292937994;-0.003736414946615696
-0.024139404296875;-0.1361541748046875;-1.0080718994140625;-0.020794227719306946;0.0201601292937994;-0.003736414946615696
-0.024139404296875;-0.1361541748046875;-1.0080718994140625;-0.020794227719306946;0.0201601292937994;-0.003736414946615696
-0.024139404296875;-0.1361541748046875;-1.0080718994140625;-0.020794227719306946;0.0201601292937994;-0.003736414946615696
-0.024139404296875;-0.1361541748046875;-1.0080718994140625;-0.020794227719306946;0.0201601292937994;-0.003736414946615696
-0.0203094482421875;-0.13702392578125;-1.008636474609375;-0.00951014831662178;0.009665942750871181;-0.002255431143566966
-0.0203094482421875;-0.13702392578125;-1.008636474609375;-0.00951014831662178;0.009665942750871181;-0.002255431143566966
-0.0203094482421875;-0.13702392578125;-1.008636474609375;-0.00951014831662178;0.009665942750871181;-0.002255431143566966
-0.0203094482421875;-0.13702392578125;-1.008636474609375;-0.00951014831662178;0.009665942750871181;-0.002255431143566966
-0.0203094482421875;-0.13702392578125;-1.008636474609375;-0.00951014831662178;0.009665942750871181;-0.002255431143566966
-0.01800537109375;-0.1363067626953125;-1.0050506591796875;-0.00620995881035924;0.0008346347021870315;-7.856325100874528e-05
-0.01800537109375;-0.1363067626953125;-1.0050506591796875;-0.00620995881035924;0.0008346347021870315;-7.856325100874528e-05
-0.01800537109375;-0.1363067626953125;-1.0050506591796875;-0.00620995881035924;0.0008346347021870315;-7.856325100874528e-05
-0.01800537109375;-0.1363067626953125;-1.0050506591796875;-0.00620995881035924;0.0008346347021870315;-7.856325100874528e-05
-0.01800537109375;-0.1363067626953125;-1.0050506591796875;-0.00620995881035924;0.0008346347021870315;-7.856325100874528e-05
-0.017547607421875;-0.13714599609375;-1.0011444091796875;-0.00717615382745862;-0.0017691379180178046;0.001258876291103661
-0.017547607421875;-0.13714599609375;-1.0011444091796875;-0.00717615382745862;-0.0017691379180178046;0.001258876291103661
-0.017547607421875;-0.13714599609375;-1.0011444091796875;-0.00717615382745862;-0.0017691379180178046;0.001258876291103661
-0.017547607421875;-0.13714599609375;-1.0011444091796875;-0.00717615382745862;-0.0017691379180178046;0.001258876291103661
-0.017547607421875;-0.13714599609375;-1.0011444091796875;-0.00717615382745862;-0.0017691379180178046;0.001258876291103661
-0.01898193359375;-0.1374969482421875;-0.9998779296875;-0.005720470100641251;-0.0023875238839536905;-0.00037151097785681486
-0.01898193359375;-0.1374969482421875;-0.9998779296875;-0.005720470100641251;-0.0023875238839536905;-0.00037151097785681486
-0.01898193359375;-0.1374969482421875;-0.9998779296875;-0.005720470100641251;-0.0023875238839536905;-0.00037151097785681486
-0.01898193359375;-0.1374969482421875;-0.9998779296875;-0.005720470100641251;-0.0023875238839536905;-0.00037151097785681486
-0.01898193359375;-0.1374969482421875;-0.9998779296875;-0.005720470100641251;-0.0023875238839536905;-0.00037151097785681486
-0.02081298828125;-0.1374664306640625;-1.005401611328125;-0.0038242992013692856;-0.008728244341909885;-0.0005733785801567137
-0.02081298828125;-0.1374664306640625;-1.005401611328125;-0.0038242992013692856;-0.008728244341909885;-0.0005733785801567137
-0.02081298828125;-0.1374664306640625;-1.005401611328125;-0.0038242992013692856;-0.008728244341909885;-0.0005733785801567137
-0.02081298828125;-0.1374664306640625;-1.005401611328125;-0.0038242992013692856;-0.008728244341909885;-0.0005733785801567137
-0.02081298828125;-0.1374664306640625;-1.005401611328125;-0.0038242992013692856;-0.008728244341909885;-0.0005733785801567137
-0.0234375;-0.136962890625;-1.012542724609375;0.012381035834550858;-0.012679309584200382;-0.003852795111015439
-0.0234375;-0.136962890625;-1.012542724609375;0.012381035834550858;-0.012679309584200382;-0.003852795111015439
-0.0234375;-0.136962890625;-1.012542724609375;0.012381035834550858;-0.012679309584200382;-0.003852795111015439
-0.0234375;-0.136962890625;-1.012542724609375;0.012381035834550858;-0.012679309584200382;-0.003852795111015439
-0.0234375;-0.136962890625;-1.012542724609375;0.012381035834550858;-0.012679309584200382;-0.003852795111015439
-0.023468017578125;-0.137939453125;-1.0209197998046875;0.029203692451119423;-0.020358800888061523;-0.002700445242226124
-0.023468017578125;-0.137939453125;-1.0209197998046875;0.029203692451119423;-0.020358800888061523;-0.002700445242226124
-0.023468017578125;-0.137939453125;-1.0209197998046875;0.029203692451119423;-0.020358800888061523;-0.002700445242226124
-0.023468017578125;-0.137939453125;-1.0209197998046875;0.029203692451119423;-0.020358800888061523;-0.002700445242226124
-0.023468017578125;-0.137939453125;-1.0209197998046875;0.029203692451119423;-0.020358800888061523;-0.002700445242226124
-0.0219573974609375;-0.1376495361328125;-1.023529052734375;0.03868960589170456;-0.01829485036432743;-0.0028959212359040976
-0.0219573974609375;-0.1376495361328125;-1.023529052734375;0.03868960589170456;-0.01829485036432743;-0.0028959212359040976
-0.0219573974609375;-0.1376495361328125;-1.023529052734375;0.03868960589170456;-0.01829485036432743;-0.0028959212359040976
-0.0219573974609375;-0.1376495361328125;-1.023529052734375;0.03868960589170456;-0.01829485036432743;-0.0028959212359040976
-0.0219573974609375;-0.1376495361328125;-1.023529052734375;0.03868960589170456;-0.01829485036432743;-0.0028959212359040976
-0.0201263427734375;-0.1386566162109375;-1.01385498046875;0.03099679760634899;0.005023254547268152;-0.00034727618913166225
-0.0201263427734375;-0.1386566162109375;-1.01385498046875;0.03099679760634899;0.005023254547268152;-0.00034727618913166225
-0.0201263427734375;-0.1386566162109375;-1.01385498046875;0.03099679760634899;0.005023254547268152;-0.00034727618913166225
-0.0201263427734375;-0.1386566162109375;-1.01385498046875;0.03099679760634899;0.005023254547268152;-0.00034727618913166225
-0.0201263427734375;-0.1386566162109375;-1.01385498046875;0.03099679760634899;0.005023254547268152;-0.00034727618913166225
-0.020172119140625;-0.1399078369140625;-1.0006103515625;0.009010539390146732;0.03638250753283501;0.00353428116068244
-0.020172119140625;-0.1399078369140625;-1.0006103515625;0.009010539390146732;0.03638250753283501;0.00353428116068244
-0.020172119140625;-0.1399078369140625;-1.0006103515625;0.009010539390146732;0.03638250753283501;0.00353428116068244
-0.020172119140625;-0.1399078369140625;-1.0006103515625;0.009010539390146732;0.03638250753283501;0.00353428116068244
-0.020172119140625;-0.1399078369140625;-1.0006103515625;0.009010539390146732;0.03638250753283501;0.00353428116068244
-0.0206146240234375;-0.141754150390625;-0.990386962890625;-0.02714506722986698;0.06497900187969208;0.00498197553679347
-0.0206146240234375;-0.141754150390625;-0.990386962890625;-0.02714506722986698;0.06497900187969208;0.00498197553679347
-0.0206146240234375;-0.141754150390625;-0.990386962890625;-0.02714506722986698;0.06497900187969208;0.00498197553679347
-0.0206146240234375;-0.141754150390625;-0.990386962890625;-0.02714506722986698;0.06497900187969208;0.00498197553679347
-0.0206146240234375;-0.141754150390625;-0.990386962890625;-0.02714506722986698;0.06497900187969208;0.00498197553679347
-0.020751953125;-0.142486572265625;-0.9873046875;-0.06444849818944931;0.07791690528392792;0.009666475467383862
-0.020751953125;-0.142486572265625;-0.9873046875;-0.06444849818944931;0.07791690528392792;0.009666475467383862
-0.020751953125;-0.142486572265625;-0.9873046875;-0.06444849818944931;0.07791690528392792;0.009666475467383862
-0.020751953125;-0.142486572265625;-0.9873046875;-0.06444849818944931;0.07791690528392792;0.009666475467383862
-0.020751953125;-0.142486572265625;-0.9873046875;-0.06444849818944931;0.07791690528392792;0.009666475467383862
-0.0194244384765625;-0.1412200927734375;-0.9890899658203125;-0.09241541475057602;0.07276208698749542;0.011008442379534245
-0.0194244384765625;-0.1412200927734375;-0.9890899658203125;-0.09241541475057602;0.07276208698749542;0.011008442379534245
-0.0194244384765625;-0.1412200927734375;-0.9890899658203125;-0.09241541475057602;0.07276208698749542;0.011008442379534245
-0.0194244384765625;-0.1412200927734375;-0.9890899658203125;-0.09241541475057602;0.07276208698749542;0.011008442379534245
-0.0194244384765625;-0.1412200927734375;-0.9890899658203125;-0.09241541475057602;0.07276208698749542;0.011008442379534245
-0.018341064453125;-0.136932373046875;-0.992919921875;-0.10852647572755814;0.06384582817554474;0.011778362095355988
-0.018341064453125;-0.136932373046875;-0.992919921875;-0.10852647572755814;0.06384582817554474;0.011778362095355988
-0.018341064453125;-0.136932373046875;-0.992919921875;-0.10852647572755814;0.06384582817554474;0.011778362095355988
-0.018341064453125;-0.136932373046875;-0.992919921875;-0.10852647572755814;0.06384582817554474;0.011778362095355988
-0.018341064453125;-0.136932373046875;-0.992919921875;-0.10852647572755814;0.06384582817554474;0.011778362095355988
-0.01910400390625;-0.1333465576171875;-1.0011749267578125;-0.107256680727005;0.05922337621450424;0.005720736458897591
-0.01910400390625;-0.1333465576171875;-1.0011749267578125;-0.107256680727005;0.05922337621450424;0.005720736458897591
-0.01910400390625;-0.1333465576171875;-1.0011749267578125;-0.107256680727005;0.05922337621450424;0.005720736458897591
-0.01910400390625;-0.1333465576171875;-1.0011749267578125;-0.107256680727005;0.05922337621450424;0.005720736458897591
-0.01910400390625;-0.1333465576171875;-1.0011749267578125;-0.107256680727005;0.05922337621450424;0.005720736458897591
-0.021270751953125;-0.1303863525390625;-1.011322021484375;-0.09366177767515182;0.047737959772348404;0.002746518002822995
-0.021270751953125;-0.1303863525390625;-1.011322021484375;-0.09366177767515182;0.047737959772348404;0.002746518002822995
-0.021270751953125;-0.1303863525390625;-1.011322021484375;-0.09366177767515182;0.047737959772348404;0.002746518002822995
-0.021270751953125;-0.1303863525390625;-1.011322021484375;-0.09366177767515182;0.047737959772348404;0.002746518002822995
-0.021270751953125;-0.1303863525390625;-1.011322021484375;-0.09366177767515182;0.047737959772348404;0.002746518002822995
-0.023040771484375;-0.128387451171875;-1.0140838623046875;-0.08078060299158096;0.04007311910390854;-0.0010612696642056108
-0.023040771484375;-0.128387451171875;-1.0140838623046875;-0.08078060299158096;0.04007311910390854;-0.0010612696642056108
-0.023040771484375;-0.128387451171875;-1.0140838623046875;-0.08078060299158096;0.04007311910390854;-0.0010612696642056108
-0.023040771484375;-0.128387451171875;-1.0140838623046875;-0.08078060299158096;0.04007311910390854;-0.0010612696642056108
-0.023040771484375;-0.128387451171875;-1.0140838623046875;-0.08078060299158096;0.04007311910390854;-0.0010612696642056108
-0.0230255126953125;-0.1284942626953125;-1.0124969482421875;-0.055205464363098145;0.031090807169675827;-0.006730873137712479
-0.0230255126953125;-0.1284942626953125;-1.0124969482421875;-0.055205464363098145;0.031090807169675827;-0.006730873137712479
-0.0230255126953125;-0.1284942626953125;-1.0124969482421875;-0.055205464363098145;0.031090807169675827;-0.006730873137712479
-0.0230255126953125;-0.1284942626953125;-1.0124969482421875;-0.055205464363098145;0.031090807169675827;-0.006730873137712479
-0.0230255126953125;-0.1284942626953125;-1.0124969482421875;-0.055205464363098145;0.031090807169675827;-0.006730873137712479
-0.020111083984375;-0.131195068359375;-1.0112762451171875;-0.031072964891791344;0.018329473212361336;-0.00700864102691412
-0.020111083984375;-0.131195068359375;-1.0112762451171875;-0.031072964891791344;0.018329473212361336;-0.00700864102691412
-0.020111083984375;-0.131195068359375;-1.0112762451171875;-0.031072964891791344;0.018329473212361336;-0.00700864102691412
-0.020111083984375;-0.131195068359375;-1.0112762451171875;-0.031072964891791344;0.018329473212361336;-0.00700864102691412
-0.020111083984375;-0.131195068359375;-1.0112762451171875;-0.031072964891791344;0.018329473212361336;-0.00700864102691412
-0.01654052734375;-0.132720947265625;-1.0124969482421875;-0.0011587414192035794;0.00839907769113779;-0.004340952727943659
-0.01654052734375;-0.132720947265625;-1.0124969482421875;-0.0011587414192035794;0.00839907769113779;-0.004340952727943659
-0.01654052734375;-0.132720947265625;-1.0124969482421875;-0.0011587414192035794;0.00839907769113779;-0.004340952727943659
-0.01654052734375;-0.132720947265625;-1.0124969482421875;-0.0011587414192035794;0.00839907769113779;-0.004340952727943659
-0.01654052734375;-0.132720947265625;-1.0124969482421875;-0.0011587414192035794;0.00839907769113779;-0.004340952727943659
-0.0132293701171875;-0.13372802734375;-1.0116729736328125;0.020060792565345764;-0.009007343091070652;-0.0007297061383724213
-0.0132293701171875;-0.13372802734375;-1.0116729736328125;0.020060792565345764;-0.009007343091070652;-0.0007297061383724213
-0.0132293701171875;-0.13372802734375;-1.0116729736328125;0.020060792565345764;-0.009007343091070652;-0.0007297061383724213
-0.0132293701171875;-0.13372802734375;-1.0116729736328125;0.020060792565345764;-0.009007343091070652;-0.0007297061383724213
-0.0132293701171875;-0.13372802734375;-1.0116729736328125;0.03784724697470665;-0.014272679574787617;0.00250470289029181
-0.0133056640625;-0.134735107421875;-1.0084381103515625;0.03784724697470665;-0.014272679574787617;0.00250470289029181
-0.0133056640625;-0.134735107421875;-1.0084381103515625;0.03784724697470665;-0.014272679574787617;0.00250470289029181
-0.0133056640625;-0.134735107421875;-1.0084381103515625;0.03784724697470665;-0.014272679574787617;0.00250470289029181
-0.0133056640625;-0.134735107421875;-1.0084381103515625;0.03784724697470665;-0.014272679574787617;0.00250470289029181
-0.015655517578125;-0.1376800537109375;-1.0044097900390625;0.04754035547375679;-0.01738431677222252;0.005506884306669235
-0.015655517578125;-0.1376800537109375;-1.0044097900390625;0.04754035547375679;-0.01738431677222252;0.005506884306669235
-0.015655517578125;-0.1376800537109375;-1.0044097900390625;0.04754035547375679;-0.01738431677222252;0.005506884306669235
-0.015655517578125;-0.1376800537109375;-1.0044097900390625;0.04754035547375679;-0.01738431677222252;0.005506884306669235
-0.015655517578125;-0.1376800537109375;-1.0044097900390625;0.04754035547375679;-0.01738431677222252;0.005506884306669235
-0.015655517578125;-0.1376800537109375;-1.0044097900390625;0.053221408277750015;-0.02040940150618553;0.004702343605458736
-0.0182342529296875;-0.1392822265625;-1.0028533935546875;0.053221408277750015;-0.02040940150618553;0.004702343605458736
-0.0182342529296875;-0.1392822265625;-1.0028533935546875;0.053221408277750015;-0.02040940150618553;0.004702343605458736
-0.0182342529296875;-0.1392822265625;-1.0028533935546875;0.053221408277750015;-0.02040940150618553;0.004702343605458736
-0.0182342529296875;-0.1392822265625;-1.0028533935546875;0.053221408277750015;-0.02040940150618553;0.004702343605458736
-0.021087646484375;-0.1392822265625;-1.0025634765625;0.055514391511678696;-0.018763035535812378;0.004065847955644131
-0.021087646484375;-0.1392822265625;-1.0025634765625;0.055514391511678696;-0.018763035535812378;0.004065847955644131
-0.021087646484375;-0.1392822265625;-1.0025634765625;0.055514391511678696;-0.018763035535812378;0.004065847955644131
-0.021087646484375;-0.1392822265625;-1.0025634765625;0.055514391511678696;-0.018763035535812378;0.004065847955644131
-0.021087646484375;-0.1392822265625;-1.0025634765625;0.055514391511678696;-0.018763035535812378;0.004065847955644131
-0.021087646484375;-0.1392822265625;-1.0025634765625;0.055514391511678696;-0.018763035535812378;0.004065847955644131
-0.020660400390625;-0.137176513671875;-1.0030059814453125;0.05486724153161049;-0.022710638120770454;0.008028632029891014
-0.020660400390625;-0.137176513671875;-1.0030059814453125;0.05486724153161049;-0.022710638120770454;0.008028632029891014
-0.020660400390625;-0.137176513671875;-1.0030059814453125;0.05486724153161049;-0.022710638120770454;0.008028632029891014
-0.020660400390625;-0.137176513671875;-1.0030059814453125;0.05486724153161049;-0.022710638120770454;0.008028632029891014
-0.0189208984375;-0.1352691650390625;-1.002899169921875;0.04849296808242798;-0.028438832610845566;0.00768721429631114
-0.0189208984375;-0.1352691650390625;-1.002899169921875;0.04849296808242798;-0.028438832610845566;0.00768721429631114
-0.0189208984375;-0.1352691650390625;-1.002899169921875;0.04849296808242798;-0.028438832610845566;0.00768721429631114
-0.0189208984375;-0.1352691650390625;-1.002899169921875;0.04849296808242798;-0.028438832610845566;0.00768721429631114
-0.0189208984375;-0.1352691650390625;-1.002899169921875;0.04849296808242798;-0.028438832610845566;0.00768721429631114
-0.0182342529296875;-0.1349639892578125;-1.0030975341796875;0.03813273832201958;-0.04008457064628601;0.0060048955492675304
-0.0182342529296875;-0.1349639892578125;-1.0030975341796875;0.03813273832201958;-0.04008457064628601;0.0060048955492675304
-0.0182342529296875;-0.1349639892578125;-1.0030975341796875;0.03813273832201958;-0.04008457064628601;0.0060048955492675304
-0.0182342529296875;-0.1349639892578125;-1.0030975341796875;0.03813273832201958;-0.04008457064628601;0.0060048955492675304
-0.0182342529296875;-0.1349639892578125;-1.0030975341796875;0.03813273832201958;-0.04008457064628601;0.0060048955492675304
-0.017059326171875;-0.1338653564453125;-1.0036163330078125;0.027832696214318275;-0.0466173030436039;0.004728708881884813
-0.017059326171875;-0.1338653564453125;-1.0036163330078125;0.027832696214318275;-0.0466173030436039;0.004728708881884813
-0.017059326171875;-0.1338653564453125;-1.0036163330078125;0.027832696214318275;-0.0466173030436039;0.004728708881884813
-0.017059326171875;-0.1338653564453125;-1.0036163330078125;0.027832696214318275;-0.0466173030436039;0.004728708881884813
-0.017059326171875;-0.1338653564453125;-1.0036163330078125;0.027832696214318275;-0.0466173030436039;0.004728708881884813
-0.0160980224609375;-0.133056640625;-1.0030517578125;0.021274661645293236;-0.048824798315763474;0.006412093061953783
-0.0160980224609375;-0.133056640625;-1.0030517578125;0.021274661645293236;-0.048824798315763474;0.006412093061953783
-0.0160980224609375;-0.133056640625;-1.0030517578125;0.021274661645293236;-0.048824798315763474;0.006412093061953783
-0.0160980224609375;-0.133056640625;-1.0030517578125;0.021274661645293236;-0.048824798315763474;0.006412093061953783
-0.0160980224609375;-0.133056640625;-1.0030517578125;0.021274661645293236;-0.048824798315763474;0.006412093061953783
-0.0169525146484375;-0.1327362060546875;-1.0045928955078125;0.013188772834837437;-0.05197585001587868;0.004513791762292385
-0.0169525146484375;-0.1327362060546875;-1.0045928955078125;0.013188772834837437;-0.05197585001587868;0.004513791762292385
-0.0169525146484375;-0.1327362060546875;-1.0045928955078125;0.013188772834837437;-0.05197585001587868;0.004513791762292385
-0.0169525146484375;-0.1327362060546875;-1.0045928955078125;0.013188772834837437;-0.05197585001587868;0.004513791762292385
-0.0169525146484375;-0.1327362060546875;-1.0045928955078125;0.013188772834837437;-0.05197585001587868;0.004513791762292385
-0.0186309814453125;-0.132080078125;-1.0036468505859375;0.009121326729655266;-0.051911935210227966;0.0015217302134260535
-0.0186309814453125;-0.132080078125;-1.0036468505859375;0.009121326729655266;-0.051911935210227966;0.0015217302134260535
-0.0186309814453125;-0.132080078125;-1.0036468505859375;0.009121326729655266;-0.051911935210227966;0.0015217302134260535
-0.0186309814453125;-0.132080078125;-1.0036468505859375;0.009121326729655266;-0.051911935210227966;0.0015217302134260535
-0.0186309814453125;-0.132080078125;-1.0036468505859375;0.009121326729655266;-0.051911935210227966;0.0015217302134260535
-0.0205078125;-0.1315765380859375;-1.005401611328125;0.009356483817100525;-0.04825381562113762;0.0018998990999534726
-0.0205078125;-0.1315765380859375;-1.005401611328125;0.009356483817100525;-0.04825381562113762;0.0018998990999534726
-0.0205078125;-0.1315765380859375;-1.005401611328125;0.009356483817100525;-0.04825381562113762;0.0018998990999534726
-0.0205078125;-0.1315765380859375;-1.005401611328125;0.009356483817100525;-0.04825381562113762;0.0018998990999534726
-0.0205078125;-0.1315765380859375;-1.005401611328125;0.009356483817100525;-0.04825381562113762;0.0018998990999534726
-0.021820068359375;-0.132537841796875;-1.0057373046875;0.009759154170751572;-0.04000307619571686;0.0020093549974262714
-0.021820068359375;-0.132537841796875;-1.0057373046875;0.009759154170751572;-0.04000307619571686;0.0020093549974262714
-0.021820068359375;-0.132537841796875;-1.0057373046875;0.009759154170751572;-0.04000307619571686;0.0020093549974262714
-0.021820068359375;-0.132537841796875;-1.0057373046875;0.009759154170751572;-0.04000307619571686;0.0020093549974262714
-0.021820068359375;-0.132537841796875;-1.0057373046875;0.009759154170751572;-0.04000307619571686;0.0020093549974262714
-0.0233001708984375;-0.1357269287109375;-1.0077056884765625;0.01504100114107132;-0.036669597029685974;-0.0005251753609627485
-0.0233001708984375;-0.1357269287109375;-1.0077056884765625;0.01504100114107132;-0.036669597029685974;-0.0005251753609627485
-0.0233001708984375;-0.1357269287109375;-1.0077056884765625;0.01504100114107132;-0.036669597029685974;-0.0005251753609627485
-0.0233001708984375;-0.1357269287109375;-1.0077056884765625;0.01504100114107132;-0.036669597029685974;-0.0005251753609627485
-0.0233001708984375;-0.1357269287109375;-1.0077056884765625;0.01504100114107132;-0.036669597029685974;-0.0005251753609627485
-0.0228729248046875;-0.1364593505859375;-1.0081634521484375;0.019700467586517334;-0.03243384137749672;-0.003269829088822007
-0.0228729248046875;-0.1364593505859375;-1.0081634521484375;0.019700467586517334;-0.03243384137749672;-0.003269829088822007
-0.0228729248046875;-0.1364593505859375;-1.0081634521484375;0.019700467586517334;-0.03243384137749672;-0.003269829088822007
-0.0228729248046875;-0.1364593505859375;-1.0081634521484375;0.019700467586517334;-0.03243384137749672;-0.003269829088822007
-0.0228729248046875;-0.1364593505859375;-1.0081634521484375;0.019700467586517334;-0.03243384137749672;-0.003269829088822007
-0.0245819091796875;-0.13909912109375;-1.0071868896484375;0.028085697442293167;-0.03178536146879196;-0.006111954804509878
-0.0245819091796875;-0.13909912109375;-1.0071868896484375;0.028085697442293167;-0.03178536146879196;-0.006111954804509878
-0.0245819091796875;-0.13909912109375;-1.0071868896484375;0.028085697442293167;-0.03178536146879196;-0.006111954804509878
-0.0245819091796875;-0.13909912109375;-1.0071868896484375;0.028085697442293167;-0.03178536146879196;-0.006111954804509878
-0.0245819091796875;-0.13909912109375;-1.0071868896484375;0.028085697442293167;-0.03178536146879196;-0.006111954804509878
-0.025238037109375;-0.140289306640625;-1.007476806640625;0.035771846771240234;-0.030527016147971153;-0.007598265074193478
-0.025238037109375;-0.140289306640625;-1.007476806640625;0.035771846771240234;-0.030527016147971153;-0.007598265074193478
-0.025238037109375;-0.140289306640625;-1.007476806640625;0.035771846771240234;-0.030527016147971153;-0.007598265074193478
-0.025238037109375;-0.140289306640625;-1.007476806640625;0.035771846771240234;-0.030527016147971153;-0.007598265074193478
-0.025238037109375;-0.140289306640625;-1.007476806640625;0.035771846771240234;-0.030527016147971153;-0.007598265074193478
-0.025054931640625;-0.142120361328125;-1.0084228515625;0.04259433224797249;-0.035707928240299225;-0.008580705150961876
-0.025054931640625;-0.142120361328125;-1.0084228515625;0.04259433224797249;-0.035707928240299225;-0.008580705150961876
-0.025054931640625;-0.142120361328125;-1.0084228515625;0.04259433224797249;-0.035707928240299225;-0.008580705150961876
-0.025054931640625;-0.142120361328125;-1.0084228515625;0.04259433224797249;-0.035707928240299225;-0.008580705150961876
-0.025054931640625;-0.142120361328125;-1.0084228515625;0.04259433224797249;-0.035707928240299225;-0.008580705150961876
-0.02423095703125;-0.14263916015625;-1.00921630859375;0.04884956404566765;-0.03923794999718666;-0.003567304229363799
-0.02423095703125;-0.14263916015625;-1.00921630859375;0.04884956404566765;-0.03923794999718666;-0.003567304229363799
-0.02423095703125;-0.14263916015625;-1.00921630859375;0.04884956404566765;-0.03923794999718666;-0.003567304229363799
-0.02423095703125;-0.14263916015625;-1.00921630859375;0.04884956404566765;-0.03923794999718666;-0.003567304229363799
-0.02423095703125;-0.14263916015625;-1.00921630859375;0.04884956404566765;-0.03923794999718666;-0.003567304229363799
-0.02362060546875;-0.144012451171875;-1.0106201171875;0.05040671303868294;-0.04168353229761124;-0.0023121563717722893
-0.02362060546875;-0.144012451171875;-1.0106201171875;0.05040671303868294;-0.04168353229761124;-0.0023121563717722893
-0.02362060546875;-0.144012451171875;-1.0106201171875;0.05040671303868294;-0.04168353229761124;-0.0023121563717722893
-0.02362060546875;-0.144012451171875;-1.0106201171875;0.05040671303868294;-0.04168353229761124;-0.0023121563717722893
-0.02362060546875;-0.144012451171875;-1.0106201171875;0.05040671303868294;-0.04168353229761124;-0.0023121563717722893
-0.02288818359375;-0.1435699462890625;-1.0101318359375;0.04820774123072624;-0.03610660508275032;-0.0009619337506592274
-0.02288818359375;-0.1435699462890625;-1.0101318359375;0.04820774123072624;-0.03610660508275032;-0.0009619337506592274
-0.02288818359375;-0.1435699462890625;-1.0101318359375;0.04820774123072624;-0.03610660508275032;-0.0009619337506592274
-0.02288818359375;-0.1435699462890625;-1.0101318359375;0.04820774123072624;-0.03610660508275032;-0.0009619337506592274
-0.02288818359375;-0.1435699462890625;-1.0101318359375;0.04820774123072624;-0.03610660508275032;-0.0009619337506592274
-0.02313232421875;-0.1430816650390625;-1.0048828125;0.04169391840696335;-0.027881432324647903;0.0013757890556007624
-0.02313232421875;-0.1430816650390625;-1.0048828125;0.04169391840696335;-0.027881432324647903;0.0013757890556007624
-0.02313232421875;-0.1430816650390625;-1.0048828125;0.04169391840696335;-0.027881432324647903;0.0013757890556007624
-0.02313232421875;-0.1430816650390625;-1.0048828125;0.04169391840696335;-0.027881432324647903;0.0013757890556007624
-0.02313232421875;-0.1430816650390625;-1.0048828125;0.04169391840696335;-0.027881432324647903;0.0013757890556007624
-0.02325439453125;-0.1439666748046875;-1.0006256103515625;0.02641589380800724;-0.017472999170422554;0.004688494838774204
-0.02325439453125;-0.1439666748046875;-1.0006256103515625;0.02641589380800724;-0.017472999170422554;0.004688494838774204
-0.02325439453125;-0.1439666748046875;-1.0006256103515625;0.02641589380800724;-0.017472999170422554;0.004688494838774204
-0.02325439453125;-0.1439666748046875;-1.0006256103515625;0.02641589380800724;-0.017472999170422554;0.004688494838774204
-0.02325439453125;-0.1439666748046875;-1.0006256103515625;0.02641589380800724;-0.017472999170422554;0.004688494838774204
-0.024322509765625;-0.1430816650390625;-0.9975128173828125;0.013015134260058403;-0.001942509668879211;0.0021233384031802416
-0.024322509765625;-0.1430816650390625;-0.9975128173828125;0.013015134260058403;-0.001942509668879211;0.0021233384031802416
-0.024322509765625;-0.1430816650390625;-0.9975128173828125;0.013015134260058403;-0.001942509668879211;0.0021233384031802416
-0.024322509765625;-0.1430816650390625;-0.9975128173828125;0.013015134260058403;-0.001942509668879211;0.0021233384031802416
-0.024322509765625;-0.1430816650390625;-0.9975128173828125;0.013015134260058403;-0.001942509668879211;0.0021233384031802416
-0.0250396728515625;-0.1424713134765625;-0.9985198974609375;-0.0029265477787703276;0.0006468818173743784;0.002635730430483818
-0.0250396728515625;-0.1424713134765625;-0.9985198974609375;-0.0029265477787703276;0.0006468818173743784;0.002635730430483818
-0.0250396728515625;-0.1424713134765625;-0.9985198974609375;-0.0029265477787703276;0.0006468818173743784;0.002635730430483818
-0.0250396728515625;-0.1424713134765625;-0.9985198974609375;-0.0029265477787703276;0.0006468818173743784;0.002635730430483818
-0.0250396728515625;-0.1424713134765625;-0.9985198974609375;-0.0029265477787703276;0.0006468818173743784;0.002635730430483818
-0.0235443115234375;-0.1417236328125;-1.002838134765625;-0.010729077272117138;-0.0044144559651613235;0.0028735508676618338
-0.0235443115234375;-0.1417236328125;-1.002838134765625;-0.010729077272117138;-0.0044144559651613235;0.0028735508676618338
-0.0235443115234375;-0.1417236328125;-1.002838134765625;-0.010729077272117138;-0.0044144559651613235;0.0028735508676618338
-0.0235443115234375;-0.1417236328125;-1.002838134765625;-0.010729077272117138;-0.0044144559651613235;0.0028735508676618338
-0.0235443115234375;-0.1417236328125;-1.002838134765625;-0.010729077272117138;-0.0044144559651613235;0.0028735508676618338
-0.0220947265625;-0.140106201171875;-1.007720947265625;-0.013624466024339199;-0.015210910700261593;0.007475226651877165
-0.0220947265625;-0.140106201171875;-1.007720947265625;-0.013624466024339199;-0.015210910700261593;0.007475226651877165
-0.0220947265625;-0.140106201171875;-1.007720947265625;-0.013624466024339199;-0.015210910700261593;0.007475226651877165
-0.0220947265625;-0.140106201171875;-1.007720947265625;-0.013624466024339199;-0.015210910700261593;0.007475226651877165
-0.0220947265625;-0.140106201171875;-1.007720947265625;-0.013624466024339199;-0.015210910700261593;0.007475226651877165
-0.0221099853515625;-0.139404296875;-1.0106201171875;-0.010125870816409588;-0.02864176407456398;0.004080228973180056
-0.0221099853515625;-0.139404296875;-1.0106201171875;-0.010125870816409588;-0.02864176407456398;0.004080228973180056
-0.0221099853515625;-0.139404296875;-1.0106201171875;-0.010125870816409588;-0.02864176407456398;0.004080228973180056
-0.0221099853515625;-0.139404296875;-1.0106201171875;-0.010125870816409588;-0.02864176407456398;0.004080228973180056
-0.0221099853515625;-0.139404296875;-1.0106201171875;-0.010125870816409588;-0.02864176407456398;0.004080228973180056
-0.0226898193359375;-0.14007568359375;-1.012176513671875;-0.003802194958552718;-0.035723909735679626;0.0014751249691471457
-0.0226898193359375;-0.14007568359375;-1.012176513671875;-0.003802194958552718;-0.035723909735679626;0.0014751249691471457
-0.0226898193359375;-0.14007568359375;-1.012176513671875;-0.003802194958552718;-0.035723909735679626;0.0014751249691471457
-0.0226898193359375;-0.14007568359375;-1.012176513671875;-0.003802194958552718;-0.035723909735679626;0.0014751249691471457
-0.0226898193359375;-0.14007568359375;-1.012176513671875;-0.003802194958552718;-0.035723909735679626;0.0014751249691471457
-0.023284912109375;-0.1399993896484375;-1.0113067626953125;0.008502141572535038;-0.037154294550418854;-0.0003038666909560561
-0.023284912109375;-0.1399993896484375;-1.0113067626953125;0.008502141572535038;-0.037154294550418854;-0.0003038666909560561
-0.023284912109375;-0.1399993896484375;-1.0113067626953125;0.008502141572535038;-0.037154294550418854;-0.0003038666909560561
-0.023284912109375;-0.1399993896484375;-1.0113067626953125;0.008502141572535038;-0.037154294550418854;-0.0003038666909560561
-0.023284912109375;-0.1399993896484375;-1.0113067626953125;0.008502141572535038;-0.037154294550418854;-0.0003038666909560561
-0.02410888671875;-0.1410064697265625;-1.009857177734375;0.015351525507867336;-0.03243650123476982;-0.0002671150432433933
-0.02410888671875;-0.1410064697265625;-1.009857177734375;0.015351525507867336;-0.03243650123476982;-0.0002671150432433933
-0.02410888671875;-0.1410064697265625;-1.009857177734375;0.015351525507867336;-0.03243650123476982;-0.0002671150432433933
-0.02410888671875;-0.1410064697265625;-1.009857177734375;0.015351525507867336;-0.03243650123476982;-0.0002671150432433933
-0.02410888671875;-0.1410064697265625;-1.009857177734375;0.015351525507867336;-0.03243650123476982;-0.0002671150432433933
-0.023223876953125;-0.141021728515625;-1.0083160400390625;0.021506357938051224;-0.030660707503557205;0.0007270429632626474
-0.023223876953125;-0.141021728515625;-1.0083160400390625;0.021506357938051224;-0.030660707503557205;0.0007270429632626474
-0.023223876953125;-0.141021728515625;-1.0083160400390625;0.021506357938051224;-0.030660707503557205;0.0007270429632626474
-0.023223876953125;-0.141021728515625;-1.0083160400390625;0.021506357938051224;-0.030660707503557205;0.0007270429632626474
-0.023223876953125;-0.141021728515625;-1.0083160400390625;0.021506357938051224;-0.030660707503557205;0.0007270429632626474
-0.0232696533203125;-0.141448974609375;-1.00579833984375;0.0249644722789526;-0.024776719510555267;-0.0003038666909560561
-0.0232696533203125;-0.141448974609375;-1.00579833984375;0.0249644722789526;-0.024776719510555267;-0.0003038666909560561
-0.0232696533203125;-0.141448974609375;-1.00579833984375;0.0249644722789526;-0.024776719510555267;-0.0003038666909560561
-0.0232696533203125;-0.141448974609375;-1.00579833984375;0.0249644722789526;-0.024776719510555267;-0.0003038666909560561
-0.0232696533203125;-0.141448974609375;-1.00579833984375;0.0249644722789526;-0.024776719510555267;-0.0003038666909560561
-0.02325439453125;-0.141937255859375;-1.00579833984375;0.028611671179533005;-0.026104571297764778;-0.0002860235108528286
-0.02325439453125;-0.141937255859375;-1.00579833984375;0.028611671179533005;-0.026104571297764778;-0.0002860235108528286
-0.02325439453125;-0.141937255859375;-1.00579833984375;0.028611671179533005;-0.026104571297764778;-0.0002860235108528286
-0.02325439453125;-0.141937255859375;-1.00579833984375;0.028611671179533005;-0.026104571297764778;-0.0002860235108528286
-0.02325439453125;-0.141937255859375;-1.00579833984375;0.028611671179533005;-0.026104571297764778;-0.0002860235108528286
-0.0233001708984375;-0.142120361328125;-1.0047149658203125;0.02907159924507141;-0.025674203410744667;0.00041678472189232707
-0.0233001708984375;-0.142120361328125;-1.0047149658203125;0.02907159924507141;-0.025674203410744667;0.00041678472189232707
-0.0233001708984375;-0.142120361328125;-1.0047149658203125;0.02907159924507141;-0.025674203410744667;0.00041678472189232707
-0.0233001708984375;-0.142120361328125;-1.0047149658203125;0.02907159924507141;-0.025674203410744667;0.00041678472189232707
-0.0233001708984375;-0.142120361328125;-1.0047149658203125;0.02907159924507141;-0.025674203410744667;0.00041678472189232707
-0.0238494873046875;-0.1405792236328125;-1.0047760009765625;0.02851499803364277;-0.027968784794211388;0.0007158577209338546
-0.0238494873046875;-0.1405792236328125;-1.0047760009765625;0.02851499803364277;-0.027968784794211388;0.0007158577209338546
-0.0238494873046875;-0.1405792236328125;-1.0047760009765625;0.02851499803364277;-0.027968784794211388;0.0007158577209338546
-0.0238494873046875;-0.1405792236328125;-1.0047760009765625;0.02851499803364277;-0.027968784794211388;0.0007158577209338546
-0.0238494873046875;-0.1405792236328125;-1.0047760009765625;0.02851499803364277;-0.027968784794211388;0.0007158577209338546
-0.02569580078125;-0.14019775390625;-1.004913330078125;0.026674486696720123;-0.03557530418038368;0.0008122641011141241
-0.02569580078125;-0.14019775390625;-1.004913330078125;0.026674486696720123;-0.03557530418038368;0.0008122641011141241
-0.02569580078125;-0.14019775390625;-1.004913330078125;0.026674486696720123;-0.03557530418038368;0.0008122641011141241
-0.02569580078125;-0.14019775390625;-1.004913330078125;0.026674486696720123;-0.03557530418038368;0.0008122641011141241
-0.02569580078125;-0.14019775390625;-1.004913330078125;0.026674486696720123;-0.03557530418038368;0.0008122641011141241
-0.0265655517578125;-0.1404571533203125;-1.00531005859375;0.030839672312140465;-0.03906138241291046;0.0018975022248923779
-0.0265655517578125;-0.1404571533203125;-1.00531005859375;0.030839672312140465;-0.03906138241291046;0.0018975022248923779
-0.0265655517578125;-0.1404571533203125;-1.00531005859375;0.030839672312140465;-0.03906138241291046;0.0018975022248923779
-0.0265655517578125;-0.1404571533203125;-1.00531005859375;0.030839672312140465;-0.03906138241291046;0.0018975022248923779
-0.0265655517578125;-0.1404571533203125;-1.00531005859375;0.030839672312140465;-0.03906138241291046;0.0018975022248923779
-0.02716064453125;-0.1407623291015625;-1.0059051513671875;0.0345582440495491;-0.04065554961562157;-8.255799002654385e-06
-0.02716064453125;-0.1407623291015625;-1.0059051513671875;0.0345582440495491;-0.04065554961562157;-8.255799002654385e-06
-0.02716064453125;-0.1407623291015625;-1.0059051513671875;0.0345582440495491;-0.04065554961562157;-8.255799002654385e-06
-0.02716064453125;-0.1407623291015625;-1.0059051513671875;0.0345582440495491;-0.04065554961562157;-8.255799002654385e-06
-0.02716064453125;-0.1407623291015625;-1.0059051513671875;0.0345582440495491;-0.04065554961562157;-8.255799002654385e-06
-0.0279388427734375;-0.141845703125;-1.00738525390625;0.03561791405081749;-0.046169623732566833;0.0007179882377386093
-0.0279388427734375;-0.141845703125;-1.00738525390625;0.03561791405081749;-0.046169623732566833;0.0007179882377386093
-0.0279388427734375;-0.141845703125;-1.00738525390625;0.03561791405081749;-0.046169623732566833;0.0007179882377386093
-0.0279388427734375;-0.141845703125;-1.00738525390625;0.03561791405081749;-0.046169623732566833;0.0007179882377386093
-0.0279388427734375;-0.141845703125;-1.00738525390625;0.03561791405081749;-0.046169623732566833;0.0007179882377386093
-0.029144287109375;-0.14276123046875;-1.0065460205078125;0.03771941363811493;-0.04735606536269188;0.0006322344415821135
-0.029144287109375;-0.14276123046875;-1.0065460205078125;0.03771941363811493;-0.04735606536269188;0.0006322344415821135
-0.029144287109375;-0.14276123046875;-1.0065460205078125;0.03771941363811493;-0.04735606536269188;0.0006322344415821135
-0.029144287109375;-0.14276123046875;-1.0065460205078125;0.03771941363811493;-0.04735606536269188;0.0006322344415821135
-0.029144287109375;-0.14276123046875;-1.0065460205078125;0.03771941363811493;-0.04735606536269188;0.0006322344415821135
-0.0293121337890625;-0.142578125;-1.004669189453125;0.035713788121938705;-0.038182005286216736;0.002034122357144952
-0.0293121337890625;-0.142578125;-1.004669189453125;0.035713788121938705;-0.038182005286216736;0.002034122357144952
-0.0293121337890625;-0.142578125;-1.004669189453125;0.035713788121938705;-0.038182005286216736;0.002034122357144952
-0.0293121337890625;-0.142578125;-1.004669189453125;0.035713788121938705;-0.038182005286216736;0.002034122357144952
-0.0293121337890625;-0.142578125;-1.004669189453125;0.031387750059366226;-0.038129810243844986;0.0019270633347332478
-0.029937744140625;-0.142425537109375;-1.00225830078125;0.031387750059366226;-0.038129810243844986;0.0019270633347332478
-0.029937744140625;-0.142425537109375;-1.00225830078125;0.031387750059366226;-0.038129810243844986;0.0019270633347332478
-0.029937744140625;-0.142425537109375;-1.00225830078125;0.031387750059366226;-0.038129810243844986;0.0019270633347332478
-0.029937744140625;-0.142425537109375;-1.00225830078125;0.031387750059366226;-0.038129810243844986;0.0019270633347332478
-0.02899169921875;-0.1439056396484375;-1.003387451171875;0.02611442469060421;-0.034319356083869934;0.00041625206358730793
-0.02899169921875;-0.1439056396484375;-1.003387451171875;0.02611442469060421;-0.034319356083869934;0.00041625206358730793
-0.02899169921875;-0.1439056396484375;-1.003387451171875;0.02611442469060421;-0.034319356083869934;0.00041625206358730793
-0.02899169921875;-0.1439056396484375;-1.003387451171875;0.02611442469060421;-0.034319356083869934;0.00041625206358730793
-0.02899169921875;-0.1439056396484375;-1.003387451171875;0.02611442469060421;-0.034319356083869934;0.00041625206358730793
-0.029541015625;-0.1457366943359375;-1.005767822265625;0.02353515289723873;-0.036019518971443176;-0.00012676646292675287
-0.029541015625;-0.1457366943359375;-1.005767822265625;0.02353515289723873;-0.036019518971443176;-0.00012676646292675287
-0.029541015625;-0.1457366943359375;-1.005767822265625;0.02353515289723873;-0.036019518971443176;-0.00012676646292675287
-0.029541015625;-0.1457366943359375;-1.005767822265625;0.02353515289723873;-0.036019518971443176;-0.00012676646292675287
-0.029541015625;-0.1457366943359375;-1.005767822265625;0.02353515289723873;-0.036019518971443176;-0.00012676646292675287
-0.030609130859375;-0.1473846435546875;-1.0078887939453125;0.023788420483469963;-0.04259299859404564;0.002031192881986499
-0.030609130859375;-0.1473846435546875;-1.0078887939453125;0.023788420483469963;-0.04259299859404564;0.002031192881986499
-0.030609130859375;-0.1473846435546875;-1.0078887939453125;0.023788420483469963;-0.04259299859404564;0.002031192881986499
-0.030609130859375;-0.1473846435546875;-1.0078887939453125;0.023788420483469963;-0.04259299859404564;0.002031192881986499
-0.030609130859375;-0.1473846435546875;-1.0078887939453125;0.023788420483469963;-0.04259299859404564;0.002031192881986499
-0.03094482421875;-0.1476898193359375;-1.010498046875;0.0239412859082222;-0.04249925538897514;0.001680454588495195
-0.03094482421875;-0.1476898193359375;-1.010498046875;0.0239412859082222;-0.04249925538897514;0.001680454588495195
-0.03094482421875;-0.1476898193359375;-1.010498046875;0.0239412859082222;-0.04249925538897514;0.001680454588495195
-0.03094482421875;-0.1476898193359375;-1.010498046875;0.0239412859082222;-0.04249925538897514;0.001680454588495195
-0.03094482421875;-0.1476898193359375;-1.010498046875;0.0239412859082222;-0.04249925538897514;0.001680454588495195
-0.0309600830078125;-0.1475830078125;-1.010162353515625;0.017658889293670654;-0.04697070270776749;0.0027047062758356333
-0.0309600830078125;-0.1475830078125;-1.010162353515625;0.017658889293670654;-0.04697070270776749;0.0027047062758356333
-0.0309600830078125;-0.1475830078125;-1.010162353515625;0.017658889293670654;-0.04697070270776749;0.0027047062758356333
-0.0309600830078125;-0.1475830078125;-1.010162353515625;0.017658889293670654;-0.04697070270776749;0.0027047062758356333
-0.0309600830078125;-0.1475830078125;-1.010162353515625;0.017658889293670654;-0.04697070270776749;0.0027047062758356333
-0.031494140625;-0.1482391357421875;-1.0092010498046875;0.015924904495477676;-0.04104090854525566;0.0021614215802401304
-0.031494140625;-0.1482391357421875;-1.0092010498046875;0.015924904495477676;-0.04104090854525566;0.0021614215802401304
-0.031494140625;-0.1482391357421875;-1.0092010498046875;0.015924904495477676;-0.04104090854525566;0.0021614215802401304
-0.031494140625;-0.1482391357421875;-1.0092010498046875;0.015924904495477676;-0.04104090854525566;0.0021614215802401304
-0.031494140625;-0.1482391357421875;-1.0092010498046875;0.015924904495477676;-0.04104090854525566;0.0021614215802401304
-0.030029296875;-0.148284912109375;-1.0039215087890625;0.007339405361562967;-0.031977374106645584;0.003993676509708166
-0.030029296875;-0.148284912109375;-1.0039215087890625;0.007339405361562967;-0.031977374106645584;0.003993676509708166
-0.030029296875;-0.148284912109375;-1.0039215087890625;0.007339405361562967;-0.031977374106645584;0.003993676509708166
-0.030029296875;-0.148284912109375;-1.0039215087890625;0.007339405361562967;-0.031977374106645584;0.003993676509708166
-0.030029296875;-0.148284912109375;-1.0039215087890625;0.007339405361562967;-0.031977374106645584;0.003993676509708166
-0.029296875;-0.1489410400390625;-0.9998779296875;-0.005899967160075903;-0.022661635652184486;0.0012942962348461151
-0.029296875;-0.1489410400390625;-0.9998779296875;-0.005899967160075903;-0.022661635652184486;0.0012942962348461151
-0.029296875;-0.1489410400390625;-0.9998779296875;-0.005899967160075903;-0.022661635652184486;0.0012942962348461151
-0.029296875;-0.1489410400390625;-0.9998779296875;-0.005899967160075903;-0.022661635652184486;0.0012942962348461151
-0.029296875;-0.1489410400390625;-0.9998779296875;-0.005899967160075903;-0.022661635652184486;0.0012942962348461151
-0.028228759765625;-0.1490631103515625;-0.9968109130859375;-0.011502991430461407;-0.013382650911808014;0.0029590383637696505
-0.028228759765625;-0.1490631103515625;-0.9968109130859375;-0.011502991430461407;-0.013382650911808014;0.0029590383637696505
-0.028228759765625;-0.1490631103515625;-0.9968109130859375;-0.011502991430461407;-0.013382650911808014;0.0029590383637696505
-0.028228759765625;-0.1490631103515625;-0.9968109130859375;-0.011502991430461407;-0.013382650911808014;0.0029590383637696505
-0.028228759765625;-0.1490631103515625;-0.9968109130859375;-0.011502991430461407;-0.013382650911808014;0.0029590383637696505
-0.028045654296875;-0.1478271484375;-0.995391845703125;-0.01671852543950081;-0.010328804142773151;0.004394481889903545
-0.028045654296875;-0.1478271484375;-0.995391845703125;-0.01671852543950081;-0.010328804142773151;0.004394481889903545
-0.028045654296875;-0.1478271484375;-0.995391845703125;-0.01671852543950081;-0.010328804142773151;0.004394481889903545
-0.028045654296875;-0.1478271484375;-0.995391845703125;-0.01671852543950081;-0.010328804142773151;0.004394481889903545
-0.028045654296875;-0.1478271484375;-0.995391845703125;-0.01671852543950081;-0.010328804142773151;0.004394481889903545
-0.0288238525390625;-0.14764404296875;-0.99810791015625;-0.019403258338570595;-0.012321114540100098;0.0021286646369844675
-0.0288238525390625;-0.14764404296875;-0.99810791015625;-0.019403258338570595;-0.012321114540100098;0.0021286646369844675
-0.0288238525390625;-0.14764404296875;-0.99810791015625;-0.019403258338570595;-0.012321114540100098;0.0021286646369844675
-0.0288238525390625;-0.14764404296875;-0.99810791015625;-0.019403258338570595;-0.012321114540100098;0.0021286646369844675
-0.0288238525390625;-0.14764404296875;-0.99810791015625;-0.019403258338570595;-0.012321114540100098;0.0021286646369844675
-0.0299835205078125;-0.1479644775390625;-1.004547119140625;-0.005514874123036861;-0.020550016313791275;-0.00261788722127676
-0.0299835205078125;-0.1479644775390625;-1.004547119140625;-0.005514874123036861;-0.020550016313791275;-0.00261788722127676
-0.0299835205078125;-0.1479644775390625;-1.004547119140625;-0.005514874123036861;-0.020550016313791275;-0.00261788722127676
-0.0299835205078125;-0.1479644775390625;-1.004547119140625;-0.005514874123036861;-0.020550016313791275;-0.00261788722127676
-0.0299835205078125;-0.1479644775390625;-1.004547119140625;-0.005514874123036861;-0.020550016313791275;-0.00261788722127676
-0.032196044921875;-0.1468048095703125;-1.0123443603515625;0.015250058844685555;-0.03215021267533302;-0.0049550775438547134
-0.032196044921875;-0.1468048095703125;-1.0123443603515625;0.015250058844685555;-0.03215021267533302;-0.0049550775438547134
-0.032196044921875;-0.1468048095703125;-1.0123443603515625;0.015250058844685555;-0.03215021267533302;-0.0049550775438547134
-0.032196044921875;-0.1468048095703125;-1.0123443603515625;0.015250058844685555;-0.03215021267533302;-0.0049550775438547134
-0.032196044921875;-0.1468048095703125;-1.0123443603515625;0.015250058844685555;-0.03215021267533302;-0.0049550775438547134
-0.032012939453125;-0.1464080810546875;-1.021270751953125;0.04111521318554878;-0.047264982014894485;-0.007595867849886417
-0.032012939453125;-0.1464080810546875;-1.021270751953125;0.04111521318554878;-0.047264982014894485;-0.007595867849886417
-0.032012939453125;-0.1464080810546875;-1.021270751953125;0.04111521318554878;-0.047264982014894485;-0.007595867849886417
-0.032012939453125;-0.1464080810546875;-1.021270751953125;0.04111521318554878;-0.047264982014894485;-0.007595867849886417
-0.032012939453125;-0.1464080810546875;-1.021270751953125;0.04111521318554878;-0.047264982014894485;-0.007595867849886417
-0.0328369140625;-0.146484375;-1.02191162109375;0.05628484487533569;-0.04493711516261101;-0.004854409955441952
-0.0328369140625;-0.146484375;-1.02191162109375;0.05628484487533569;-0.04493711516261101;-0.004854409955441952
-0.0328369140625;-0.146484375;-1.02191162109375;0.05628484487533569;-0.04493711516261101;-0.004854409955441952
-0.0328369140625;-0.146484375;-1.02191162109375;0.05628484487533569;-0.04493711516261101;-0.004854409955441952
-0.0328369140625;-0.146484375;-1.02191162109375;0.05628484487533569;-0.04493711516261101;-0.004854409955441952
-0.0322723388671875;-0.146759033203125;-1.0106964111328125;0.05790271610021591;-0.027094734832644463;-0.0014676681021228433
-0.0322723388671875;-0.146759033203125;-1.0106964111328125;0.05790271610021591;-0.027094734832644463;-0.0014676681021228433
-0.0322723388671875;-0.146759033203125;-1.0106964111328125;0.05790271610021591;-0.027094734832644463;-0.0014676681021228433
-0.0322723388671875;-0.146759033203125;-1.0106964111328125;0.05790271610021591;-0.027094734832644463;-0.0014676681021228433
-0.0322723388671875;-0.146759033203125;-1.0106964111328125;0.05790271610021591;-0.027094734832644463;-0.0014676681021228433
-0.0331573486328125;-0.147857666015625;-1.0001068115234375;0.05192844569683075;-0.0014452975010499358;0.002657035831362009
-0.0331573486328125;-0.147857666015625;-1.0001068115234375;0.05192844569683075;-0.0014452975010499358;0.002657035831362009
-0.0331573486328125;-0.147857666015625;-1.0001068115234375;0.05192844569683075;-0.0014452975010499358;0.002657035831362009
-0.0331573486328125;-0.147857666015625;-1.0001068115234375;0.05192844569683075;-0.0014452975010499358;0.002657035831362009
-0.0331573486328125;-0.147857666015625;-1.0001068115234375;0.05192844569683075;-0.0014452975010499358;0.002657035831362009
-0.03326416015625;-0.1497344970703125;-0.9957427978515625;0.03603869304060936;0.014787734486162663;0.006216616835445166
-0.03326416015625;-0.1497344970703125;-0.9957427978515625;0.03603869304060936;0.014787734486162663;0.006216616835445166
-0.03326416015625;-0.1497344970703125;-0.9957427978515625;0.03603869304060936;0.014787734486162663;0.006216616835445166
-0.03326416015625;-0.1497344970703125;-0.9957427978515625;0.03603869304060936;0.014787734486162663;0.006216616835445166
-0.03326416015625;-0.1497344970703125;-0.9957427978515625;0.03603869304060936;0.014787734486162663;0.006216616835445166
-0.0331268310546875;-0.149078369140625;-0.9961090087890625;0.015111308544874191;0.017918279394507408;0.009699499234557152
-0.0331268310546875;-0.149078369140625;-0.9961090087890625;0.015111308544874191;0.017918279394507408;0.009699499234557152
-0.0331268310546875;-0.149078369140625;-0.9961090087890625;0.015111308544874191;0.017918279394507408;0.009699499234557152
-0.0331268310546875;-0.149078369140625;-0.9961090087890625;0.015111308544874191;0.017918279394507408;0.009699499234557152
-0.0331268310546875;-0.149078369140625;-0.9961090087890625;0.015111308544874191;0.017918279394507408;0.009699499234557152
-0.032958984375;-0.1475677490234375;-0.99896240234375;0.0007182545377872884;0.010752513073384762;0.009882990270853043
-0.032958984375;-0.1475677490234375;-0.99896240234375;0.0007182545377872884;0.010752513073384762;0.009882990270853043
-0.032958984375;-0.1475677490234375;-0.99896240234375;0.0007182545377872884;0.010752513073384762;0.009882990270853043
-0.032958984375;-0.1475677490234375;-0.99896240234375;0.0007182545377872884;0.010752513073384762;0.009882990270853043
-0.032958984375;-0.1475677490234375;-0.99896240234375;0.0007182545377872884;0.010752513073384762;0.009882990270853043
-0.0339202880859375;-0.1461944580078125;-0.9991302490234375;-0.01236399170011282;0.007434746716171503;0.007931159809231758
-0.0339202880859375;-0.1461944580078125;-0.9991302490234375;-0.01236399170011282;0.007434746716171503;0.007931159809231758
-0.0339202880859375;-0.1461944580078125;-0.9991302490234375;-0.01236399170011282;0.007434746716171503;0.007931159809231758
-0.0339202880859375;-0.1461944580078125;-0.9991302490234375;-0.01236399170011282;0.007434746716171503;0.007931159809231758
-0.0339202880859375;-0.1461944580078125;-0.9991302490234375;-0.01236399170011282;0.007434746716171503;0.007931159809231758
-0.0345611572265625;-0.143951416015625;-1.0017547607421875;-0.02130289189517498;0.009577792137861252;0.010448645800352097
-0.0345611572265625;-0.143951416015625;-1.0017547607421875;-0.02130289189517498;0.009577792137861252;0.010448645800352097
-0.0345611572265625;-0.143951416015625;-1.0017547607421875;-0.02130289189517498;0.009577792137861252;0.010448645800352097
-0.0345611572265625;-0.143951416015625;-1.0017547607421875;-0.02130289189517498;0.009577792137861252;0.010448645800352097
-0.0345611572265625;-0.143951416015625;-1.0017547607421875;-0.02130289189517498;0.009577792137861252;0.010448645800352097
-0.0350189208984375;-0.1429290771484375;-1.0034027099609375;-0.03241706266999245;0.022160429507493973;0.00523683987557888
-0.0350189208984375;-0.1429290771484375;-1.0034027099609375;-0.03241706266999245;0.022160429507493973;0.00523683987557888
-0.0350189208984375;-0.1429290771484375;-1.0034027099609375;-0.03241706266999245;0.022160429507493973;0.00523683987557888
-0.0350189208984375;-0.1429290771484375;-1.0034027099609375;-0.03241706266999245;0.022160429507493973;0.00523683987557888
-0.0350189208984375;-0.1429290771484375;-1.0034027099609375;-0.03241706266999245;0.022160429507493973;0.00523683987557888
-0.035491943359375;-0.1429290771484375;-0.9989166259765625;-0.04116394743323326;0.03255501389503479;0.001448759576305747
-0.035491943359375;-0.1429290771484375;-0.9989166259765625;-0.04116394743323326;0.03255501389503479;0.001448759576305747
-0.035491943359375;-0.1429290771484375;-0.9989166259765625;-0.04116394743323326;0.03255501389503479;0.001448759576305747
-0.035491943359375;-0.1429290771484375;-0.9989166259765625;-0.04116394743323326;0.03255501389503479;0.001448759576305747
-0.035491943359375;-0.1429290771484375;-0.9989166259765625;-0.04116394743323326;0.03255501389503479;0.001448759576305747
-0.0367584228515625;-0.144622802734375;-0.9960784912109375;-0.04472432658076286;0.03743818402290344;-0.0023148194886744022
-0.0367584228515625;-0.144622802734375;-0.9960784912109375;-0.04472432658076286;0.03743818402290344;-0.0023148194886744022
-0.0367584228515625;-0.144622802734375;-0.9960784912109375;-0.04472432658076286;0.03743818402290344;-0.0023148194886744022
-0.0367584228515625;-0.144622802734375;-0.9960784912109375;-0.04472432658076286;0.03743818402290344;-0.0023148194886744022
-0.0367584228515625;-0.144622802734375;-0.9960784912109375;-0.04472432658076286;0.03743818402290344;-0.0023148194886744022
-0.034881591796875;-0.1465606689453125;-1.0007476806640625;-0.03440377861261368;0.031738221645355225;-0.007788947317749262
-0.034881591796875;-0.1465606689453125;-1.0007476806640625;-0.03440377861261368;0.031738221645355225;-0.007788947317749262
-0.034881591796875;-0.1465606689453125;-1.0007476806640625;-0.03440377861261368;0.031738221645355225;-0.007788947317749262
-0.034881591796875;-0.1465606689453125;-1.0007476806640625;-0.03440377861261368;0.031738221645355225;-0.007788947317749262
-0.034881591796875;-0.1465606689453125;-1.0007476806640625;-0.03440377861261368;0.031738221645355225;-0.007788947317749262
-0.0316162109375;-0.1472930908203125;-1.008453369140625;-0.01925252377986908;0.00971467886120081;-0.0065292720682919025
-0.0316162109375;-0.1472930908203125;-1.008453369140625;-0.01925252377986908;0.00971467886120081;-0.0065292720682919025
-0.0316162109375;-0.1472930908203125;-1.008453369140625;-0.01925252377986908;0.00971467886120081;-0.0065292720682919025
-0.0316162109375;-0.1472930908203125;-1.008453369140625;-0.01925252377986908;0.00971467886120081;-0.0065292720682919025
-0.0316162109375;-0.1472930908203125;-1.008453369140625;-0.01925252377986908;0.00971467886120081;-0.0065292720682919025
-0.0284576416015625;-0.1470947265625;-1.0140838623046875;0.0049156625755131245;-0.00993279181420803;-0.003847468877211213
-0.0284576416015625;-0.1470947265625;-1.0140838623046875;0.0049156625755131245;-0.00993279181420803;-0.003847468877211213
-0.0284576416015625;-0.1470947265625;-1.0140838623046875;0.0049156625755131245;-0.00993279181420803;-0.003847468877211213
-0.0284576416015625;-0.1470947265625;-1.0140838623046875;0.0049156625755131245;-0.00993279181420803;-0.003847468877211213
-0.0263671875;-0.1479034423828125;-1.0139007568359375;0.025904567912220955;-0.03436143696308136;-0.001948634977452457
-0.0263671875;-0.1479034423828125;-1.0139007568359375;0.025904567912220955;-0.03436143696308136;-0.001948634977452457
-0.0263671875;-0.1479034423828125;-1.0139007568359375;0.025904567912220955;-0.03436143696308136;-0.001948634977452457
-0.0263671875;-0.1479034423828125;-1.0139007568359375;0.025904567912220955;-0.03436143696308136;-0.001948634977452457
-0.0263671875;-0.1479034423828125;-1.0139007568359375;0.025904567912220955;-0.03436143696308136;-0.001948634977452457
-0.0264129638671875;-0.14990234375;-1.0110015869140625;0.04688362032175064;-0.045452434569597244;0.0003933488915208727
-0.0264129638671875;-0.14990234375;-1.0110015869140625;0.04688362032175064;-0.045452434569597244;0.0003933488915208727
-0.0264129638671875;-0.14990234375;-1.0110015869140625;0.04688362032175064;-0.045452434569597244;0.0003933488915208727
-0.0264129638671875;-0.14990234375;-1.0110015869140625;0.04688362032175064;-0.045452434569597244;0.0003933488915208727
-0.0264129638671875;-0.14990234375;-1.0110015869140625;0.04688362032175064;-0.045452434569597244;0.0003933488915208727
-0.028045654296875;-0.15313720703125;-1.0083160400390625;0.06435368955135345;-0.05317933112382889;0.0017813884187489748
-0.028045654296875;-0.15313720703125;-1.0083160400390625;0.06435368955135345;-0.05317933112382889;0.0017813884187489748
-0.028045654296875;-0.15313720703125;-1.0083160400390625;0.06435368955135345;-0.05317933112382889;0.0017813884187489748
-0.028045654296875;-0.15313720703125;-1.0083160400390625;0.06435368955135345;-0.05317933112382889;0.0017813884187489748
-0.028045654296875;-0.15313720703125;-1.0083160400390625;0.06435368955135345;-0.05317933112382889;0.0017813884187489748
-0.0297393798828125;-0.1544036865234375;-1.0045318603515625;0.07851717621088028;-0.055331431329250336;0.001933721243403852
-0.0297393798828125;-0.1544036865234375;-1.0045318603515625;0.07851717621088028;-0.055331431329250336;0.001933721243403852
-0.0297393798828125;-0.1544036865234375;-1.0045318603515625;0.07851717621088028;-0.055331431329250336;0.001933721243403852
-0.0297393798828125;-0.1544036865234375;-1.0045318603515625;0.07851717621088028;-0.055331431329250336;0.001933721243403852
-0.0297393798828125;-0.1544036865234375;-1.0045318603515625;0.07851717621088028;-0.055331431329250336;0.001933721243403852
-0.031646728515625;-0.15374755859375;-1.0034942626953125;0.08380594849586487;-0.049782734364271164;0.001734516816213727
-0.031646728515625;-0.15374755859375;-1.0034942626953125;0.08380594849586487;-0.049782734364271164;0.001734516816213727
-0.031646728515625;-0.15374755859375;-1.0034942626953125;0.08380594849586487;-0.049782734364271164;0.001734516816213727
-0.031646728515625;-0.15374755859375;-1.0034942626953125;0.08380594849586487;-0.049782734364271164;0.001734516816213727
-0.031646728515625;-0.15374755859375;-1.0034942626953125;0.08380594849586487;-0.049782734364271164;0.001734516816213727
-0.032684326171875;-0.151885986328125;-1.0028228759765625;0.08453486114740372;-0.04920216649770737;0.005333778914064169
-0.032684326171875;-0.151885986328125;-1.0028228759765625;0.08453486114740372;-0.04920216649770737;0.005333778914064169
-0.032684326171875;-0.151885986328125;-1.0028228759765625;0.08453486114740372;-0.04920216649770737;0.005333778914064169
-0.032684326171875;-0.151885986328125;-1.0028228759765625;0.08453486114740372;-0.04920216649770737;0.005333778914064169
-0.032684326171875;-0.151885986328125;-1.0028228759765625;0.08453486114740372;-0.04920216649770737;0.005333778914064169
-0.0332794189453125;-0.1510009765625;-1.0026397705078125;0.0795677974820137;-0.04977048560976982;0.0041092573665082455
-0.0332794189453125;-0.1510009765625;-1.0026397705078125;0.0795677974820137;-0.04977048560976982;0.0041092573665082455
-0.0332794189453125;-0.1510009765625;-1.0026397705078125;0.0795677974820137;-0.04977048560976982;0.0041092573665082455
-0.0332794189453125;-0.1510009765625;-1.0026397705078125;0.0795677974820137;-0.04977048560976982;0.0041092573665082455
-0.0332794189453125;-0.1510009765625;-1.0026397705078125;0.0795677974820137;-0.04977048560976982;0.0041092573665082455
-0.033660888671875;-0.150909423828125;-1.003997802734375;0.07420525699853897;-0.048584312200546265;0.006038185209035873
-0.033660888671875;-0.150909423828125;-1.003997802734375;0.07420525699853897;-0.048584312200546265;0.006038185209035873
-0.033660888671875;-0.150909423828125;-1.003997802734375;0.07420525699853897;-0.048584312200546265;0.006038185209035873
-0.033660888671875;-0.150909423828125;-1.003997802734375;0.07420525699853897;-0.048584312200546265;0.006038185209035873
-0.033660888671875;-0.150909423828125;-1.003997802734375;0.060206081718206406;-0.05558869242668152;0.006332198157906532
-0.034149169921875;-0.1512298583984375;-1.0050048828125;0.060206081718206406;-0.05558869242668152;0.006332198157906532
-0.034149169921875;-0.1512298583984375;-1.0050048828125;0.060206081718206406;-0.05558869242668152;0.006332198157906532
-0.034149169921875;-0.1512298583984375;-1.0050048828125;0.060206081718206406;-0.05558869242668152;0.006332198157906532
-0.034149169921875;-0.1512298583984375;-1.0050048828125;0.060206081718206406;-0.05558869242668152;0.006332198157906532
-0.034149169921875;-0.1512298583984375;-1.0050048828125;0.060206081718206406;-0.05558869242668152;0.006332198157906532
-0.035675048828125;-0.150543212890625;-1.0047607421875;0.055627044290304184;-0.05908595770597458;0.006341785658150911
-0.035675048828125;-0.150543212890625;-1.0047607421875;0.055627044290304184;-0.05908595770597458;0.006341785658150911
-0.035675048828125;-0.150543212890625;-1.0047607421875;0.055627044290304184;-0.05908595770597458;0.006341785658150911
-0.035675048828125;-0.150543212890625;-1.0047607421875;0.055627044290304184;-0.05908595770597458;0.006341785658150911
-0.035675048828125;-0.150543212890625;-1.0047607421875;0.055627044290304184;-0.05908595770597458;0.006341785658150911
-0.036407470703125;-0.1501617431640625;-1.0053863525390625;0.04705405980348587;-0.05722014605998993;0.004833903629332781
-0.036407470703125;-0.1501617431640625;-1.0053863525390625;0.04705405980348587;-0.05722014605998993;0.004833903629332781
-0.036407470703125;-0.1501617431640625;-1.0053863525390625;0.04705405980348587;-0.05722014605998993;0.004833903629332781
-0.036407470703125;-0.1501617431640625;-1.0053863525390625;0.04705405980348587;-0.05722014605998993;0.004833903629332781
-0.036407470703125;-0.1501617431640625;-1.0053863525390625;0.03826669603586197;-0.05366695672273636;0.0033864756114780903
-0.037200927734375;-0.1498870849609375;-1.0058441162109375;0.03826669603586197;-0.05366695672273636;0.0033864756114780903
-0.037200927734375;-0.1498870849609375;-1.0058441162109375;0.03826669603586197;-0.05366695672273636;0.0033864756114780903
-0.037200927734375;-0.1498870849609375;-1.0058441162109375;0.03826669603586197;-0.05366695672273636;0.0033864756114780903
-0.037200927734375;-0.1498870849609375;-1.0058441162109375;0.03826669603586197;-0.05366695672273636;0.0033864756114780903
-0.0392913818359375;-0.1506195068359375;-1.006988525390625;0.03684110566973686;-0.045889727771282196;0.0009454221581108868
-0.0392913818359375;-0.1506195068359375;-1.006988525390625;0.03684110566973686;-0.045889727771282196;0.0009454221581108868
-0.0392913818359375;-0.1506195068359375;-1.006988525390625;0.03684110566973686;-0.045889727771282196;0.0009454221581108868
-0.0392913818359375;-0.1506195068359375;-1.006988525390625;0.03684110566973686;-0.045889727771282196;0.0009454221581108868
-0.0392913818359375;-0.1506195068359375;-1.006988525390625;0.03684110566973686;-0.045889727771282196;0.0009454221581108868
-0.039276123046875;-0.1513519287109375;-1.0067901611328125;0.032829850912094116;-0.038362037390470505;0.0014658038271591067
-0.039276123046875;-0.1513519287109375;-1.0067901611328125;0.032829850912094116;-0.038362037390470505;0.0014658038271591067
-0.039276123046875;-0.1513519287109375;-1.0067901611328125;0.032829850912094116;-0.038362037390470505;0.0014658038271591067
-0.039276123046875;-0.1513519287109375;-1.0067901611328125;0.032829850912094116;-0.038362037390470505;0.0014658038271591067
-0.039276123046875;-0.1513519287109375;-1.0067901611328125;0.032829850912094116;-0.038362037390470505;0.0014658038271591067
-0.039276123046875;-0.1513519287109375;-1.0067901611328125;0.03314943239092827;-0.031019967049360275;-0.002590989461168647
-0.0393218994140625;-0.1534881591796875;-1.005706787109375;0.03314943239092827;-0.031019967049360275;-0.002590989461168647
-0.0393218994140625;-0.1534881591796875;-1.005706787109375;0.03314943239092827;-0.031019967049360275;-0.002590989461168647
-0.0393218994140625;-0.1534881591796875;-1.005706787109375;0.03314943239092827;-0.031019967049360275;-0.002590989461168647
-0.0393218994140625;-0.1534881591796875;-1.005706787109375;0.03314943239092827;-0.031019967049360275;-0.002590989461168647
-0.04034423828125;-0.1541595458984375;-1.0057525634765625;0.029164277017116547;-0.02593332901597023;-0.003715642262250185
-0.04034423828125;-0.1541595458984375;-1.0057525634765625;0.029164277017116547;-0.02593332901597023;-0.003715642262250185
-0.04034423828125;-0.1541595458984375;-1.0057525634765625;0.029164277017116547;-0.02593332901597023;-0.003715642262250185
-0.04034423828125;-0.1541595458984375;-1.0057525634765625;0.029164277017116547;-0.02593332901597023;-0.003715642262250185
-0.04034423828125;-0.1541595458984375;-1.0057525634765625;0.029164277017116547;-0.02593332901597023;-0.003715642262250185
-0.0406341552734375;-0.1555633544921875;-1.0058441162109375;0.030358171090483665;-0.028098214417696;-0.004224572330713272
-0.0406341552734375;-0.1555633544921875;-1.0058441162109375;0.030358171090483665;-0.028098214417696;-0.004224572330713272
-0.0406341552734375;-0.1555633544921875;-1.0058441162109375;0.030358171090483665;-0.028098214417696;-0.004224572330713272
-0.0406341552734375;-0.1555633544921875;-1.0058441162109375;0.030358171090483665;-0.028098214417696;-0.004224572330713272
-0.0406341552734375;-0.1555633544921875;-1.0058441162109375;0.030358171090483665;-0.028098214417696;-0.004224572330713272
-0.0400390625;-0.1575775146484375;-1.00823974609375;0.03356621414422989;-0.02682788483798504;-0.006591856479644775
-0.0400390625;-0.1575775146484375;-1.00823974609375;0.03356621414422989;-0.02682788483798504;-0.006591856479644775
-0.0400390625;-0.1575775146484375;-1.00823974609375;0.03356621414422989;-0.02682788483798504;-0.006591856479644775
-0.0400390625;-0.1575775146484375;-1.00823974609375;0.03356621414422989;-0.02682788483798504;-0.006591856479644775
-0.0400390625;-0.1575775146484375;-1.00823974609375;0.03356621414422989;-0.02682788483798504;-0.006591856479644775
-0.03948974609375;-0.158905029296875;-1.0077972412109375;0.039206523448228836;-0.03105432167649269;-0.004032824654132128
-0.03948974609375;-0.158905029296875;-1.0077972412109375;0.039206523448228836;-0.03105432167649269;-0.004032824654132128
-0.03948974609375;-0.158905029296875;-1.0077972412109375;0.039206523448228836;-0.03105432167649269;-0.004032824654132128
-0.03948974609375;-0.158905029296875;-1.0077972412109375;0.039206523448228836;-0.03105432167649269;-0.004032824654132128
-0.03948974609375;-0.158905029296875;-1.0077972412109375;0.039206523448228836;-0.03105432167649269;-0.004032824654132128
-0.0392913818359375;-0.1591339111328125;-1.0076446533203125;0.04126328229904175;-0.028008198365569115;-0.0033902039285749197
-0.0392913818359375;-0.1591339111328125;-1.0076446533203125;0.04126328229904175;-0.028008198365569115;-0.0033902039285749197
-0.0392913818359375;-0.1591339111328125;-1.0076446533203125;0.04126328229904175;-0.028008198365569115;-0.0033902039285749197
-0.0392913818359375;-0.1591339111328125;-1.0076446533203125;0.04126328229904175;-0.028008198365569115;-0.0033902039285749197
-0.0392913818359375;-0.1591339111328125;-1.0076446533203125;0.04126328229904175;-0.028008198365569115;-0.0033902039285749197
-0.0396575927734375;-0.1593017578125;-1.0067596435546875;0.038546860218048096;-0.01817953586578369;-0.001746234716847539
-0.0396575927734375;-0.1593017578125;-1.0067596435546875;0.038546860218048096;-0.01817953586578369;-0.001746234716847539
-0.0396575927734375;-0.1593017578125;-1.0067596435546875;0.038546860218048096;-0.01817953586578369;-0.001746234716847539
-0.0396575927734375;-0.1593017578125;-1.0067596435546875;0.038546860218048096;-0.01817953586578369;-0.001746234716847539
-0.0396575927734375;-0.1593017578125;-1.0067596435546875;0.038546860218048096;-0.01817953586578369;-0.001746234716847539
-0.0401763916015625;-0.160003662109375;-1.0012054443359375;0.0343656949698925;-0.006970824208110571;0.0033563817851245403
-0.0401763916015625;-0.160003662109375;-1.0012054443359375;0.0343656949698925;-0.006970824208110571;0.0033563817851245403
-0.0401763916015625;-0.160003662109375;-1.0012054443359375;0.0343656949698925;-0.006970824208110571;0.0033563817851245403
-0.0401763916015625;-0.160003662109375;-1.0012054443359375;0.0343656949698925;-0.006970824208110571;0.0033563817851245403
-0.0401763916015625;-0.160003662109375;-1.0012054443359375;0.0343656949698925;-0.006970824208110571;0.0033563817851245403
-0.0404815673828125;-0.1601409912109375;-0.9968719482421875;0.025583390146493912;0.009721336886286736;0.0014532869681715965
-0.0404815673828125;-0.1601409912109375;-0.9968719482421875;0.025583390146493912;0.009721336886286736;0.0014532869681715965
-0.0404815673828125;-0.1601409912109375;-0.9968719482421875;0.025583390146493912;0.009721336886286736;0.0014532869681715965
-0.0404815673828125;-0.1601409912109375;-0.9968719482421875;0.025583390146493912;0.009721336886286736;0.0014532869681715965
-0.0404815673828125;-0.1601409912109375;-0.9968719482421875;0.025583390146493912;0.009721336886286736;0.0014532869681715965
-0.0402679443359375;-0.160430908203125;-0.997344970703125;0.012144014239311218;0.017127322033047676;0.0021201425697654486
-0.0402679443359375;-0.160430908203125;-0.997344970703125;0.012144014239311218;0.017127322033047676;0.0021201425697654486
-0.0402679443359375;-0.160430908203125;-0.997344970703125;0.012144014239311218;0.017127322033047676;0.0021201425697654486
-0.0402679443359375;-0.160430908203125;-0.997344970703125;0.012144014239311218;0.017127322033047676;0.0021201425697654486
-0.0402679443359375;-0.160430908203125;-0.997344970703125;0.012144014239311218;0.017127322033047676;0.0021201425697654486
-0.0395965576171875;-0.159912109375;-0.9999542236328125;-2.663161012605997e-06;0.016164589673280716;0.005373460240662098
-0.0395965576171875;-0.159912109375;-0.9999542236328125;-2.663161012605997e-06;0.016164589673280716;0.005373460240662098
-0.0395965576171875;-0.159912109375;-0.9999542236328125;-2.663161012605997e-06;0.016164589673280716;0.005373460240662098
-0.0395965576171875;-0.159912109375;-0.9999542236328125;-2.663161012605997e-06;0.016164589673280716;0.005373460240662098
-0.0395965576171875;-0.159912109375;-0.9999542236328125;-2.663161012605997e-06;0.016164589673280716;0.005373460240662098
-0.0381011962890625;-0.1584625244140625;-1.0035552978515625;-0.008440356701612473;0.008167648687958717;0.0026647590566426516
-0.0381011962890625;-0.1584625244140625;-1.0035552978515625;-0.008440356701612473;0.008167648687958717;0.0026647590566426516
-0.0381011962890625;-0.1584625244140625;-1.0035552978515625;-0.008440356701612473;0.008167648687958717;0.0026647590566426516
-0.0381011962890625;-0.1584625244140625;-1.0035552978515625;-0.008440356701612473;0.008167648687958717;0.0026647590566426516
-0.0381011962890625;-0.1584625244140625;-1.0035552978515625;-0.008440356701612473;0.008167648687958717;0.0026647590566426516
-0.037567138671875;-0.1589202880859375;-1.00628662109375;-0.011650530621409416;-0.0076187714003026485;0.005390504375100136
-0.037567138671875;-0.1589202880859375;-1.00628662109375;-0.011650530621409416;-0.0076187714003026485;0.005390504375100136
-0.037567138671875;-0.1589202880859375;-1.00628662109375;-0.011650530621409416;-0.0076187714003026485;0.005390504375100136
-0.037567138671875;-0.1589202880859375;-1.00628662109375;-0.011650530621409416;-0.0076187714003026485;0.005390504375100136
-0.037567138671875;-0.1589202880859375;-1.00628662109375;-0.011650530621409416;-0.0076187714003026485;0.005390504375100136
-0.036712646484375;-0.1589508056640625;-1.0067596435546875;-0.013087572529911995;-0.02484249882400036;0.005102616734802723
-0.036712646484375;-0.1589508056640625;-1.0067596435546875;-0.013087572529911995;-0.02484249882400036;0.005102616734802723
-0.036712646484375;-0.1589508056640625;-1.0067596435546875;-0.013087572529911995;-0.02484249882400036;0.005102616734802723
-0.036712646484375;-0.1589508056640625;-1.0067596435546875;-0.013087572529911995;-0.02484249882400036;0.005102616734802723
-0.036712646484375;-0.1589508056640625;-1.0067596435546875;-0.013087572529911995;-0.02484249882400036;0.005102616734802723
-0.036773681640625;-0.1569671630859375;-1.0066680908203125;-0.010733071714639664;-0.03567250818014145;0.005901831202208996
-0.036773681640625;-0.1569671630859375;-1.0066680908203125;-0.010733071714639664;-0.03567250818014145;0.005901831202208996
-0.036773681640625;-0.1569671630859375;-1.0066680908203125;-0.010733071714639664;-0.03567250818014145;0.005901831202208996
-0.036773681640625;-0.1569671630859375;-1.0066680908203125;-0.010733071714639664;-0.03567250818014145;0.005901831202208996
-0.036773681640625;-0.1569671630859375;-1.0066680908203125;-0.010733071714639664;-0.03567250818014145;0.005901831202208996
-0.03717041015625;-0.157196044921875;-1.0056304931640625;-0.009040899574756622;-0.041427332907915115;0.004284227266907692
-0.03717041015625;-0.157196044921875;-1.0056304931640625;-0.009040899574756622;-0.041427332907915115;0.004284227266907692
-0.03717041015625;-0.157196044921875;-1.0056304931640625;-0.009040899574756622;-0.041427332907915115;0.004284227266907692
-0.03717041015625;-0.157196044921875;-1.0056304931640625;-0.009040899574756622;-0.041427332907915115;0.004284227266907692
-0.03717041015625;-0.157196044921875;-1.0056304931640625;-0.009040899574756622;-0.041427332907915115;0.004284227266907692
-0.0377197265625;-0.1566314697265625;-1.004486083984375;-0.0019502328941598535;-0.03879399970173836;0.006114085204899311
-0.0377197265625;-0.1566314697265625;-1.004486083984375;-0.0019502328941598535;-0.03879399970173836;0.006114085204899311
-0.0377197265625;-0.1566314697265625;-1.004486083984375;-0.0019502328941598535;-0.03879399970173836;0.006114085204899311
-0.0377197265625;-0.1566314697265625;-1.004486083984375;-0.0019502328941598535;-0.03879399970173836;0.006114085204899311
-0.0377197265625;-0.1566314697265625;-1.004486083984375;-0.0019502328941598535;-0.03879399970173836;0.006114085204899311
-0.0366973876953125;-0.1564788818359375;-1.004486083984375;-0.000713993504177779;-0.035902608186006546;0.007518370170146227
-0.0366973876953125;-0.1564788818359375;-1.004486083984375;-0.000713993504177779;-0.035902608186006546;0.007518370170146227
-0.0366973876953125;-0.1564788818359375;-1.004486083984375;-0.000713993504177779;-0.035902608186006546;0.007518370170146227
-0.0366973876953125;-0.1564788818359375;-1.004486083984375;-0.000713993504177779;-0.035902608186006546;0.007518370170146227
-0.0366973876953125;-0.1564788818359375;-1.004486083984375;-0.000713993504177779;-0.035902608186006546;0.007518370170146227
-0.0373382568359375;-0.157073974609375;-1.00408935546875;0.005357214715331793;-0.03123222105205059;0.004701278172433376
-0.0373382568359375;-0.157073974609375;-1.00408935546875;0.005357214715331793;-0.03123222105205059;0.004701278172433376
-0.0373382568359375;-0.157073974609375;-1.00408935546875;0.005357214715331793;-0.03123222105205059;0.004701278172433376
-0.0373382568359375;-0.157073974609375;-1.00408935546875;0.005357214715331793;-0.03123222105205059;0.004701278172433376
-0.0373382568359375;-0.157073974609375;-1.00408935546875;0.005357214715331793;-0.03123222105205059;0.004701278172433376
-0.0389404296875;-0.1568450927734375;-1.0054473876953125;0.012348544783890247;-0.025890452787280083;0.00660384027287364
-0.0389404296875;-0.1568450927734375;-1.0054473876953125;0.012348544783890247;-0.025890452787280083;0.00660384027287364
-0.0389404296875;-0.1568450927734375;-1.0054473876953125;0.012348544783890247;-0.025890452787280083;0.00660384027287364
-0.0389404296875;-0.1568450927734375;-1.0054473876953125;0.012348544783890247;-0.025890452787280083;0.00660384027287364
-0.0389404296875;-0.1568450927734375;-1.0054473876953125;0.012348544783890247;-0.025890452787280083;0.00660384027287364
-0.0405426025390625;-0.1566314697265625;-1.005096435546875;0.014639396220445633;-0.025230787694454193;0.004918059334158897
-0.0405426025390625;-0.1566314697265625;-1.005096435546875;0.014639396220445633;-0.025230787694454193;0.004918059334158897
-0.0405426025390625;-0.1566314697265625;-1.005096435546875;0.014639396220445633;-0.025230787694454193;0.004918059334158897
-0.0405426025390625;-0.1566314697265625;-1.005096435546875;0.014639396220445633;-0.025230787694454193;0.004918059334158897
-0.0405426025390625;-0.1566314697265625;-1.005096435546875;0.014639396220445633;-0.025230787694454193;0.004918059334158897
-0.0418853759765625;-0.15594482421875;-1.0059967041015625;0.015933426097035408;-0.02407337725162506;0.004826979245990515
-0.0418853759765625;-0.15594482421875;-1.0059967041015625;0.015933426097035408;-0.02407337725162506;0.004826979245990515
-0.0418853759765625;-0.15594482421875;-1.0059967041015625;0.015933426097035408;-0.02407337725162506;0.004826979245990515
-0.0418853759765625;-0.15594482421875;-1.0059967041015625;0.015933426097035408;-0.02407337725162506;0.004826979245990515
-0.0418853759765625;-0.15594482421875;-1.0059967041015625;0.015933426097035408;-0.02407337725162506;0.004826979245990515
-0.042510986328125;-0.156158447265625;-1.0043182373046875;0.01948688179254532;-0.020505009219050407;0.005026184022426605
-0.042510986328125;-0.156158447265625;-1.0043182373046875;0.01948688179254532;-0.020505009219050407;0.005026184022426605
-0.042510986328125;-0.156158447265625;-1.0043182373046875;0.01948688179254532;-0.020505009219050407;0.005026184022426605
-0.042510986328125;-0.156158447265625;-1.0043182373046875;0.01948688179254532;-0.020505009219050407;0.005026184022426605
-0.042510986328125;-0.156158447265625;-1.0043182373046875;0.01948688179254532;-0.020505009219050407;0.005026184022426605
-0.0439605712890625;-0.155609130859375;-1.00250244140625;0.01930871605873108;-0.01901097595691681;0.0036876790691167116
-0.0439605712890625;-0.155609130859375;-1.00250244140625;0.01930871605873108;-0.01901097595691681;0.0036876790691167116
-0.0439605712890625;-0.155609130859375;-1.00250244140625;0.01930871605873108;-0.01901097595691681;0.0036876790691167116
-0.0439605712890625;-0.155609130859375;-1.00250244140625;0.01930871605873108;-0.01901097595691681;0.0036876790691167116
-0.0439605712890625;-0.155609130859375;-1.00250244140625;0.01930871605873108;-0.01901097595691681;0.0036876790691167116
-0.0448760986328125;-0.1557769775390625;-1.0028076171875;0.01996971294283867;-0.01401888020336628;0.0025297366082668304
-0.0448760986328125;-0.1557769775390625;-1.0028076171875;0.01996971294283867;-0.01401888020336628;0.0025297366082668304
-0.0448760986328125;-0.1557769775390625;-1.0028076171875;0.01996971294283867;-0.01401888020336628;0.0025297366082668304
-0.0448760986328125;-0.1557769775390625;-1.0028076171875;0.01996971294283867;-0.01401888020336628;0.0025297366082668304
-0.0448760986328125;-0.1557769775390625;-1.0028076171875;0.01996971294283867;-0.01401888020336628;0.0025297366082668304
-0.0455169677734375;-0.1561737060546875;-1.0008544921875;0.022650716826319695;-0.009465406648814678;0.0029401297215372324
-0.0455169677734375;-0.1561737060546875;-1.0008544921875;0.022650716826319695;-0.009465406648814678;0.0029401297215372324
-0.0455169677734375;-0.1561737060546875;-1.0008544921875;0.022650716826319695;-0.009465406648814678;0.0029401297215372324
-0.0455169677734375;-0.1561737060546875;-1.0008544921875;0.022650716826319695;-0.009465406648814678;0.0029401297215372324
-0.0455169677734375;-0.1561737060546875;-1.0008544921875;0.022650716826319695;-0.009465406648814678;0.0029401297215372324
-0.04541015625;-0.157318115234375;-1.0005340576171875;0.0219710785895586;-0.007899468764662743;0.001714010490104556
-0.04541015625;-0.157318115234375;-1.0005340576171875;0.0219710785895586;-0.007899468764662743;0.001714010490104556
-0.04541015625;-0.157318115234375;-1.0005340576171875;0.0219710785895586;-0.007899468764662743;0.001714010490104556
-0.04541015625;-0.157318115234375;-1.0005340576171875;0.0219710785895586;-0.007899468764662743;0.001714010490104556
-0.04541015625;-0.157318115234375;-1.0005340576171875;0.0219710785895586;-0.007899468764662743;0.001714010490104556
-0.0448455810546875;-0.158203125;-1.001708984375;0.023786555975675583;-0.0026205505710095167;-3.408846168895252e-05
-0.0448455810546875;-0.158203125;-1.001708984375;0.023786555975675583;-0.0026205505710095167;-3.408846168895252e-05
-0.0448455810546875;-0.158203125;-1.001708984375;0.023786555975675583;-0.0026205505710095167;-3.408846168895252e-05
-0.0448455810546875;-0.158203125;-1.001708984375;0.023786555975675583;-0.0026205505710095167;-3.408846168895252e-05
-0.0448455810546875;-0.158203125;-1.001708984375;0.023786555975675583;-0.0026205505710095167;-3.408846168895252e-05
-0.0452880859375;-0.1593475341796875;-1.0031585693359375;0.023556191474199295;0.006582801695913076;-0.0003909520455636084
-0.0452880859375;-0.1593475341796875;-1.0031585693359375;0.023556191474199295;0.006582801695913076;-0.0003909520455636084
-0.0452880859375;-0.1593475341796875;-1.0031585693359375;0.023556191474199295;0.006582801695913076;-0.0003909520455636084
-0.0452880859375;-0.1593475341796875;-1.0031585693359375;0.023556191474199295;0.006582801695913076;-0.0003909520455636084
-0.0452880859375;-0.1593475341796875;-1.0031585693359375;0.023556191474199295;0.006582801695913076;-0.0003909520455636084
-0.0434722900390625;-0.1602935791015625;-1.0023345947265625;0.019507920369505882;0.006345780100673437;0.000589091214351356
-0.0434722900390625;-0.1602935791015625;-1.0023345947265625;0.019507920369505882;0.006345780100673437;0.000589091214351356
-0.0434722900390625;-0.1602935791015625;-1.0023345947265625;0.019507920369505882;0.006345780100673437;0.000589091214351356
-0.0434722900390625;-0.1602935791015625;-1.0023345947265625;0.019507920369505882;0.006345780100673437;0.000589091214351356
-0.0434722900390625;-0.1602935791015625;-1.0023345947265625;0.019507920369505882;0.006345780100673437;0.000589091214351356
-0.04144287109375;-0.162384033203125;-1.003021240234375;0.017295632511377335;0.011522166430950165;0.0036213663406670094
-0.04144287109375;-0.162384033203125;-1.003021240234375;0.017295632511377335;0.011522166430950165;0.0036213663406670094
-0.04144287109375;-0.162384033203125;-1.003021240234375;0.017295632511377335;0.011522166430950165;0.0036213663406670094
-0.04144287109375;-0.162384033203125;-1.003021240234375;0.017295632511377335;0.011522166430950165;0.0036213663406670094
-0.04144287109375;-0.162384033203125;-1.003021240234375;0.017295632511377335;0.011522166430950165;0.0036213663406670094
-0.0412445068359375;-0.1646728515625;-1.00189208984375;0.017556356266140938;0.016413860023021698;0.0023148194886744022
-0.0412445068359375;-0.1646728515625;-1.00189208984375;0.017556356266140938;0.016413860023021698;0.0023148194886744022
-0.0412445068359375;-0.1646728515625;-1.00189208984375;0.017556356266140938;0.016413860023021698;0.0023148194886744022
-0.0412445068359375;-0.1646728515625;-1.00189208984375;0.017556356266140938;0.016413860023021698;0.0023148194886744022
-0.0412445068359375;-0.1646728515625;-1.00189208984375;0.017556356266140938;0.016413860023021698;0.0023148194886744022
-0.04058837890625;-0.1664886474609375;-1.0001220703125;0.009070460684597492;0.022124210372567177;0.0012950951931998134
-0.04058837890625;-0.1664886474609375;-1.0001220703125;0.009070460684597492;0.022124210372567177;0.0012950951931998134
-0.04058837890625;-0.1664886474609375;-1.0001220703125;0.009070460684597492;0.022124210372567177;0.0012950951931998134
-0.04058837890625;-0.1664886474609375;-1.0001220703125;0.009070460684597492;0.022124210372567177;0.0012950951931998134
-0.04058837890625;-0.1664886474609375;-1.0001220703125;0.009070460684597492;0.022124210372567177;0.0012950951931998134
-0.03955078125;-0.1668243408203125;-1.0010223388671875;0.001392300589941442;0.019703663885593414;0.0027454528026282787
-0.03955078125;-0.1668243408203125;-1.0010223388671875;0.001392300589941442;0.019703663885593414;0.0027454528026282787
-0.03955078125;-0.1668243408203125;-1.0010223388671875;0.001392300589941442;0.019703663885593414;0.0027454528026282787
-0.03955078125;-0.1668243408203125;-1.0010223388671875;0.001392300589941442;0.019703663885593414;0.0027454528026282787
-0.03955078125;-0.1668243408203125;-1.0010223388671875;0.001392300589941442;0.019703663885593414;0.0027454528026282787
-0.038787841796875;-0.1671905517578125;-1.001800537109375;-0.0054549528285861015;0.014610634185373783;0.0023158849216997623
-0.038787841796875;-0.1671905517578125;-1.001800537109375;-0.0054549528285861015;0.014610634185373783;0.0023158849216997623
-0.038787841796875;-0.1671905517578125;-1.001800537109375;-0.0054549528285861015;0.014610634185373783;0.0023158849216997623
-0.038787841796875;-0.1671905517578125;-1.001800537109375;-0.0054549528285861015;0.014610634185373783;0.0023158849216997623
-0.038787841796875;-0.1671905517578125;-1.001800537109375;-0.0054549528285861015;0.014610634185373783;0.0023158849216997623
-0.0383758544921875;-0.1664886474609375;-1.0037689208984375;-0.00893623661249876;0.005883188918232918;0.002960369922220707
-0.0383758544921875;-0.1664886474609375;-1.0037689208984375;-0.00893623661249876;0.005883188918232918;0.002960369922220707
-0.0383758544921875;-0.1664886474609375;-1.0037689208984375;-0.00893623661249876;0.005883188918232918;0.002960369922220707
-0.0383758544921875;-0.1664886474609375;-1.0037689208984375;-0.00893623661249876;0.005883188918232918;0.002960369922220707
-0.0383758544921875;-0.1664886474609375;-1.0037689208984375;-0.010714429430663586;-0.006773483939468861;0.002469549188390374
-0.0370941162109375;-0.1657257080078125;-1.008392333984375;-0.010714429430663586;-0.006773483939468861;0.002469549188390374
-0.0370941162109375;-0.1657257080078125;-1.008392333984375;-0.010714429430663586;-0.006773483939468861;0.002469549188390374
-0.0370941162109375;-0.1657257080078125;-1.008392333984375;-0.010714429430663586;-0.006773483939468861;0.002469549188390374
-0.0370941162109375;-0.1657257080078125;-1.008392333984375;-0.010714429430663586;-0.006773483939468861;0.002469549188390374
-0.0370941162109375;-0.1657257080078125;-1.008392333984375;-0.008273376151919365;-0.017526529729366302;0.0016013587592169642
-0.0364532470703125;-0.165985107421875;-1.010223388671875;-0.008273376151919365;-0.017526529729366302;0.0016013587592169642
-0.0364532470703125;-0.165985107421875;-1.010223388671875;-0.008273376151919365;-0.017526529729366302;0.0016013587592169642
-0.0364532470703125;-0.165985107421875;-1.010223388671875;-0.008273376151919365;-0.017526529729366302;0.0016013587592169642
-0.0364532470703125;-0.165985107421875;-1.010223388671875;-0.008273376151919365;-0.017526529729366302;0.0016013587592169642
-0.0364532470703125;-0.165985107421875;-1.010223388671875;-0.008652610704302788;-0.018431471660733223;0.0017856494523584843
-0.03656005859375;-0.16241455078125;-1.0075836181640625;-0.008652610704302788;-0.018431471660733223;0.0017856494523584843
-0.03656005859375;-0.16241455078125;-1.0075836181640625;-0.008652610704302788;-0.018431471660733223;0.0017856494523584843
-0.03656005859375;-0.16241455078125;-1.0075836181640625;-0.008652610704302788;-0.018431471660733223;0.0017856494523584843
-0.03656005859375;-0.16241455078125;-1.0075836181640625;-0.008652610704302788;-0.018431471660733223;0.0017856494523584843
-0.0368194580078125;-0.1604461669921875;-1.0058746337890625;-0.0031960594933480024;-0.02159450761973858;0.0031795480754226446
-0.0368194580078125;-0.1604461669921875;-1.0058746337890625;-0.0031960594933480024;-0.02159450761973858;0.0031795480754226446
-0.0368194580078125;-0.1604461669921875;-1.0058746337890625;-0.0031960594933480024;-0.02159450761973858;0.0031795480754226446
-0.0368194580078125;-0.1604461669921875;-1.0058746337890625;-0.0031960594933480024;-0.02159450761973858;0.0031795480754226446
-0.0368194580078125;-0.1604461669921875;-1.0058746337890625;-0.0031960594933480024;-0.02159450761973858;0.0031795480754226446
-0.0366363525390625;-0.15960693359375;-1.0054473876953125;-0.0015837819082662463;-0.01824025623500347;0.005546032916754484
-0.0366363525390625;-0.15960693359375;-1.0054473876953125;-0.0015837819082662463;-0.01824025623500347;0.005546032916754484
-0.0366363525390625;-0.15960693359375;-1.0054473876953125;-0.0015837819082662463;-0.01824025623500347;0.005546032916754484
-0.0366363525390625;-0.15960693359375;-1.0054473876953125;-0.0015837819082662463;-0.01824025623500347;0.005546032916754484
-0.0366363525390625;-0.15960693359375;-1.0054473876953125;-0.0015837819082662463;-0.01824025623500347;0.005546032916754484
-0.037628173828125;-0.157958984375;-1.0036468505859375;-0.005760150961577892;-0.01896223984658718;0.004091148264706135
-0.037628173828125;-0.157958984375;-1.0036468505859375;-0.005760150961577892;-0.01896223984658718;0.004091148264706135
-0.037628173828125;-0.157958984375;-1.0036468505859375;-0.005760150961577892;-0.01896223984658718;0.004091148264706135
-0.037628173828125;-0.157958984375;-1.0036468505859375;-0.005760150961577892;-0.01896223984658718;0.004091148264706135
-0.037628173828125;-0.157958984375;-1.0036468505859375;-0.005760150961577892;-0.01896223984658718;0.004091148264706135
-0.0374908447265625;-0.1573028564453125;-1.0018157958984375;-0.0033300165086984634;-0.019993947818875313;0.0046908920630812645
-0.0374908447265625;-0.1573028564453125;-1.0018157958984375;-0.0033300165086984634;-0.019993947818875313;0.0046908920630812645
-0.0374908447265625;-0.1573028564453125;-1.0018157958984375;-0.0033300165086984634;-0.019993947818875313;0.0046908920630812645
-0.0374908447265625;-0.1573028564453125;-1.0018157958984375;-0.0033300165086984634;-0.019993947818875313;0.0046908920630812645
-0.0374908447265625;-0.1573028564453125;-1.0018157958984375;-0.0033300165086984634;-0.019993947818875313;0.0046908920630812645
-0.0374908447265625;-0.1573028564453125;-1.0018157958984375;-0.0033300165086984634;-0.019993947818875313;0.0046908920630812645
-0.0372772216796875;-0.1566009521484375;-1.0010223388671875;-0.004819788970053196;-0.014643391594290733;0.0049337721429765224
-0.0372772216796875;-0.1566009521484375;-1.0010223388671875;-0.004819788970053196;-0.014643391594290733;0.0049337721429765224
-0.0372772216796875;-0.1566009521484375;-1.0010223388671875;-0.004819788970053196;-0.014643391594290733;0.0049337721429765224
-0.0372772216796875;-0.1566009521484375;-1.0010223388671875;-0.004819788970053196;-0.014643391594290733;0.0049337721429765224
-0.03875732421875;-0.1570892333984375;-0.999359130859375;-0.0057284594513475895;-0.01587616838514805;0.003073287894949317
-0.03875732421875;-0.1570892333984375;-0.999359130859375;-0.0057284594513475895;-0.01587616838514805;0.003073287894949317
-0.03875732421875;-0.1570892333984375;-0.999359130859375;-0.0057284594513475895;-0.01587616838514805;0.003073287894949317
-0.03875732421875;-0.1570892333984375;-0.999359130859375;-0.0057284594513475895;-0.01587616838514805;0.003073287894949317
-0.03875732421875;-0.1570892333984375;-0.999359130859375;-0.0057284594513475895;-0.01587616838514805;0.003073287894949317
-0.039764404296875;-0.15728759765625;-1.000457763671875;0.004609931726008654;-0.011511513963341713;0.005632852204144001
-0.039764404296875;-0.15728759765625;-1.000457763671875;0.004609931726008654;-0.011511513963341713;0.005632852204144001
-0.039764404296875;-0.15728759765625;-1.000457763671875;0.004609931726008654;-0.011511513963341713;0.005632852204144001
-0.039764404296875;-0.15728759765625;-1.000457763671875;0.004609931726008654;-0.011511513963341713;0.005632852204144001
-0.039764404296875;-0.15728759765625;-1.000457763671875;0.004609931726008654;-0.011511513963341713;0.005632852204144001
-0.0411224365234375;-0.1572265625;-1.0062103271484375;0.01563834771513939;-0.020686369389295578;0.0017925737192854285
-0.0411224365234375;-0.1572265625;-1.0062103271484375;0.01563834771513939;-0.020686369389295578;0.0017925737192854285
-0.0411224365234375;-0.1572265625;-1.0062103271484375;0.01563834771513939;-0.020686369389295578;0.0017925737192854285
-0.0411224365234375;-0.1572265625;-1.0062103271484375;0.01563834771513939;-0.020686369389295578;0.0017925737192854285
-0.0411224365234375;-0.1572265625;-1.0062103271484375;0.01563834771513939;-0.020686369389295578;0.0017925737192854285
-0.0439453125;-0.157562255859375;-1.0117034912109375;0.03194115310907364;-0.026322416961193085;-0.0031997880432754755
-0.0439453125;-0.157562255859375;-1.0117034912109375;0.03194115310907364;-0.026322416961193085;-0.0031997880432754755
-0.0439453125;-0.157562255859375;-1.0117034912109375;0.03194115310907364;-0.026322416961193085;-0.0031997880432754755
-0.0439453125;-0.157562255859375;-1.0117034912109375;0.03194115310907364;-0.026322416961193085;-0.0031997880432754755
-0.0439453125;-0.157562255859375;-1.0117034912109375;0.03194115310907364;-0.026322416961193085;-0.0031997880432754755
-0.046142578125;-0.158294677734375;-1.0171661376953125;0.04983226954936981;-0.0317603275179863;-0.002126534003764391
-0.046142578125;-0.158294677734375;-1.0171661376953125;0.04983226954936981;-0.0317603275179863;-0.002126534003764391
-0.046142578125;-0.158294677734375;-1.0171661376953125;0.04983226954936981;-0.0317603275179863;-0.002126534003764391
-0.046142578125;-0.158294677734375;-1.0171661376953125;0.04983226954936981;-0.0317603275179863;-0.002126534003764391
-0.046142578125;-0.158294677734375;-1.0171661376953125;0.04983226954936981;-0.0317603275179863;-0.002126534003764391
-0.0459747314453125;-0.16033935546875;-1.016204833984375;0.05560760200023651;-0.020501280203461647;-0.005191033706068993
-0.0459747314453125;-0.16033935546875;-1.016204833984375;0.05560760200023651;-0.020501280203461647;-0.005191033706068993
-0.0459747314453125;-0.16033935546875;-1.016204833984375;0.05560760200023651;-0.020501280203461647;-0.005191033706068993
-0.0459747314453125;-0.16033935546875;-1.016204833984375;0.05560760200023651;-0.020501280203461647;-0.005191033706068993
-0.0459747314453125;-0.16033935546875;-1.016204833984375;0.05560760200023651;-0.020501280203461647;-0.005191033706068993
-0.0458526611328125;-0.16107177734375;-1.003936767578125;0.04933452606201172;0.012810870073735714;-0.002037850907072425
-0.0458526611328125;-0.16107177734375;-1.003936767578125;0.04933452606201172;0.012810870073735714;-0.002037850907072425
-0.0458526611328125;-0.16107177734375;-1.003936767578125;0.04933452606201172;0.012810870073735714;-0.002037850907072425
-0.0458526611328125;-0.16107177734375;-1.003936767578125;0.04933452606201172;0.012810870073735714;-0.002037850907072425
-0.0458526611328125;-0.16107177734375;-1.003936767578125;0.04933452606201172;0.012810870073735714;-0.002037850907072425
-0.0455474853515625;-0.161712646484375;-0.9933319091796875;0.028677184134721756;0.0496320016682148;0.0041065942496061325
-0.0455474853515625;-0.161712646484375;-0.9933319091796875;0.028677184134721756;0.0496320016682148;0.0041065942496061325
-0.0455474853515625;-0.161712646484375;-0.9933319091796875;0.028677184134721756;0.0496320016682148;0.0041065942496061325
-0.0455474853515625;-0.161712646484375;-0.9933319091796875;0.028677184134721756;0.0496320016682148;0.0041065942496061325
-0.0455474853515625;-0.161712646484375;-0.9933319091796875;0.028677184134721756;0.0496320016682148;0.0041065942496061325
-0.04461669921875;-0.163604736328125;-0.988250732421875;0.0017931063193827868;0.07031144946813583;0.005143363028764725
-0.04461669921875;-0.163604736328125;-0.988250732421875;0.0017931063193827868;0.07031144946813583;0.005143363028764725
-0.04461669921875;-0.163604736328125;-0.988250732421875;0.0017931063193827868;0.07031144946813583;0.005143363028764725
-0.04461669921875;-0.163604736328125;-0.988250732421875;0.0017931063193827868;0.07031144946813583;0.005143363028764725
-0.04461669921875;-0.163604736328125;-0.988250732421875;0.0017931063193827868;0.07031144946813583;0.005143363028764725
-0.0438690185546875;-0.163238525390625;-0.9901275634765625;-0.0242582019418478;0.07406757026910782;0.00806405209004879
-0.0438690185546875;-0.163238525390625;-0.9901275634765625;-0.0242582019418478;0.07406757026910782;0.00806405209004879
-0.0438690185546875;-0.163238525390625;-0.9901275634765625;-0.0242582019418478;0.07406757026910782;0.00806405209004879
-0.0438690185546875;-0.163238525390625;-0.9901275634765625;-0.0242582019418478;0.07406757026910782;0.00806405209004879
-0.0438690185546875;-0.163238525390625;-0.9901275634765625;-0.0242582019418478;0.07406757026910782;0.00806405209004879
-0.0424652099609375;-0.16168212890625;-0.9940643310546875;-0.0457853302359581;0.06010834500193596;0.006042978726327419
-0.0424652099609375;-0.16168212890625;-0.9940643310546875;-0.0457853302359581;0.06010834500193596;0.006042978726327419
-0.0424652099609375;-0.16168212890625;-0.9940643310546875;-0.0457853302359581;0.06010834500193596;0.006042978726327419
-0.0424652099609375;-0.16168212890625;-0.9940643310546875;-0.0457853302359581;0.06010834500193596;0.006042978726327419
-0.0424652099609375;-0.16168212890625;-0.9940643310546875;-0.0457853302359581;0.06010834500193596;0.006042978726327419
-0.0418701171875;-0.15863037109375;-0.99908447265625;-0.05848914384841919;0.04219752177596092;0.005844573490321636
-0.0418701171875;-0.15863037109375;-0.99908447265625;-0.05848914384841919;0.04219752177596092;0.005844573490321636
-0.0418701171875;-0.15863037109375;-0.99908447265625;-0.05848914384841919;0.04219752177596092;0.005844573490321636
-0.0418701171875;-0.15863037109375;-0.99908447265625;-0.05848914384841919;0.04219752177596092;0.005844573490321636
-0.0418701171875;-0.15863037109375;-0.99908447265625;-0.05848914384841919;0.04219752177596092;0.005844573490321636
-0.0420379638671875;-0.156097412109375;-1.003631591796875;-0.06557820737361908;0.029770944267511368;0.0075548551976680756
-0.0420379638671875;-0.156097412109375;-1.003631591796875;-0.06557820737361908;0.029770944267511368;0.0075548551976680756
-0.0420379638671875;-0.156097412109375;-1.003631591796875;-0.06557820737361908;0.029770944267511368;0.0075548551976680756
-0.0420379638671875;-0.156097412109375;-1.003631591796875;-0.06557820737361908;0.029770944267511368;0.0075548551976680756
-0.0420379638671875;-0.156097412109375;-1.003631591796875;-0.06557820737361908;0.029770944267511368;0.0075548551976680756
-0.0413818359375;-0.1554718017578125;-1.008697509765625;-0.06905390322208405;0.03934474289417267;0.0026146916206926107
-0.0413818359375;-0.1554718017578125;-1.008697509765625;-0.06905390322208405;0.03934474289417267;0.0026146916206926107
-0.0413818359375;-0.1554718017578125;-1.008697509765625;-0.06905390322208405;0.03934474289417267;0.0026146916206926107
-0.0413818359375;-0.1554718017578125;-1.008697509765625;-0.06905390322208405;0.03934474289417267;0.0026146916206926107
-0.0413818359375;-0.1554718017578125;-1.008697509765625;-0.06905390322208405;0.03934474289417267;0.0026146916206926107
-0.042999267578125;-0.15765380859375;-1.006500244140625;-0.07220282405614853;0.05553223565220833;-0.0027710190042853355
-0.042999267578125;-0.15765380859375;-1.006500244140625;-0.07220282405614853;0.05553223565220833;-0.0027710190042853355
-0.042999267578125;-0.15765380859375;-1.006500244140625;-0.07220282405614853;0.05553223565220833;-0.0027710190042853355
-0.042999267578125;-0.15765380859375;-1.006500244140625;-0.07220282405614853;0.05553223565220833;-0.0027710190042853355
-0.042999267578125;-0.15765380859375;-1.006500244140625;-0.07220282405614853;0.05553223565220833;-0.0027710190042853355
-0.0426177978515625;-0.161407470703125;-1.006072998046875;-0.07034127414226532;0.07694564759731293;-0.0027321369852870703
-0.0426177978515625;-0.161407470703125;-1.006072998046875;-0.07034127414226532;0.07694564759731293;-0.0027321369852870703
-0.0426177978515625;-0.161407470703125;-1.006072998046875;-0.07034127414226532;0.07694564759731293;-0.0027321369852870703
-0.0426177978515625;-0.161407470703125;-1.006072998046875;-0.07034127414226532;0.07694564759731293;-0.0027321369852870703
-0.0426177978515625;-0.161407470703125;-1.006072998046875;-0.07034127414226532;0.07694564759731293;-0.0027321369852870703
-0.0401611328125;-0.16357421875;-1.0131378173828125;-0.05865585803985596;0.08203867822885513;-0.00424268189817667
-0.0401611328125;-0.16357421875;-1.0131378173828125;-0.05865585803985596;0.08203867822885513;-0.00424268189817667
-0.0401611328125;-0.16357421875;-1.0131378173828125;-0.05865585803985596;0.08203867822885513;-0.00424268189817667
-0.0401611328125;-0.16357421875;-1.0131378173828125;-0.05865585803985596;0.08203867822885513;-0.00424268189817667
-0.0401611328125;-0.16357421875;-1.0131378173828125;-0.05865585803985596;0.08203867822885513;-0.00424268189817667
-0.0373992919921875;-0.1659393310546875;-1.024139404296875;-0.043167710304260254;0.07559036463499069;-0.001121457084082067
-0.0373992919921875;-0.1659393310546875;-1.024139404296875;-0.043167710304260254;0.07559036463499069;-0.001121457084082067
-0.0373992919921875;-0.1659393310546875;-1.024139404296875;-0.043167710304260254;0.07559036463499069;-0.001121457084082067
-0.0373992919921875;-0.1659393310546875;-1.024139404296875;-0.043167710304260254;0.07559036463499069;-0.001121457084082067
-0.0373992919921875;-0.1659393310546875;-1.024139404296875;-0.043167710304260254;0.07559036463499069;-0.001121457084082067
-0.0336761474609375;-0.166595458984375;-1.0289154052734375;-0.023247798904776573;0.06546928733587265;0.003466104157269001
-0.0336761474609375;-0.166595458984375;-1.0289154052734375;-0.023247798904776573;0.06546928733587265;0.003466104157269001
-0.0336761474609375;-0.166595458984375;-1.0289154052734375;-0.023247798904776573;0.06546928733587265;0.003466104157269001
-0.0336761474609375;-0.166595458984375;-1.0289154052734375;-0.023247798904776573;0.06546928733587265;0.003466104157269001
-0.0336761474609375;-0.166595458984375;-1.0289154052734375;-0.023247798904776573;0.06546928733587265;0.003466104157269001
-0.032012939453125;-0.166839599609375;-1.0229339599609375;-0.014929414726793766;0.0629800334572792;0.008281898684799671
-0.032012939453125;-0.166839599609375;-1.0229339599609375;-0.014929414726793766;0.0629800334572792;0.008281898684799671
-0.032012939453125;-0.166839599609375;-1.0229339599609375;-0.014929414726793766;0.0629800334572792;0.008281898684799671
-0.032012939453125;-0.166839599609375;-1.0229339599609375;-0.014929414726793766;0.0629800334572792;0.008281898684799671
-0.032012939453125;-0.166839599609375;-1.0229339599609375;-0.014929414726793766;0.0629800334572792;0.008281898684799671
-0.03277587890625;-0.167694091796875;-1.0097808837890625;-0.018370218575000763;0.0659228265285492;0.008404670283198357
-0.03277587890625;-0.167694091796875;-1.0097808837890625;-0.018370218575000763;0.0659228265285492;0.008404670283198357
-0.03277587890625;-0.167694091796875;-1.0097808837890625;-0.018370218575000763;0.0659228265285492;0.008404670283198357
-0.03277587890625;-0.167694091796875;-1.0097808837890625;-0.018370218575000763;0.0659228265285492;0.008404670283198357
-0.03277587890625;-0.167694091796875;-1.0097808837890625;-0.018370218575000763;0.0659228265285492;0.008404670283198357
-0.03338623046875;-0.1690216064453125;-0.999267578125;-0.028989840298891068;0.0681454986333847;0.00929443258792162
-0.03338623046875;-0.1690216064453125;-0.999267578125;-0.028989840298891068;0.0681454986333847;0.00929443258792162
-0.03338623046875;-0.1690216064453125;-0.999267578125;-0.028989840298891068;0.0681454986333847;0.00929443258792162
-0.03338623046875;-0.1690216064453125;-0.999267578125;-0.028989840298891068;0.0681454986333847;0.00929443258792162
-0.03338623046875;-0.1690216064453125;-0.999267578125;-0.028989840298891068;0.0681454986333847;0.00929443258792162
-0.0343170166015625;-0.1648101806640625;-0.9931793212890625;-0.04307103902101517;0.07141559571027756;0.011946141719818115
-0.0343170166015625;-0.1648101806640625;-0.9931793212890625;-0.04307103902101517;0.07141559571027756;0.011946141719818115
-0.0343170166015625;-0.1648101806640625;-0.9931793212890625;-0.04307103902101517;0.07141559571027756;0.011946141719818115
-0.0343170166015625;-0.1648101806640625;-0.9931793212890625;-0.04307103902101517;0.07141559571027756;0.011946141719818115
-0.0343170166015625;-0.1648101806640625;-0.9931793212890625;-0.04307103902101517;0.07141559571027756;0.011946141719818115
-0.035186767578125;-0.1609954833984375;-0.9908294677734375;-0.0625600516796112;0.06397392600774765;0.011517639271914959
-0.035186767578125;-0.1609954833984375;-0.9908294677734375;-0.0625600516796112;0.06397392600774765;0.011517639271914959
-0.035186767578125;-0.1609954833984375;-0.9908294677734375;-0.0625600516796112;0.06397392600774765;0.011517639271914959
-0.035186767578125;-0.1609954833984375;-0.9908294677734375;-0.0625600516796112;0.06397392600774765;0.011517639271914959
-0.035186767578125;-0.1609954833984375;-0.9908294677734375;-0.0625600516796112;0.06397392600774765;0.011517639271914959
-0.03375244140625;-0.154541015625;-0.9922637939453125;-0.07686468958854675;0.04826712980866432;0.011186608113348484
-0.03375244140625;-0.154541015625;-0.9922637939453125;-0.07686468958854675;0.04826712980866432;0.011186608113348484
-0.03375244140625;-0.154541015625;-0.9922637939453125;-0.07686468958854675;0.04826712980866432;0.011186608113348484
-0.03375244140625;-0.154541015625;-0.9922637939453125;-0.07686468958854675;0.04826712980866432;0.011186608113348484
-0.03375244140625;-0.154541015625;-0.9922637939453125;-0.07686468958854675;0.04826712980866432;0.011186608113348484
-0.0313720703125;-0.148681640625;-0.99554443359375;-0.0880369171500206;0.0341758131980896;0.010845190845429897
-0.0313720703125;-0.148681640625;-0.99554443359375;-0.0880369171500206;0.0341758131980896;0.010845190845429897
-0.0313720703125;-0.148681640625;-0.99554443359375;-0.0880369171500206;0.0341758131980896;0.010845190845429897
-0.0313720703125;-0.148681640625;-0.99554443359375;-0.0880369171500206;0.0341758131980896;0.010845190845429897
-0.0313720703125;-0.148681640625;-0.99554443359375;-0.0880369171500206;0.0341758131980896;0.010845190845429897
-0.030487060546875;-0.145660400390625;-1.00054931640625;-0.09044920653104782;0.013110741972923279;0.01227237842977047
-0.030487060546875;-0.145660400390625;-1.00054931640625;-0.09044920653104782;0.013110741972923279;0.01227237842977047
-0.030487060546875;-0.145660400390625;-1.00054931640625;-0.09044920653104782;0.013110741972923279;0.01227237842977047
-0.030487060546875;-0.145660400390625;-1.00054931640625;-0.09044920653104782;0.013110741972923279;0.01227237842977047
-0.030487060546875;-0.145660400390625;-1.00054931640625;-0.09044920653104782;0.013110741972923279;0.01227237842977047
-0.0304107666015625;-0.14312744140625;-1.004852294921875;-0.08402220159769058;0.006748982705175877;0.009929596446454525
-0.0304107666015625;-0.14312744140625;-1.004852294921875;-0.08402220159769058;0.006748982705175877;0.009929596446454525
-0.0304107666015625;-0.14312744140625;-1.004852294921875;-0.08402220159769058;0.006748982705175877;0.009929596446454525
-0.0304107666015625;-0.14312744140625;-1.004852294921875;-0.08402220159769058;0.006748982705175877;0.009929596446454525
-0.0304107666015625;-0.14312744140625;-1.004852294921875;-0.08402220159769058;0.006748982705175877;0.009929596446454525
-0.0311431884765625;-0.1419219970703125;-1.00909423828125;-0.0710693821310997;-0.0007547398563474417;0.007964715361595154
-0.0311431884765625;-0.1419219970703125;-1.00909423828125;-0.0710693821310997;-0.0007547398563474417;0.007964715361595154
-0.0311431884765625;-0.1419219970703125;-1.00909423828125;-0.0710693821310997;-0.0007547398563474417;0.007964715361595154
-0.0311431884765625;-0.1419219970703125;-1.00909423828125;-0.0710693821310997;-0.0007547398563474417;0.007964715361595154
-0.0311431884765625;-0.1419219970703125;-1.00909423828125;-0.0710693821310997;-0.0007547398563474417;0.007964715361595154
-0.0335693359375;-0.14013671875;-1.011932373046875;-0.05427655577659607;-0.00039254993316717446;0.008125037886202335
-0.0335693359375;-0.14013671875;-1.011932373046875;-0.05427655577659607;-0.00039254993316717446;0.008125037886202335
-0.0335693359375;-0.14013671875;-1.011932373046875;-0.05427655577659607;-0.00039254993316717446;0.008125037886202335
-0.0335693359375;-0.14013671875;-1.011932373046875;-0.05427655577659607;-0.00039254993316717446;0.008125037886202335
-0.0335693359375;-0.14013671875;-1.011932373046875;-0.05427655577659607;-0.00039254993316717446;0.008125037886202335
-0.033782958984375;-0.1420135498046875;-1.01409912109375;-0.0357353612780571;0.011138671077787876;0.006309028714895248
-0.033782958984375;-0.1420135498046875;-1.01409912109375;-0.0357353612780571;0.011138671077787876;0.006309028714895248
-0.033782958984375;-0.1420135498046875;-1.01409912109375;-0.0357353612780571;0.011138671077787876;0.006309028714895248
-0.033782958984375;-0.1420135498046875;-1.01409912109375;-0.0357353612780571;0.011138671077787876;0.006309028714895248
-0.033782958984375;-0.1420135498046875;-1.01409912109375;-0.02298281341791153;0.021695708855986595;0.00740278884768486
-0.0338897705078125;-0.14532470703125;-1.0135955810546875;-0.02298281341791153;0.021695708855986595;0.00740278884768486
-0.0338897705078125;-0.14532470703125;-1.0135955810546875;-0.02298281341791153;0.021695708855986595;0.00740278884768486
-0.0338897705078125;-0.14532470703125;-1.0135955810546875;-0.02298281341791153;0.021695708855986595;0.00740278884768486
-0.0338897705078125;-0.14532470703125;-1.0135955810546875;-0.02298281341791153;0.021695708855986595;0.00740278884768486
-0.0338897705078125;-0.14532470703125;-1.0135955810546875;-0.02298281341791153;0.021695708855986595;0.00740278884768486
-0.0336456298828125;-0.1480255126953125;-1.0105438232421875;-0.014435664750635624;0.038360703736543655;0.0052363071590662
-0.0336456298828125;-0.1480255126953125;-1.0105438232421875;-0.014435664750635624;0.038360703736543655;0.0052363071590662
-0.0336456298828125;-0.1480255126953125;-1.0105438232421875;-0.014435664750635624;0.038360703736543655;0.0052363071590662
-0.0336456298828125;-0.1480255126953125;-1.0105438232421875;-0.014435664750635624;0.038360703736543655;0.0052363071590662
-0.0336456298828125;-0.1480255126953125;-1.0105438232421875;-0.018880214542150497;0.051838163286447525;-1.1451592399680521e-05
-0.0308685302734375;-0.1521453857421875;-1.0046234130859375;-0.018880214542150497;0.051838163286447525;-1.1451592399680521e-05
-0.0308685302734375;-0.1521453857421875;-1.0046234130859375;-0.018880214542150497;0.051838163286447525;-1.1451592399680521e-05
-0.0308685302734375;-0.1521453857421875;-1.0046234130859375;-0.018880214542150497;0.051838163286447525;-1.1451592399680521e-05
-0.0308685302734375;-0.1521453857421875;-1.0046234130859375;-0.018880214542150497;0.051838163286447525;-1.1451592399680521e-05
-0.0308685302734375;-0.1521453857421875;-1.0046234130859375;-0.02653041109442711;0.06214752793312073;0.00042557314736768603
-0.0284271240234375;-0.1560516357421875;-1.0003814697265625;-0.02653041109442711;0.06214752793312073;0.00042557314736768603
-0.0284271240234375;-0.1560516357421875;-1.0003814697265625;-0.02653041109442711;0.06214752793312073;0.00042557314736768603
-0.0284271240234375;-0.1560516357421875;-1.0003814697265625;-0.02653041109442711;0.06214752793312073;0.00042557314736768603
-0.0284271240234375;-0.1560516357421875;-1.0003814697265625;-0.02653041109442711;0.06214752793312073;0.00042557314736768603
-0.0284271240234375;-0.1560516357421875;-1.0003814697265625;-0.02653041109442711;0.06214752793312073;0.00042557314736768603
-0.0278778076171875;-0.157440185546875;-0.9974365234375;-0.038125813007354736;0.06481148302555084;-0.00025220136740244925
-0.0278778076171875;-0.157440185546875;-0.9974365234375;-0.038125813007354736;0.06481148302555084;-0.00025220136740244925
-0.0278778076171875;-0.157440185546875;-0.9974365234375;-0.038125813007354736;0.06481148302555084;-0.00025220136740244925
-0.0278778076171875;-0.157440185546875;-0.9974365234375;-0.038125813007354736;0.06481148302555084;-0.00025220136740244925
-0.0278778076171875;-0.157440185546875;-0.9974365234375;-0.052327387034893036;0.058280348777770996;-0.001702026231214404
-0.02691650390625;-0.1583404541015625;-0.9962310791015625;-0.052327387034893036;0.058280348777770996;-0.001702026231214404
-0.02691650390625;-0.1583404541015625;-0.9962310791015625;-0.052327387034893036;0.058280348777770996;-0.001702026231214404
-0.02691650390625;-0.1583404541015625;-0.9962310791015625;-0.052327387034893036;0.058280348777770996;-0.001702026231214404
-0.02691650390625;-0.1583404541015625;-0.9962310791015625;-0.052327387034893036;0.058280348777770996;-0.001702026231214404
-0.02471923828125;-0.1566925048828125;-0.994873046875;-0.061153899878263474;0.05053454637527466;-0.0038780951872467995
-0.02471923828125;-0.1566925048828125;-0.994873046875;-0.061153899878263474;0.05053454637527466;-0.0038780951872467995
-0.02471923828125;-0.1566925048828125;-0.994873046875;-0.061153899878263474;0.05053454637527466;-0.0038780951872467995
-0.02471923828125;-0.1566925048828125;-0.994873046875;-0.061153899878263474;0.05053454637527466;-0.0038780951872467995
-0.02471923828125;-0.1566925048828125;-0.994873046875;-0.061153899878263474;0.05053454637527466;-0.0038780951872467995
-0.0236663818359375;-0.1556396484375;-0.995361328125;-0.07050159573554993;0.04639173299074173;0.002127599436789751
-0.0236663818359375;-0.1556396484375;-0.995361328125;-0.07050159573554993;0.04639173299074173;0.002127599436789751
-0.0236663818359375;-0.1556396484375;-0.995361328125;-0.07050159573554993;0.04639173299074173;0.002127599436789751
-0.0236663818359375;-0.1556396484375;-0.995361328125;-0.07050159573554993;0.04639173299074173;0.002127599436789751
-0.0236663818359375;-0.1556396484375;-0.995361328125;-0.07050159573554993;0.04639173299074173;0.002127599436789751
-0.0230712890625;-0.15240478515625;-0.9967041015625;-0.07776803523302078;0.040285903960466385;0.0023667511995881796
-0.0230712890625;-0.15240478515625;-0.9967041015625;-0.07776803523302078;0.040285903960466385;0.0023667511995881796
-0.0230712890625;-0.15240478515625;-0.9967041015625;-0.07776803523302078;0.040285903960466385;0.0023667511995881796
-0.0230712890625;-0.15240478515625;-0.9967041015625;-0.07776803523302078;0.040285903960466385;0.0023667511995881796
-0.0230712890625;-0.15240478515625;-0.9967041015625;-0.07776803523302078;0.040285903960466385;0.0023667511995881796
-0.0240020751953125;-0.149505615234375;-0.9962921142578125;-0.08285866677761078;0.03647678345441818;0.002755572786554694
-0.0240020751953125;-0.149505615234375;-0.9962921142578125;-0.08285866677761078;0.03647678345441818;0.002755572786554694
-0.0240020751953125;-0.149505615234375;-0.9962921142578125;-0.08285866677761078;0.03647678345441818;0.002755572786554694
-0.0240020751953125;-0.149505615234375;-0.9962921142578125;-0.08285866677761078;0.03647678345441818;0.002755572786554694
-0.0240020751953125;-0.149505615234375;-0.9962921142578125;-0.08285866677761078;0.03647678345441818;0.002755572786554694
-0.024871826171875;-0.1472015380859375;-0.9961395263671875;-0.0856456607580185;0.03755190223455429;0.0013512879377231002
-0.024871826171875;-0.1472015380859375;-0.9961395263671875;-0.0856456607580185;0.03755190223455429;0.0013512879377231002
