Acell X;Acell Y;Acell Z;Gyro X;Gyro Y;Gyro Z

-0.077728271484375;-0.1346435546875;-0.998870849609375;-0.009525860659778118;0.08964812755584717;0.0023220102302730083
-0.077728271484375;-0.1346435546875;-0.998870849609375;-0.009525860659778118;0.08964812755584717;0.0023220102302730083
-0.0703277587890625;-0.126953125;-0.9931488037109375;-0.039628636091947556;0.03531218320131302;0.0011113371001556516
-0.0703277587890625;-0.126953125;-0.9931488037109375;-0.039628636091947556;0.03531218320131302;0.0011113371001556516
-0.0703277587890625;-0.126953125;-0.9931488037109375;-0.039628636091947556;0.03531218320131302;0.0011113371001556516
-0.0703277587890625;-0.126953125;-0.9931488037109375;-0.039628636091947556;0.03531218320131302;0.0011113371001556516
-0.0703277587890625;-0.126953125;-0.9931488037109375;-0.039628636091947556;0.03531218320131302;0.0011113371001556516
-0.0703277587890625;-0.126953125;-0.9931488037109375;-0.06525623798370361;-0.015451926738023758;0.004244545940309763
-0.072479248046875;-0.12799072265625;-0.9886016845703125;-0.06525623798370361;-0.015451926738023758;0.004244545940309763
-0.072479248046875;-0.12799072265625;-0.9886016845703125;-0.06525623798370361;-0.015451926738023758;0.004244545940309763
-0.072479248046875;-0.12799072265625;-0.9886016845703125;-0.06525623798370361;-0.015451926738023758;0.004244545940309763
-0.072479248046875;-0.12799072265625;-0.9886016845703125;-0.06525623798370361;-0.015451926738023758;0.004244545940309763
-0.072479248046875;-0.12799072265625;-0.9886016845703125;-0.07978910207748413;-0.04496294632554054;0.004288488067686558
-0.073822021484375;-0.1286468505859375;-0.986907958984375;-0.07978910207748413;-0.04496294632554054;0.004288488067686558
-0.073822021484375;-0.1286468505859375;-0.986907958984375;-0.07978910207748413;-0.04496294632554054;0.004288488067686558
-0.073822021484375;-0.1286468505859375;-0.986907958984375;-0.07978910207748413;-0.04496294632554054;0.004288488067686558
-0.073822021484375;-0.1286468505859375;-0.986907958984375;-0.07978910207748413;-0.04496294632554054;0.004288488067686558
-0.07696533203125;-0.1282501220703125;-0.988525390625;-0.07872223854064941;-0.04765753448009491;0.0016844493802636862
-0.07696533203125;-0.1282501220703125;-0.988525390625;-0.07872223854064941;-0.04765753448009491;0.0016844493802636862
-0.07696533203125;-0.1282501220703125;-0.988525390625;-0.07872223854064941;-0.04765753448009491;0.0016844493802636862
-0.07696533203125;-0.1282501220703125;-0.988525390625;-0.07872223854064941;-0.04765753448009491;0.0016844493802636862
-0.07696533203125;-0.1282501220703125;-0.988525390625;-0.07872223854064941;-0.04765753448009491;0.0016844493802636862
-0.0788421630859375;-0.1278076171875;-0.9921112060546875;-0.07872223854064941;-0.04765753448009491;0.0016844493802636862
-0.0788421630859375;-0.1278076171875;-0.9921112060546875;-0.06777292490005493;-0.044731251895427704;-0.001079645473510027
-0.0788421630859375;-0.1278076171875;-0.9921112060546875;-0.06777292490005493;-0.044731251895427704;-0.001079645473510027
-0.0788421630859375;-0.1278076171875;-0.9921112060546875;-0.06777292490005493;-0.044731251895427704;-0.001079645473510027
-0.0788421630859375;-0.1278076171875;-0.9921112060546875;-0.06777292490005493;-0.044731251895427704;-0.001079645473510027
-0.0799407958984375;-0.1259307861328125;-0.9968414306640625;-0.04466600343585014;-0.029687320813536644;0.0024562333710491657
-0.0799407958984375;-0.1259307861328125;-0.9968414306640625;-0.04466600343585014;-0.029687320813536644;0.0024562333710491657
-0.0799407958984375;-0.1259307861328125;-0.9968414306640625;-0.04466600343585014;-0.029687320813536644;0.0024562333710491657
-0.0799407958984375;-0.1259307861328125;-0.9968414306640625;-0.04466600343585014;-0.029687320813536644;0.0024562333710491657
-0.0799407958984375;-0.1259307861328125;-0.9968414306640625;-0.04466600343585014;-0.029687320813536644;0.0024562333710491657
-0.080047607421875;-0.1253814697265625;-1.0006103515625;-0.01582476869225502;-0.02401665225625038;0.0028727517928928137
-0.080047607421875;-0.1253814697265625;-1.0006103515625;-0.01582476869225502;-0.02401665225625038;0.0028727517928928137
-0.080047607421875;-0.1253814697265625;-1.0006103515625;-0.01582476869225502;-0.02401665225625038;0.0028727517928928137
-0.080047607421875;-0.1253814697265625;-1.0006103515625;-0.01582476869225502;-0.02401665225625038;0.0028727517928928137
-0.080047607421875;-0.1253814697265625;-1.0006103515625;-0.01582476869225502;-0.02401665225625038;0.0028727517928928137
-0.080047607421875;-0.1253814697265625;-1.0006103515625;0.014181332662701607;-0.02383236214518547;-0.00032623723382130265
-0.07830810546875;-0.126373291015625;-1.003997802734375;0.014181332662701607;-0.02383236214518547;-0.00032623723382130265
-0.07830810546875;-0.126373291015625;-1.003997802734375;0.014181332662701607;-0.02383236214518547;-0.00032623723382130265
-0.07830810546875;-0.126373291015625;-1.003997802734375;0.014181332662701607;-0.02383236214518547;-0.00032623723382130265
-0.07830810546875;-0.126373291015625;-1.003997802734375;0.014181332662701607;-0.02383236214518547;-0.00032623723382130265
-0.077545166015625;-0.128204345703125;-1.00738525390625;0.04343242943286896;-0.021809957921504974;-0.00025486451340839267
-0.077545166015625;-0.128204345703125;-1.00738525390625;0.04343242943286896;-0.021809957921504974;-0.00025486451340839267
-0.077545166015625;-0.128204345703125;-1.00738525390625;0.04343242943286896;-0.021809957921504974;-0.00025486451340839267
-0.077545166015625;-0.128204345703125;-1.00738525390625;0.04343242943286896;-0.021809957921504974;-0.00025486451340839267
-0.077545166015625;-0.128204345703125;-1.00738525390625;0.04343242943286896;-0.021809957921504974;-0.00025486451340839267
-0.0766143798828125;-0.1290740966796875;-1.009613037109375;0.06474863737821579;-0.026030002161860466;0.001891909632831812
-0.0766143798828125;-0.1290740966796875;-1.009613037109375;0.06474863737821579;-0.026030002161860466;0.001891909632831812
-0.0766143798828125;-0.1290740966796875;-1.009613037109375;0.06474863737821579;-0.026030002161860466;0.001891909632831812
-0.0766143798828125;-0.1290740966796875;-1.009613037109375;0.06474863737821579;-0.026030002161860466;0.001891909632831812
-0.0766143798828125;-0.1290740966796875;-1.009613037109375;0.06474863737821579;-0.026030002161860466;0.001891909632831812
-0.076171875;-0.13079833984375;-1.006805419921875;0.07558157294988632;-0.020734040066599846;0.0023576964158564806
-0.076171875;-0.13079833984375;-1.006805419921875;0.07558157294988632;-0.020734040066599846;0.0023576964158564806
-0.076171875;-0.13079833984375;-1.006805419921875;0.07558157294988632;-0.020734040066599846;0.0023576964158564806
-0.076171875;-0.13079833984375;-1.006805419921875;0.07558157294988632;-0.020734040066599846;0.0023576964158564806
-0.076171875;-0.13079833984375;-1.006805419921875;0.07558157294988632;-0.020734040066599846;0.0023576964158564806
-0.077301025390625;-0.131439208984375;-1.0001678466796875;0.07160015404224396;-0.01654328964650631;0.006220079027116299
-0.077301025390625;-0.131439208984375;-1.0001678466796875;0.07160015404224396;-0.01654328964650631;0.006220079027116299
-0.077301025390625;-0.131439208984375;-1.0001678466796875;0.07160015404224396;-0.01654328964650631;0.006220079027116299
-0.077301025390625;-0.131439208984375;-1.0001678466796875;0.07160015404224396;-0.01654328964650631;0.006220079027116299
-0.077301025390625;-0.131439208984375;-1.0001678466796875;0.07160015404224396;-0.01654328964650631;0.006220079027116299
-0.0787353515625;-0.1328887939453125;-0.9931488037109375;0.060688115656375885;-0.01104253064841032;0.006887733470648527
-0.0787353515625;-0.1328887939453125;-0.9931488037109375;0.060688115656375885;-0.01104253064841032;0.006887733470648527
-0.0787353515625;-0.1328887939453125;-0.9931488037109375;0.060688115656375885;-0.01104253064841032;0.006887733470648527
-0.0787353515625;-0.1328887939453125;-0.9931488037109375;0.060688115656375885;-0.01104253064841032;0.006887733470648527
-0.0787353515625;-0.1328887939453125;-0.9931488037109375;0.060688115656375885;-0.01104253064841032;0.006887733470648527
-0.0789337158203125;-0.1354522705078125;-0.9904632568359375;0.0429738312959671;-0.011838549748063087;0.00714552728459239
-0.0789337158203125;-0.1354522705078125;-0.9904632568359375;0.0429738312959671;-0.011838549748063087;0.00714552728459239
-0.0789337158203125;-0.1354522705078125;-0.9904632568359375;0.0429738312959671;-0.011838549748063087;0.00714552728459239
-0.0789337158203125;-0.1354522705078125;-0.9904632568359375;0.0429738312959671;-0.011838549748063087;0.00714552728459239
-0.0789337158203125;-0.1354522705078125;-0.9904632568359375;0.0429738312959671;-0.011838549748063087;0.00714552728459239
-0.0780487060546875;-0.136810302734375;-0.9906158447265625;0.027483290061354637;-0.013952034525573254;0.007056844420731068
-0.0780487060546875;-0.136810302734375;-0.9906158447265625;0.027483290061354637;-0.013952034525573254;0.007056844420731068
-0.0780487060546875;-0.136810302734375;-0.9906158447265625;0.027483290061354637;-0.013952034525573254;0.007056844420731068
-0.0780487060546875;-0.136810302734375;-0.9906158447265625;0.027483290061354637;-0.013952034525573254;0.007056844420731068
-0.0780487060546875;-0.136810302734375;-0.9906158447265625;0.027483290061354637;-0.013952034525573254;0.007056844420731068
-0.076202392578125;-0.13787841796875;-0.994110107421875;0.012288358062505722;-0.030253242701292038;0.009069128893315792
-0.076202392578125;-0.13787841796875;-0.994110107421875;0.012288358062505722;-0.030253242701292038;0.009069128893315792
-0.076202392578125;-0.13787841796875;-0.994110107421875;0.012288358062505722;-0.030253242701292038;0.009069128893315792
-0.076202392578125;-0.13787841796875;-0.994110107421875;0.012288358062505722;-0.030253242701292038;0.009069128893315792
-0.076202392578125;-0.13787841796875;-0.994110107421875;0.012288358062505722;-0.030253242701292038;0.009069128893315792
-0.07421875;-0.1383819580078125;-0.998931884765625;0.006999586243182421;-0.0455286018550396;0.009423862211406231
-0.07421875;-0.1383819580078125;-0.998931884765625;0.006999586243182421;-0.0455286018550396;0.009423862211406231
-0.07421875;-0.1383819580078125;-0.998931884765625;0.006999586243182421;-0.0455286018550396;0.009423862211406231
-0.07421875;-0.1383819580078125;-0.998931884765625;0.006999586243182421;-0.0455286018550396;0.009423862211406231
-0.07421875;-0.1383819580078125;-0.998931884765625;0.006999586243182421;-0.0455286018550396;0.009423862211406231
-0.0750579833984375;-0.13800048828125;-1.003936767578125;0.0065172878094017506;-0.06899771094322205;0.010778345167636871
-0.0750579833984375;-0.13800048828125;-1.003936767578125;0.0065172878094017506;-0.06899771094322205;0.010778345167636871
-0.0750579833984375;-0.13800048828125;-1.003936767578125;0.0065172878094017506;-0.06899771094322205;0.010778345167636871
-0.0750579833984375;-0.13800048828125;-1.003936767578125;0.0065172878094017506;-0.06899771094322205;0.010778345167636871
-0.0750579833984375;-0.13800048828125;-1.003936767578125;0.0065172878094017506;-0.06899771094322205;0.010778345167636871
-0.0772857666015625;-0.13946533203125;-1.0073089599609375;0.01341753825545311;-0.07648971676826477;0.012615127488970757
-0.0772857666015625;-0.13946533203125;-1.0073089599609375;0.01341753825545311;-0.07648971676826477;0.012615127488970757
-0.0772857666015625;-0.13946533203125;-1.0073089599609375;0.01341753825545311;-0.07648971676826477;0.012615127488970757
-0.0772857666015625;-0.13946533203125;-1.0073089599609375;0.01341753825545311;-0.07648971676826477;0.012615127488970757
-0.0772857666015625;-0.13946533203125;-1.0073089599609375;0.01341753825545311;-0.07648971676826477;0.012615127488970757
-0.07965087890625;-0.1396331787109375;-1.0078125;0.0190754234790802;-0.0875018835067749;0.012663064524531364
-0.07965087890625;-0.1396331787109375;-1.0078125;0.0190754234790802;-0.0875018835067749;0.012663064524531364
-0.07965087890625;-0.1396331787109375;-1.0078125;0.0190754234790802;-0.0875018835067749;0.012663064524531364
-0.07965087890625;-0.1396331787109375;-1.0078125;0.0190754234790802;-0.0875018835067749;0.012663064524531364
-0.07965087890625;-0.1396331787109375;-1.0078125;0.0190754234790802;-0.0875018835067749;0.012663064524531364
-0.0812530517578125;-0.13916015625;-1.006500244140625;0.027066770941019058;-0.08377479016780853;0.009527725167572498
-0.0812530517578125;-0.13916015625;-1.006500244140625;0.027066770941019058;-0.08377479016780853;0.009527725167572498
-0.0812530517578125;-0.13916015625;-1.006500244140625;0.027066770941019058;-0.08377479016780853;0.009527725167572498
-0.0812530517578125;-0.13916015625;-1.006500244140625;0.027066770941019058;-0.08377479016780853;0.009527725167572498
-0.0812530517578125;-0.13916015625;-1.006500244140625;0.027066770941019058;-0.08377479016780853;0.009527725167572498
-0.0826416015625;-0.13714599609375;-1.0064849853515625;0.03642405569553375;-0.0744398757815361;0.013585583306849003
-0.0826416015625;-0.13714599609375;-1.0064849853515625;0.03642405569553375;-0.0744398757815361;0.013585583306849003
-0.0826416015625;-0.13714599609375;-1.0064849853515625;0.03642405569553375;-0.0744398757815361;0.013585583306849003
-0.0826416015625;-0.13714599609375;-1.0064849853515625;0.03642405569553375;-0.0744398757815361;0.013585583306849003
-0.0826416015625;-0.13714599609375;-1.0064849853515625;0.03642405569553375;-0.0744398757815361;0.013585583306849003
-0.0825958251953125;-0.13787841796875;-1.007232666015625;0.049072206020355225;-0.06789782643318176;0.014659370295703411
-0.0825958251953125;-0.13787841796875;-1.007232666015625;0.049072206020355225;-0.06789782643318176;0.014659370295703411
-0.0825958251953125;-0.13787841796875;-1.007232666015625;0.049072206020355225;-0.06789782643318176;0.014659370295703411
-0.0825958251953125;-0.13787841796875;-1.007232666015625;0.049072206020355225;-0.06789782643318176;0.014659370295703411
-0.0825958251953125;-0.13787841796875;-1.007232666015625;0.049072206020355225;-0.06789782643318176;0.014659370295703411
-0.0829010009765625;-0.1370086669921875;-1.0092010498046875;0.05626353994011879;-0.06071288138628006;0.01684342883527279
-0.0829010009765625;-0.1370086669921875;-1.0092010498046875;0.05626353994011879;-0.06071288138628006;0.01684342883527279
-0.0829010009765625;-0.1370086669921875;-1.0092010498046875;0.05626353994011879;-0.06071288138628006;0.01684342883527279
-0.0829010009765625;-0.1370086669921875;-1.0092010498046875;0.05626353994011879;-0.06071288138628006;0.01684342883527279
-0.0829010009765625;-0.1370086669921875;-1.0092010498046875;0.05626353994011879;-0.06071288138628006;0.01684342883527279
-0.0828857421875;-0.1353759765625;-1.0123748779296875;0.06801100820302963;-0.057372480630874634;0.013161608017981052
-0.0828857421875;-0.1353759765625;-1.0123748779296875;0.06801100820302963;-0.057372480630874634;0.013161608017981052
-0.0828857421875;-0.1353759765625;-1.0123748779296875;0.06801100820302963;-0.057372480630874634;0.013161608017981052
-0.0828857421875;-0.1353759765625;-1.0123748779296875;0.06801100820302963;-0.057372480630874634;0.013161608017981052
-0.0828857421875;-0.1353759765625;-1.0123748779296875;0.06801100820302963;-0.057372480630874634;0.013161608017981052
-0.083648681640625;-0.134979248046875;-1.0137481689453125;0.07826950401067734;-0.0498834028840065;0.014315289445221424
-0.083648681640625;-0.134979248046875;-1.0137481689453125;0.07826950401067734;-0.0498834028840065;0.014315289445221424
-0.083648681640625;-0.134979248046875;-1.0137481689453125;0.07826950401067734;-0.0498834028840065;0.014315289445221424
-0.083648681640625;-0.134979248046875;-1.0137481689453125;0.07826950401067734;-0.0498834028840065;0.014315289445221424
-0.083648681640625;-0.134979248046875;-1.0137481689453125;0.07826950401067734;-0.0498834028840065;0.014315289445221424
-0.0832061767578125;-0.1335601806640625;-1.01318359375;0.09121033549308777;-0.04553339630365372;0.009411078877747059
-0.0832061767578125;-0.1335601806640625;-1.01318359375;0.09121033549308777;-0.04553339630365372;0.009411078877747059
-0.0832061767578125;-0.1335601806640625;-1.01318359375;0.09121033549308777;-0.04553339630365372;0.009411078877747059
-0.0832061767578125;-0.1335601806640625;-1.01318359375;0.09121033549308777;-0.04553339630365372;0.009411078877747059
-0.0832061767578125;-0.1335601806640625;-1.01318359375;0.09121033549308777;-0.04553339630365372;0.009411078877747059
-0.08319091796875;-0.134552001953125;-1.010162353515625;0.09322528541088104;-0.03876151144504547;0.009076585993170738
-0.08319091796875;-0.134552001953125;-1.010162353515625;0.09322528541088104;-0.03876151144504547;0.009076585993170738
-0.08319091796875;-0.134552001953125;-1.010162353515625;0.09322528541088104;-0.03876151144504547;0.009076585993170738
-0.08319091796875;-0.134552001953125;-1.010162353515625;0.09322528541088104;-0.03876151144504547;0.009076585993170738
-0.08319091796875;-0.134552001953125;-1.010162353515625;0.09322528541088104;-0.03876151144504547;0.009076585993170738
-0.083221435546875;-0.134765625;-1.0054779052734375;0.09187905490398407;-0.03502615913748741;0.005468801129609346
-0.083221435546875;-0.134765625;-1.0054779052734375;0.09187905490398407;-0.03502615913748741;0.005468801129609346
-0.083221435546875;-0.134765625;-1.0054779052734375;0.09187905490398407;-0.03502615913748741;0.005468801129609346
-0.083221435546875;-0.134765625;-1.0054779052734375;0.09187905490398407;-0.03502615913748741;0.005468801129609346
-0.083221435546875;-0.134765625;-1.0054779052734375;0.09187905490398407;-0.03502615913748741;0.005468801129609346
-0.0837860107421875;-0.1357574462890625;-1.002288818359375;0.08773757517337799;-0.033360354602336884;0.005090366117656231
-0.0837860107421875;-0.1357574462890625;-1.002288818359375;0.08773757517337799;-0.033360354602336884;0.005090366117656231
-0.0837860107421875;-0.1357574462890625;-1.002288818359375;0.08773757517337799;-0.033360354602336884;0.005090366117656231
-0.0837860107421875;-0.1357574462890625;-1.002288818359375;0.08773757517337799;-0.033360354602336884;0.005090366117656231
-0.0837860107421875;-0.1357574462890625;-1.002288818359375;0.08773757517337799;-0.033360354602336884;0.005090366117656231
-0.0839385986328125;-0.134796142578125;-0.9997406005859375;0.07258632034063339;-0.036615002900362015;0.003162503708153963
-0.0839385986328125;-0.134796142578125;-0.9997406005859375;0.07258632034063339;-0.036615002900362015;0.003162503708153963
-0.0839385986328125;-0.134796142578125;-0.9997406005859375;0.07258632034063339;-0.036615002900362015;0.003162503708153963
-0.0839385986328125;-0.134796142578125;-0.9997406005859375;0.07258632034063339;-0.036615002900362015;0.003162503708153963
-0.0839385986328125;-0.134796142578125;-0.9997406005859375;0.07258632034063339;-0.036615002900362015;0.003162503708153963
-0.0849151611328125;-0.135955810546875;-0.9969329833984375;0.06234939396381378;-0.03561578318476677;-0.001079911831766367
-0.0849151611328125;-0.135955810546875;-0.9969329833984375;0.06234939396381378;-0.03561578318476677;-0.001079911831766367
-0.0849151611328125;-0.135955810546875;-0.9969329833984375;0.06234939396381378;-0.03561578318476677;-0.001079911831766367
-0.0849151611328125;-0.135955810546875;-0.9969329833984375;0.06234939396381378;-0.03561578318476677;-0.001079911831766367
-0.0849151611328125;-0.135955810546875;-0.9969329833984375;0.06234939396381378;-0.03561578318476677;-0.001079911831766367
-0.086517333984375;-0.137176513671875;-0.9979705810546875;0.04972414672374725;-0.03879719600081444;-0.002353435382246971
-0.086517333984375;-0.137176513671875;-0.9979705810546875;0.04972414672374725;-0.03879719600081444;-0.002353435382246971
-0.086517333984375;-0.137176513671875;-0.9979705810546875;0.04972414672374725;-0.03879719600081444;-0.002353435382246971
-0.086517333984375;-0.137176513671875;-0.9979705810546875;0.04972414672374725;-0.03879719600081444;-0.002353435382246971
-0.086517333984375;-0.137176513671875;-0.9979705810546875;0.04972414672374725;-0.03879719600081444;-0.002353435382246971
-0.0877532958984375;-0.139129638671875;-0.9987945556640625;0.039749011397361755;-0.03450045362114906;-0.001722798915579915
-0.0877532958984375;-0.139129638671875;-0.9987945556640625;0.039749011397361755;-0.03450045362114906;-0.001722798915579915
-0.0877532958984375;-0.139129638671875;-0.9987945556640625;0.039749011397361755;-0.03450045362114906;-0.001722798915579915
-0.0877532958984375;-0.139129638671875;-0.9987945556640625;0.039749011397361755;-0.03450045362114906;-0.001722798915579915
-0.0877532958984375;-0.139129638671875;-0.9987945556640625;0.039749011397361755;-0.03450045362114906;-0.001722798915579915
-0.089385986328125;-0.141021728515625;-1.0009307861328125;0.036981452256441116;-0.0322631299495697;-0.002150768879801035
-0.089385986328125;-0.141021728515625;-1.0009307861328125;0.036981452256441116;-0.0322631299495697;-0.002150768879801035
-0.089385986328125;-0.141021728515625;-1.0009307861328125;0.036981452256441116;-0.0322631299495697;-0.002150768879801035
-0.089385986328125;-0.141021728515625;-1.0009307861328125;0.036981452256441116;-0.0322631299495697;-0.002150768879801035
-0.089385986328125;-0.141021728515625;-1.0009307861328125;0.036981452256441116;-0.0322631299495697;-0.002150768879801035
-0.09063720703125;-0.14141845703125;-1.0041046142578125;0.03600087761878967;-0.02738741599023342;0.0005083974683657289
-0.09063720703125;-0.14141845703125;-1.0041046142578125;0.03600087761878967;-0.02738741599023342;0.0005083974683657289
-0.09063720703125;-0.14141845703125;-1.0041046142578125;0.03600087761878967;-0.02738741599023342;0.0005083974683657289
-0.09063720703125;-0.14141845703125;-1.0041046142578125;0.03600087761878967;-0.02738741599023342;0.0005083974683657289
-0.09063720703125;-0.14141845703125;-1.0041046142578125;0.03600087761878967;-0.02738741599023342;0.0005083974683657289
-0.09136962890625;-0.1413116455078125;-1.00604248046875;0.03785363957285881;-0.024691764265298843;-0.001434112200513482
-0.09136962890625;-0.1413116455078125;-1.00604248046875;0.03785363957285881;-0.024691764265298843;-0.001434112200513482
-0.09136962890625;-0.1413116455078125;-1.00604248046875;0.03785363957285881;-0.024691764265298843;-0.001434112200513482
-0.09136962890625;-0.1413116455078125;-1.00604248046875;0.03785363957285881;-0.024691764265298843;-0.001434112200513482
-0.09136962890625;-0.1413116455078125;-1.00604248046875;0.04343828931450844;-0.02442464977502823;-0.0014900385867804289
-0.0919647216796875;-0.1425628662109375;-1.006072998046875;0.04343828931450844;-0.02442464977502823;-0.0014900385867804289
-0.0919647216796875;-0.1425628662109375;-1.006072998046875;0.04343828931450844;-0.02442464977502823;-0.0014900385867804289
-0.0919647216796875;-0.1425628662109375;-1.006072998046875;0.04343828931450844;-0.02442464977502823;-0.0014900385867804289
-0.0919647216796875;-0.1425628662109375;-1.006072998046875;0.04343828931450844;-0.02442464977502823;-0.0014900385867804289
-0.0919647216796875;-0.1425628662109375;-1.006072998046875;0.04343828931450844;-0.02442464977502823;-0.0014900385867804289
-0.093017578125;-0.143463134765625;-1.007659912109375;0.044910747557878494;-0.020321782678365707;0.00043995422311127186
-0.093017578125;-0.143463134765625;-1.007659912109375;0.044910747557878494;-0.020321782678365707;0.00043995422311127186
-0.093017578125;-0.143463134765625;-1.007659912109375;0.044910747557878494;-0.020321782678365707;0.00043995422311127186
-0.093017578125;-0.143463134765625;-1.007659912109375;0.044910747557878494;-0.020321782678365707;0.00043995422311127186
-0.093017578125;-0.143463134765625;-1.007659912109375;0.0451379157602787;-0.019338278099894524;-0.0013800500892102718
-0.091583251953125;-0.1450042724609375;-1.0066680908203125;0.0451379157602787;-0.019338278099894524;-0.0013800500892102718
-0.091583251953125;-0.1450042724609375;-1.0066680908203125;0.0451379157602787;-0.019338278099894524;-0.0013800500892102718
-0.091583251953125;-0.1450042724609375;-1.0066680908203125;0.0451379157602787;-0.019338278099894524;-0.0013800500892102718
-0.091583251953125;-0.1450042724609375;-1.0066680908203125;0.0451379157602787;-0.019338278099894524;-0.0013800500892102718
-0.091583251953125;-0.1450042724609375;-1.0066680908203125;0.040645163506269455;-0.013080381788313389;0.00011424961121520028
-0.0902099609375;-0.1465301513671875;-1.002899169921875;0.040645163506269455;-0.013080381788313389;0.00011424961121520028
-0.0902099609375;-0.1465301513671875;-1.002899169921875;0.040645163506269455;-0.013080381788313389;0.00011424961121520028
-0.0902099609375;-0.1465301513671875;-1.002899169921875;0.040645163506269455;-0.013080381788313389;0.00011424961121520028
-0.0902099609375;-0.1465301513671875;-1.002899169921875;0.040645163506269455;-0.013080381788313389;0.00011424961121520028
-0.0889129638671875;-0.149261474609375;-1.0002288818359375;0.04032079130411148;-0.006487726699560881;0.0016200009267777205
-0.0889129638671875;-0.149261474609375;-1.0002288818359375;0.04032079130411148;-0.006487726699560881;0.0016200009267777205
-0.0889129638671875;-0.149261474609375;-1.0002288818359375;0.04032079130411148;-0.006487726699560881;0.0016200009267777205
-0.0889129638671875;-0.149261474609375;-1.0002288818359375;0.04032079130411148;-0.006487726699560881;0.0016200009267777205
-0.0889129638671875;-0.149261474609375;-1.0002288818359375;0.04032079130411148;-0.006487726699560881;0.0016200009267777205
-0.0889129638671875;-0.149261474609375;-1.0002288818359375;0.033899642527103424;-0.003288471372798085;0.0016506272368133068
-0.0875701904296875;-0.1507415771484375;-0.9974365234375;0.033899642527103424;-0.003288471372798085;0.0016506272368133068
-0.0875701904296875;-0.1507415771484375;-0.9974365234375;0.033899642527103424;-0.003288471372798085;0.0016506272368133068
-0.0875701904296875;-0.1507415771484375;-0.9974365234375;0.033899642527103424;-0.003288471372798085;0.0016506272368133068
-0.0875701904296875;-0.1507415771484375;-0.9974365234375;0.033899642527103424;-0.003288471372798085;0.0016506272368133068
-0.0861968994140625;-0.15289306640625;-0.99749755859375;0.027479561045765877;0.0054906392470002174;0.0020879183430224657
-0.0861968994140625;-0.15289306640625;-0.99749755859375;0.027479561045765877;0.0054906392470002174;0.0020879183430224657
-0.0861968994140625;-0.15289306640625;-0.99749755859375;0.027479561045765877;0.0054906392470002174;0.0020879183430224657
-0.0861968994140625;-0.15289306640625;-0.99749755859375;0.027479561045765877;0.0054906392470002174;0.0020879183430224657
-0.0861968994140625;-0.15289306640625;-0.99749755859375;0.027479561045765877;0.0054906392470002174;0.0020879183430224657
-0.0863189697265625;-0.153900146484375;-0.999420166015625;0.02894856035709381;0.008980711922049522;0.0008873652550391853
-0.0863189697265625;-0.153900146484375;-0.999420166015625;0.02894856035709381;0.008980711922049522;0.0008873652550391853
-0.0863189697265625;-0.153900146484375;-0.999420166015625;0.02894856035709381;0.008980711922049522;0.0008873652550391853
-0.0863189697265625;-0.153900146484375;-0.999420166015625;0.02894856035709381;0.008980711922049522;0.0008873652550391853
-0.0863189697265625;-0.153900146484375;-0.999420166015625;0.02894856035709381;0.008980711922049522;0.0008873652550391853
-0.08489990234375;-0.152679443359375;-1.0024871826171875;0.03223250433802605;0.01624794490635395;-0.0014594122767448425
-0.08489990234375;-0.152679443359375;-1.0024871826171875;0.03223250433802605;0.01624794490635395;-0.0014594122767448425
-0.08489990234375;-0.152679443359375;-1.0024871826171875;0.03223250433802605;0.01624794490635395;-0.0014594122767448425
-0.08489990234375;-0.152679443359375;-1.0024871826171875;0.03223250433802605;0.01624794490635395;-0.0014594122767448425
-0.08489990234375;-0.152679443359375;-1.0024871826171875;0.03223250433802605;0.01624794490635395;-0.0014594122767448425
-0.0846710205078125;-0.1531219482421875;-1.0062255859375;0.03740649297833443;0.011767975986003876;-0.0005528722540475428
-0.0846710205078125;-0.1531219482421875;-1.0062255859375;0.03740649297833443;0.011767975986003876;-0.0005528722540475428
-0.0846710205078125;-0.1531219482421875;-1.0062255859375;0.03740649297833443;0.011767975986003876;-0.0005528722540475428
-0.0846710205078125;-0.1531219482421875;-1.0062255859375;0.03740649297833443;0.011767975986003876;-0.0005528722540475428
-0.0846710205078125;-0.1531219482421875;-1.0062255859375;0.03740649297833443;0.011767975986003876;-0.0005528722540475428
-0.08526611328125;-0.153045654296875;-1.0075836181640625;0.04470115900039673;0.0033334787003695965;-0.002805373864248395
-0.08526611328125;-0.153045654296875;-1.0075836181640625;0.04470115900039673;0.0033334787003695965;-0.002805373864248395
-0.08526611328125;-0.153045654296875;-1.0075836181640625;0.04470115900039673;0.0033334787003695965;-0.002805373864248395
-0.08526611328125;-0.153045654296875;-1.0075836181640625;0.04470115900039673;0.0033334787003695965;-0.002805373864248395
-0.08526611328125;-0.153045654296875;-1.0075836181640625;0.04470115900039673;0.0033334787003695965;-0.002805373864248395
-0.0851287841796875;-0.1531219482421875;-1.0110931396484375;0.047037284821271896;-0.00782383419573307;-0.0011142665753141046
-0.0851287841796875;-0.1531219482421875;-1.0110931396484375;0.047037284821271896;-0.00782383419573307;-0.0011142665753141046
-0.0851287841796875;-0.1531219482421875;-1.0110931396484375;0.047037284821271896;-0.00782383419573307;-0.0011142665753141046
-0.0851287841796875;-0.1531219482421875;-1.0110931396484375;0.047037284821271896;-0.00782383419573307;-0.0011142665753141046
-0.0851287841796875;-0.1531219482421875;-1.0110931396484375;0.047037284821271896;-0.00782383419573307;-0.0011142665753141046
-0.085235595703125;-0.152740478515625;-1.0095977783203125;0.04752091318368912;-0.010498180985450745;3.328951424919069e-05
-0.085235595703125;-0.152740478515625;-1.0095977783203125;0.04752091318368912;-0.010498180985450745;3.328951424919069e-05
-0.085235595703125;-0.152740478515625;-1.0095977783203125;0.04752091318368912;-0.010498180985450745;3.328951424919069e-05
-0.085235595703125;-0.152740478515625;-1.0095977783203125;0.04752091318368912;-0.010498180985450745;3.328951424919069e-05
-0.085235595703125;-0.152740478515625;-1.0095977783203125;0.04752091318368912;-0.010498180985450745;3.328951424919069e-05
-0.0863037109375;-0.150787353515625;-1.0019073486328125;0.03825870528817177;-0.009694173000752926;0.003662112867459655
-0.0863037109375;-0.150787353515625;-1.0019073486328125;0.03825870528817177;-0.009694173000752926;0.003662112867459655
-0.0863037109375;-0.150787353515625;-1.0019073486328125;0.03825870528817177;-0.009694173000752926;0.003662112867459655
-0.0863037109375;-0.150787353515625;-1.0019073486328125;0.03825870528817177;-0.009694173000752926;0.003662112867459655
-0.0863037109375;-0.150787353515625;-1.0019073486328125;0.03825870528817177;-0.009694173000752926;0.003662112867459655
-0.087799072265625;-0.1515045166015625;-0.99432373046875;0.024771125987172127;0.005930859595537186;0.00561128044500947
-0.087799072265625;-0.1515045166015625;-0.99432373046875;0.024771125987172127;0.005930859595537186;0.00561128044500947
-0.087799072265625;-0.1515045166015625;-0.99432373046875;0.024771125987172127;0.005930859595537186;0.00561128044500947
-0.087799072265625;-0.1515045166015625;-0.99432373046875;0.024771125987172127;0.005930859595537186;0.00561128044500947
-0.087799072265625;-0.1515045166015625;-0.99432373046875;0.024771125987172127;0.005930859595537186;0.00561128044500947
-0.087738037109375;-0.151153564453125;-0.98858642578125;0.0032655680552124977;0.016923056915402412;0.00942306313663721
-0.087738037109375;-0.151153564453125;-0.98858642578125;0.0032655680552124977;0.016923056915402412;0.00942306313663721
-0.087738037109375;-0.151153564453125;-0.98858642578125;0.0032655680552124977;0.016923056915402412;0.00942306313663721
-0.087738037109375;-0.151153564453125;-0.98858642578125;0.0032655680552124977;0.016923056915402412;0.00942306313663721
-0.087738037109375;-0.151153564453125;-0.98858642578125;0.0032655680552124977;0.016923056915402412;0.00942306313663721
-0.08880615234375;-0.1486663818359375;-0.9868316650390625;-0.01751214824616909;0.019355054944753647;0.0084877610206604
-0.08880615234375;-0.1486663818359375;-0.9868316650390625;-0.01751214824616909;0.019355054944753647;0.0084877610206604
-0.08880615234375;-0.1486663818359375;-0.9868316650390625;-0.01751214824616909;0.019355054944753647;0.0084877610206604
-0.08880615234375;-0.1486663818359375;-0.9868316650390625;-0.01751214824616909;0.019355054944753647;0.0084877610206604
-0.08880615234375;-0.1486663818359375;-0.9868316650390625;-0.01751214824616909;0.019355054944753647;0.0084877610206604
-0.0896759033203125;-0.14666748046875;-0.988922119140625;-0.03190440312027931;0.017657557502388954;0.00836711935698986
-0.0896759033203125;-0.14666748046875;-0.988922119140625;-0.03190440312027931;0.017657557502388954;0.00836711935698986
-0.0896759033203125;-0.14666748046875;-0.988922119140625;-0.03190440312027931;0.017657557502388954;0.00836711935698986
-0.0896759033203125;-0.14666748046875;-0.988922119140625;-0.03190440312027931;0.017657557502388954;0.00836711935698986
-0.0896759033203125;-0.14666748046875;-0.988922119140625;-0.03190440312027931;0.017657557502388954;0.00836711935698986
-0.0901031494140625;-0.14532470703125;-0.992462158203125;-0.03832528367638588;0.007795338984578848;0.008257930167019367
-0.0901031494140625;-0.14532470703125;-0.992462158203125;-0.03832528367638588;0.007795338984578848;0.008257930167019367
-0.0901031494140625;-0.14532470703125;-0.992462158203125;-0.03832528367638588;0.007795338984578848;0.008257930167019367
-0.0901031494140625;-0.14532470703125;-0.992462158203125;-0.03832528367638588;0.007795338984578848;0.008257930167019367
-0.0901031494140625;-0.14532470703125;-0.992462158203125;-0.03832528367638588;0.007795338984578848;0.008257930167019367
-0.08843994140625;-0.1434783935546875;-0.996551513671875;-0.0317227765917778;0.0034820830915123224;0.0102004399523139
-0.08843994140625;-0.1434783935546875;-0.996551513671875;-0.0317227765917778;0.0034820830915123224;0.0102004399523139
-0.08843994140625;-0.1434783935546875;-0.996551513671875;-0.0317227765917778;0.0034820830915123224;0.0102004399523139
-0.08843994140625;-0.1434783935546875;-0.996551513671875;-0.0317227765917778;0.0034820830915123224;0.0102004399523139
-0.08843994140625;-0.1434783935546875;-0.996551513671875;-0.0317227765917778;0.0034820830915123224;0.0102004399523139
-0.0886383056640625;-0.14129638671875;-1.0013427734375;-0.02581029199063778;-0.0020391824655234814;0.006964965257793665
-0.0886383056640625;-0.14129638671875;-1.0013427734375;-0.02581029199063778;-0.0020391824655234814;0.006964965257793665
-0.0886383056640625;-0.14129638671875;-1.0013427734375;-0.02581029199063778;-0.0020391824655234814;0.006964965257793665
-0.0886383056640625;-0.14129638671875;-1.0013427734375;-0.02581029199063778;-0.0020391824655234814;0.006964965257793665
-0.0886383056640625;-0.14129638671875;-1.0013427734375;-0.02581029199063778;-0.0020391824655234814;0.006964965257793665
-0.0890045166015625;-0.1409912109375;-1.005401611328125;-0.01702266000211239;-0.0023257385473698378;0.007420099340379238
-0.0890045166015625;-0.1409912109375;-1.005401611328125;-0.01702266000211239;-0.0023257385473698378;0.007420099340379238
-0.0890045166015625;-0.1409912109375;-1.005401611328125;-0.01702266000211239;-0.0023257385473698378;0.007420099340379238
-0.0890045166015625;-0.1409912109375;-1.005401611328125;-0.01702266000211239;-0.0023257385473698378;0.007420099340379238
-0.0890045166015625;-0.1409912109375;-1.005401611328125;-0.01702266000211239;-0.0023257385473698378;0.007420099340379238
-0.090606689453125;-0.141632080078125;-1.0064697265625;-0.00977246928960085;0.0017619474092498422;0.005514874123036861
-0.090606689453125;-0.141632080078125;-1.0064697265625;-0.00977246928960085;0.0017619474092498422;0.005514874123036861
-0.090606689453125;-0.141632080078125;-1.0064697265625;-0.00977246928960085;0.0017619474092498422;0.005514874123036861
-0.090606689453125;-0.141632080078125;-1.0064697265625;-0.00977246928960085;0.0017619474092498422;0.005514874123036861
-0.090606689453125;-0.141632080078125;-1.0064697265625;-0.00977246928960085;0.0017619474092498422;0.005514874123036861
-0.091400146484375;-0.1439666748046875;-1.0024566650390625;-0.003739344421774149;0.013095029629766941;0.005352421198040247
-0.091400146484375;-0.1439666748046875;-1.0024566650390625;-0.003739344421774149;0.013095029629766941;0.005352421198040247
-0.091400146484375;-0.1439666748046875;-1.0024566650390625;-0.003739344421774149;0.013095029629766941;0.005352421198040247
-0.091400146484375;-0.1439666748046875;-1.0024566650390625;-0.003739344421774149;0.013095029629766941;0.005352421198040247
-0.091400146484375;-0.1439666748046875;-1.0024566650390625;-0.003739344421774149;0.013095029629766941;0.005352421198040247
-0.090362548828125;-0.14605712890625;-1.001007080078125;0.006166549399495125;0.020302342250943184;0.0012993563432246447
-0.090362548828125;-0.14605712890625;-1.001007080078125;0.006166549399495125;0.020302342250943184;0.0012993563432246447
-0.090362548828125;-0.14605712890625;-1.001007080078125;0.006166549399495125;0.020302342250943184;0.0012993563432246447
-0.090362548828125;-0.14605712890625;-1.001007080078125;0.006166549399495125;0.020302342250943184;0.0012993563432246447
-0.090362548828125;-0.14605712890625;-1.001007080078125;0.006166549399495125;0.020302342250943184;0.0012993563432246447
-0.0890960693359375;-0.148284912109375;-1.003662109375;0.01581544801592827;0.025598304346203804;0.0013523531379178166
-0.0890960693359375;-0.148284912109375;-1.003662109375;0.01581544801592827;0.025598304346203804;0.0013523531379178166
-0.0890960693359375;-0.148284912109375;-1.003662109375;0.01581544801592827;0.025598304346203804;0.0013523531379178166
-0.0890960693359375;-0.148284912109375;-1.003662109375;0.01581544801592827;0.025598304346203804;0.0013523531379178166
-0.0890960693359375;-0.148284912109375;-1.003662109375;0.01581544801592827;0.025598304346203804;0.0013523531379178166
-0.0866241455078125;-0.15020751953125;-1.0070953369140625;0.03550020232796669;0.01599947363138199;0.0025901903863996267
-0.0866241455078125;-0.15020751953125;-1.0070953369140625;0.03550020232796669;0.01599947363138199;0.0025901903863996267
-0.0866241455078125;-0.15020751953125;-1.0070953369140625;0.03550020232796669;0.01599947363138199;0.0025901903863996267
-0.0866241455078125;-0.15020751953125;-1.0070953369140625;0.03550020232796669;0.01599947363138199;0.0025901903863996267
-0.0866241455078125;-0.15020751953125;-1.0070953369140625;0.03550020232796669;0.01599947363138199;0.0025901903863996267
-0.0842132568359375;-0.15228271484375;-1.009429931640625;0.05387201905250549;0.007508516311645508;0.0011318434262648225
-0.0842132568359375;-0.15228271484375;-1.009429931640625;0.05387201905250549;0.007508516311645508;0.0011318434262648225
-0.0842132568359375;-0.15228271484375;-1.009429931640625;0.05387201905250549;0.007508516311645508;0.0011318434262648225
-0.0842132568359375;-0.15228271484375;-1.009429931640625;0.05387201905250549;0.007508516311645508;0.0011318434262648225
-0.0842132568359375;-0.15228271484375;-1.009429931640625;0.05387201905250549;0.007508516311645508;0.0011318434262648225
-0.0826873779296875;-0.1539459228515625;-1.0112457275390625;0.073672354221344;0.0035633095540106297;0.0008450209861621261
-0.0826873779296875;-0.1539459228515625;-1.0112457275390625;0.073672354221344;0.0035633095540106297;0.0008450209861621261
-0.0826873779296875;-0.1539459228515625;-1.0112457275390625;0.073672354221344;0.0035633095540106297;0.0008450209861621261
-0.0826873779296875;-0.1539459228515625;-1.0112457275390625;0.073672354221344;0.0035633095540106297;0.0008450209861621261
-0.0826873779296875;-0.1539459228515625;-1.0112457275390625;0.073672354221344;0.0035633095540106297;0.0008450209861621261
-0.0832366943359375;-0.1563568115234375;-1.0106201171875;0.09379440546035767;0.002055694116279483;-0.0008583368035033345
-0.0832366943359375;-0.1563568115234375;-1.0106201171875;0.09379440546035767;0.002055694116279483;-0.0008583368035033345
-0.0832366943359375;-0.1563568115234375;-1.0106201171875;0.09379440546035767;0.002055694116279483;-0.0008583368035033345
-0.0832366943359375;-0.1563568115234375;-1.0106201171875;0.09379440546035767;0.002055694116279483;-0.0008583368035033345
-0.0832366943359375;-0.1563568115234375;-1.0106201171875;0.09379440546035767;0.002055694116279483;-0.0008583368035033345
-0.0859375;-0.1573944091796875;-1.0084991455078125;0.10587237030267715;0.0010761833982542157;-0.0013014868600293994
-0.0859375;-0.1573944091796875;-1.0084991455078125;0.10587237030267715;0.0010761833982542157;-0.0013014868600293994
-0.0859375;-0.1573944091796875;-1.0084991455078125;0.10587237030267715;0.0010761833982542157;-0.0013014868600293994
-0.0859375;-0.1573944091796875;-1.0084991455078125;0.10587237030267715;0.0010761833982542157;-0.0013014868600293994
-0.0859375;-0.1573944091796875;-1.0084991455078125;0.10587237030267715;0.0010761833982542157;-0.0013014868600293994
-0.08819580078125;-0.158905029296875;-1.0069122314453125;0.10862421244382858;0.008654740639030933;-0.006699181627482176
-0.08819580078125;-0.158905029296875;-1.0069122314453125;0.10862421244382858;0.008654740639030933;-0.006699181627482176
-0.08819580078125;-0.158905029296875;-1.0069122314453125;0.10862421244382858;0.008654740639030933;-0.006699181627482176
-0.08819580078125;-0.158905029296875;-1.0069122314453125;0.10862421244382858;0.008654740639030933;-0.006699181627482176
-0.08819580078125;-0.158905029296875;-1.0069122314453125;0.10862421244382858;0.008654740639030933;-0.006699181627482176
-0.0894317626953125;-0.160125732421875;-1.004119873046875;0.1126735508441925;0.010908041149377823;-0.008265386335551739
-0.0894317626953125;-0.160125732421875;-1.004119873046875;0.1126735508441925;0.010908041149377823;-0.008265386335551739
-0.0894317626953125;-0.160125732421875;-1.004119873046875;0.1126735508441925;0.010908041149377823;-0.008265386335551739
-0.0894317626953125;-0.160125732421875;-1.004119873046875;0.1126735508441925;0.010908041149377823;-0.008265386335551739
-0.0894317626953125;-0.160125732421875;-1.004119873046875;0.1126735508441925;0.010908041149377823;-0.008265386335551739
-0.089691162109375;-0.158721923828125;-1.0010223388671875;0.09951300919055939;0.011157313361763954;-0.009302687831223011
-0.089691162109375;-0.158721923828125;-1.0010223388671875;0.09951300919055939;0.011157313361763954;-0.009302687831223011
-0.089691162109375;-0.158721923828125;-1.0010223388671875;0.09951300919055939;0.011157313361763954;-0.009302687831223011
-0.089691162109375;-0.158721923828125;-1.0010223388671875;0.09951300919055939;0.011157313361763954;-0.009302687831223011
-0.089691162109375;-0.158721923828125;-1.0010223388671875;0.09951300919055939;0.011157313361763954;-0.009302687831223011
-0.0889892578125;-0.158416748046875;-0.998870849609375;0.08573700487613678;0.010292851366102695;-0.010367685928940773
-0.0889892578125;-0.158416748046875;-0.998870849609375;0.08573700487613678;0.010292851366102695;-0.010367685928940773
-0.0889892578125;-0.158416748046875;-0.998870849609375;0.08573700487613678;0.010292851366102695;-0.010367685928940773
-0.0889892578125;-0.158416748046875;-0.998870849609375;0.08573700487613678;0.010292851366102695;-0.010367685928940773
-0.0889892578125;-0.158416748046875;-0.998870849609375;0.08573700487613678;0.010292851366102695;-0.010367685928940773
-0.0873870849609375;-0.1586151123046875;-0.9962615966796875;0.07291468977928162;0.0043899547308683395;-0.009951167739927769
-0.0873870849609375;-0.1586151123046875;-0.9962615966796875;0.07291468977928162;0.0043899547308683395;-0.009951167739927769
-0.0873870849609375;-0.1586151123046875;-0.9962615966796875;0.07291468977928162;0.0043899547308683395;-0.009951167739927769
-0.0873870849609375;-0.1586151123046875;-0.9962615966796875;0.07291468977928162;0.0043899547308683395;-0.009951167739927769
-0.0873870849609375;-0.1586151123046875;-0.9962615966796875;0.07291468977928162;0.0043899547308683395;-0.009951167739927769
-0.086456298828125;-0.1577301025390625;-0.9947357177734375;0.05716555193066597;-0.002114816103130579;-0.008882706984877586
-0.086456298828125;-0.1577301025390625;-0.9947357177734375;0.05716555193066597;-0.002114816103130579;-0.008882706984877586
-0.086456298828125;-0.1577301025390625;-0.9947357177734375;0.05716555193066597;-0.002114816103130579;-0.008882706984877586
-0.086456298828125;-0.1577301025390625;-0.9947357177734375;0.05716555193066597;-0.002114816103130579;-0.008882706984877586
-0.086456298828125;-0.1577301025390625;-0.9947357177734375;0.05716555193066597;-0.002114816103130579;-0.008882706984877586
-0.0866241455078125;-0.1579132080078125;-0.9951324462890625;0.04259246587753296;-0.004117779433727264;-0.005246427375823259
-0.0866241455078125;-0.1579132080078125;-0.9951324462890625;0.04259246587753296;-0.004117779433727264;-0.005246427375823259
-0.0866241455078125;-0.1579132080078125;-0.9951324462890625;0.04259246587753296;-0.004117779433727264;-0.005246427375823259
-0.0866241455078125;-0.1579132080078125;-0.9951324462890625;0.04259246587753296;-0.004117779433727264;-0.005246427375823259
-0.0866241455078125;-0.1579132080078125;-0.9951324462890625;0.04259246587753296;-0.004117779433727264;-0.005246427375823259
-0.087371826171875;-0.1563262939453125;-0.9962921142578125;0.03256939351558685;-0.009694173000752926;-0.004275971557945013
-0.087371826171875;-0.1563262939453125;-0.9962921142578125;0.03256939351558685;-0.009694173000752926;-0.004275971557945013
-0.087371826171875;-0.1563262939453125;-0.9962921142578125;0.03256939351558685;-0.009694173000752926;-0.004275971557945013
-0.087371826171875;-0.1563262939453125;-0.9962921142578125;0.03256939351558685;-0.009694173000752926;-0.004275971557945013
-0.087371826171875;-0.1563262939453125;-0.9962921142578125;0.02046612650156021;-0.00911520142108202;-0.005366003140807152
-0.0884552001953125;-0.1561737060546875;-0.9979095458984375;0.02046612650156021;-0.00911520142108202;-0.005366003140807152
-0.0884552001953125;-0.1561737060546875;-0.9979095458984375;0.02046612650156021;-0.00911520142108202;-0.005366003140807152
-0.0884552001953125;-0.1561737060546875;-0.9979095458984375;0.02046612650156021;-0.00911520142108202;-0.005366003140807152
-0.0884552001953125;-0.1561737060546875;-0.9979095458984375;0.02046612650156021;-0.00911520142108202;-0.005366003140807152
-0.0884552001953125;-0.1561737060546875;-0.9979095458984375;0.02046612650156021;-0.00911520142108202;-0.005366003140807152
-0.0889434814453125;-0.1558074951171875;-1.000152587890625;0.020050672814249992;-0.005571865476667881;-0.003961452282965183
-0.0889434814453125;-0.1558074951171875;-1.000152587890625;0.020050672814249992;-0.005571865476667881;-0.003961452282965183
-0.0889434814453125;-0.1558074951171875;-1.000152587890625;0.020050672814249992;-0.005571865476667881;-0.003961452282965183
-0.0889434814453125;-0.1558074951171875;-1.000152587890625;0.020050672814249992;-0.005571865476667881;-0.003961452282965183
-0.0889434814453125;-0.1558074951171875;-1.000152587890625;0.020050672814249992;-0.005571865476667881;-0.003961452282965183
-0.0896148681640625;-0.1570892333984375;-1.000213623046875;0.019773971289396286;-0.009409480728209019;-0.0017805894603952765
-0.0896148681640625;-0.1570892333984375;-1.000213623046875;0.019773971289396286;-0.009409480728209019;-0.0017805894603952765
-0.0896148681640625;-0.1570892333984375;-1.000213623046875;0.019773971289396286;-0.009409480728209019;-0.0017805894603952765
-0.0896148681640625;-0.1570892333984375;-1.000213623046875;0.019773971289396286;-0.009409480728209019;-0.0017805894603952765
-0.0896148681640625;-0.1570892333984375;-1.000213623046875;0.019773971289396286;-0.009409480728209019;-0.0017805894603952765
-0.08984375;-0.1571197509765625;-1.0006561279296875;0.022529277950525284;-0.00407570181414485;-0.0006772418855689466
-0.08984375;-0.1571197509765625;-1.0006561279296875;0.022529277950525284;-0.00407570181414485;-0.0006772418855689466
-0.08984375;-0.1571197509765625;-1.0006561279296875;0.022529277950525284;-0.00407570181414485;-0.0006772418855689466
-0.08984375;-0.1571197509765625;-1.0006561279296875;0.022529277950525284;-0.00407570181414485;-0.0006772418855689466
-0.08984375;-0.1571197509765625;-1.0006561279296875;0.021868813782930374;-0.002828543307259679;-0.00293347192928195
-0.090087890625;-0.158050537109375;-0.999603271484375;0.021868813782930374;-0.002828543307259679;-0.00293347192928195
-0.090087890625;-0.158050537109375;-0.999603271484375;0.021868813782930374;-0.002828543307259679;-0.00293347192928195
-0.090087890625;-0.158050537109375;-0.999603271484375;0.021868813782930374;-0.002828543307259679;-0.00293347192928195
-0.090087890625;-0.158050537109375;-0.999603271484375;0.021868813782930374;-0.002828543307259679;-0.00293347192928195
-0.0906219482421875;-0.1579742431640625;-0.9993743896484375;0.023378826677799225;-0.0019137475173920393;-0.005108475685119629
-0.0906219482421875;-0.1579742431640625;-0.9993743896484375;0.023378826677799225;-0.0019137475173920393;-0.005108475685119629
-0.0906219482421875;-0.1579742431640625;-0.9993743896484375;0.023378826677799225;-0.0019137475173920393;-0.005108475685119629
-0.0906219482421875;-0.1579742431640625;-0.9993743896484375;0.023378826677799225;-0.0019137475173920393;-0.005108475685119629
-0.0906219482421875;-0.1579742431640625;-0.9993743896484375;0.023378826677799225;-0.0019137475173920393;-0.005108475685119629
-0.0906219482421875;-0.1579742431640625;-0.9993743896484375;0.03272652253508568;-0.009610549546778202;-0.005049087107181549
-0.0906829833984375;-0.1590118408203125;-1.002166748046875;0.03272652253508568;-0.009610549546778202;-0.005049087107181549
-0.0906829833984375;-0.1590118408203125;-1.002166748046875;0.03272652253508568;-0.009610549546778202;-0.005049087107181549
-0.0906829833984375;-0.1590118408203125;-1.002166748046875;0.03272652253508568;-0.009610549546778202;-0.005049087107181549
-0.0906829833984375;-0.1590118408203125;-1.002166748046875;0.03272652253508568;-0.009610549546778202;-0.005049087107181549
-0.0906829833984375;-0.1590118408203125;-1.002166748046875;0.03959294781088829;-0.012119779363274574;-0.003846669802442193
-0.0897216796875;-0.1605072021484375;-1.00421142578125;0.03959294781088829;-0.012119779363274574;-0.003846669802442193
-0.0897216796875;-0.1605072021484375;-1.00421142578125;0.03959294781088829;-0.012119779363274574;-0.003846669802442193
-0.0897216796875;-0.1605072021484375;-1.00421142578125;0.03959294781088829;-0.012119779363274574;-0.003846669802442193
-0.0897216796875;-0.1605072021484375;-1.00421142578125;0.03959294781088829;-0.012119779363274574;-0.003846669802442193
-0.0904083251953125;-0.1602935791015625;-1.0069732666015625;0.040771931409835815;-0.0135656101629138;-0.002523345174267888
-0.0904083251953125;-0.1602935791015625;-1.0069732666015625;0.040771931409835815;-0.0135656101629138;-0.002523345174267888
-0.0904083251953125;-0.1602935791015625;-1.0069732666015625;0.040771931409835815;-0.0135656101629138;-0.002523345174267888
-0.0904083251953125;-0.1602935791015625;-1.0069732666015625;0.040771931409835815;-0.0135656101629138;-0.002523345174267888
-0.0904083251953125;-0.1602935791015625;-1.0069732666015625;0.040771931409835815;-0.0135656101629138;-0.002523345174267888
-0.0899658203125;-0.1617279052734375;-1.006011962890625;0.042754653841257095;-0.010426275432109833;0.0012913667596876621
-0.0899658203125;-0.1617279052734375;-1.006011962890625;0.042754653841257095;-0.010426275432109833;0.0012913667596876621
-0.0899658203125;-0.1617279052734375;-1.006011962890625;0.042754653841257095;-0.010426275432109833;0.0012913667596876621
-0.0899658203125;-0.1617279052734375;-1.006011962890625;0.042754653841257095;-0.010426275432109833;0.0012913667596876621
-0.0899658203125;-0.1617279052734375;-1.006011962890625;0.042754653841257095;-0.010426275432109833;0.0012913667596876621
-0.0909423828125;-0.1624603271484375;-0.9986724853515625;0.03536012023687363;-0.005655755288898945;0.002740392694249749
-0.0909423828125;-0.1624603271484375;-0.9986724853515625;0.03536012023687363;-0.005655755288898945;0.002740392694249749
-0.0909423828125;-0.1624603271484375;-0.9986724853515625;0.03536012023687363;-0.005655755288898945;0.002740392694249749
-0.0909423828125;-0.1624603271484375;-0.9986724853515625;0.03536012023687363;-0.005655755288898945;0.002740392694249749
-0.0909423828125;-0.1624603271484375;-0.9986724853515625;0.03536012023687363;-0.005655755288898945;0.002740392694249749
-0.0923919677734375;-0.1634979248046875;-0.9933929443359375;0.0186634324491024;0.0052136704325675964;0.0015094797126948833
-0.0923919677734375;-0.1634979248046875;-0.9933929443359375;0.0186634324491024;0.0052136704325675964;0.0015094797126948833
-0.0923919677734375;-0.1634979248046875;-0.9933929443359375;0.0186634324491024;0.0052136704325675964;0.0015094797126948833
-0.0923919677734375;-0.1634979248046875;-0.9933929443359375;0.0186634324491024;0.0052136704325675964;0.0015094797126948833
-0.0923919677734375;-0.1634979248046875;-0.9933929443359375;0.0186634324491024;0.0052136704325675964;0.0015094797126948833
-0.0926971435546875;-0.164337158203125;-0.9909210205078125;0.003948402591049671;0.015995211899280548;0.0011885687708854675
-0.0926971435546875;-0.164337158203125;-0.9909210205078125;0.003948402591049671;0.015995211899280548;0.0011885687708854675
-0.0926971435546875;-0.164337158203125;-0.9909210205078125;0.003948402591049671;0.015995211899280548;0.0011885687708854675
-0.0926971435546875;-0.164337158203125;-0.9909210205078125;0.003948402591049671;0.015995211899280548;0.0011885687708854675
-0.0926971435546875;-0.164337158203125;-0.9909210205078125;0.003948402591049671;0.015995211899280548;0.0011885687708854675
-0.0926055908203125;-0.1627197265625;-0.9912261962890625;-0.010135458782315254;0.015693742781877518;0.000508663768414408
-0.0926055908203125;-0.1627197265625;-0.9912261962890625;-0.010135458782315254;0.015693742781877518;0.000508663768414408
-0.0926055908203125;-0.1627197265625;-0.9912261962890625;-0.010135458782315254;0.015693742781877518;0.000508663768414408
-0.0926055908203125;-0.1627197265625;-0.9912261962890625;-0.010135458782315254;0.015693742781877518;0.000508663768414408
-0.0926055908203125;-0.1627197265625;-0.9912261962890625;-0.010135458782315254;0.015693742781877518;0.000508663768414408
-0.0911712646484375;-0.162261962890625;-0.9963531494140625;-0.02028130367398262;0.004488491453230381;0.0011494202772155404
-0.0911712646484375;-0.162261962890625;-0.9963531494140625;-0.02028130367398262;0.004488491453230381;0.0011494202772155404
-0.0911712646484375;-0.162261962890625;-0.9963531494140625;-0.02028130367398262;0.004488491453230381;0.0011494202772155404
-0.0911712646484375;-0.162261962890625;-0.9963531494140625;-0.02028130367398262;0.004488491453230381;0.0011494202772155404
-0.0911712646484375;-0.162261962890625;-0.9963531494140625;-0.02028130367398262;0.004488491453230381;0.0011494202772155404
-0.089813232421875;-0.1622161865234375;-1.000946044921875;-0.02027411200106144;-0.009593505412340164;-0.00027031084755435586
-0.089813232421875;-0.1622161865234375;-1.000946044921875;-0.02027411200106144;-0.009593505412340164;-0.00027031084755435586
-0.089813232421875;-0.1622161865234375;-1.000946044921875;-0.02027411200106144;-0.009593505412340164;-0.00027031084755435586
-0.089813232421875;-0.1622161865234375;-1.000946044921875;-0.02027411200106144;-0.009593505412340164;-0.00027031084755435586
-0.089813232421875;-0.1622161865234375;-1.000946044921875;-0.02027411200106144;-0.009593505412340164;-0.00027031084755435586
-0.089263916015625;-0.1619110107421875;-1.006195068359375;-0.01846183091402054;-0.022836873307824135;0.004130030050873756
-0.089263916015625;-0.1619110107421875;-1.006195068359375;-0.01846183091402054;-0.022836873307824135;0.004130030050873756
-0.089263916015625;-0.1619110107421875;-1.006195068359375;-0.01846183091402054;-0.022836873307824135;0.004130030050873756
-0.089263916015625;-0.1619110107421875;-1.006195068359375;-0.01846183091402054;-0.022836873307824135;0.004130030050873756
-0.089263916015625;-0.1619110107421875;-1.006195068359375;-0.01846183091402054;-0.022836873307824135;0.004130030050873756
-0.088775634765625;-0.1630096435546875;-1.0075836181640625;-0.010246246121823788;-0.03137443587183952;0.0017768610268831253
-0.088775634765625;-0.1630096435546875;-1.0075836181640625;-0.010246246121823788;-0.03137443587183952;0.0017768610268831253
-0.088775634765625;-0.1630096435546875;-1.0075836181640625;-0.010246246121823788;-0.03137443587183952;0.0017768610268831253
-0.088775634765625;-0.1630096435546875;-1.0075836181640625;-0.010246246121823788;-0.03137443587183952;0.0017768610268831253
-0.088775634765625;-0.1630096435546875;-1.0075836181640625;-0.010246246121823788;-0.03137443587183952;0.0017768610268831253
-0.088409423828125;-0.1626129150390625;-1.010101318359375;0.000731836655177176;-0.03343918174505234;0.000949150591623038
-0.088409423828125;-0.1626129150390625;-1.010101318359375;0.000731836655177176;-0.03343918174505234;0.000949150591623038
-0.088409423828125;-0.1626129150390625;-1.010101318359375;0.000731836655177176;-0.03343918174505234;0.000949150591623038
-0.088409423828125;-0.1626129150390625;-1.010101318359375;0.000731836655177176;-0.03343918174505234;0.000949150591623038
-0.088409423828125;-0.1626129150390625;-1.010101318359375;0.000731836655177176;-0.03343918174505234;0.000949150591623038
-0.0884552001953125;-0.16241455078125;-1.01025390625;0.014886803925037384;-0.02882552333176136;0.0030711572617292404
-0.0884552001953125;-0.16241455078125;-1.01025390625;0.014886803925037384;-0.02882552333176136;0.0030711572617292404
-0.0884552001953125;-0.16241455078125;-1.01025390625;0.014886803925037384;-0.02882552333176136;0.0030711572617292404
-0.0884552001953125;-0.16241455078125;-1.01025390625;0.014886803925037384;-0.02882552333176136;0.0030711572617292404
-0.0884552001953125;-0.16241455078125;-1.01025390625;0.014886803925037384;-0.02882552333176136;0.0030711572617292404
-0.088043212890625;-0.1634979248046875;-1.0083160400390625;0.02142805978655815;-0.019507387652993202;0.0030714236199855804
-0.088043212890625;-0.1634979248046875;-1.0083160400390625;0.02142805978655815;-0.019507387652993202;0.0030714236199855804
-0.088043212890625;-0.1634979248046875;-1.0083160400390625;0.02142805978655815;-0.019507387652993202;0.0030714236199855804
-0.088043212890625;-0.1634979248046875;-1.0083160400390625;0.02142805978655815;-0.019507387652993202;0.0030714236199855804
-0.088043212890625;-0.1634979248046875;-1.0083160400390625;0.02142805978655815;-0.019507387652993202;0.0030714236199855804
-0.088836669921875;-0.1635284423828125;-1.0078277587890625;0.03190120682120323;-0.011455853469669819;0.0018604843644425273
-0.088836669921875;-0.1635284423828125;-1.0078277587890625;0.03190120682120323;-0.011455853469669819;0.0018604843644425273
-0.088836669921875;-0.1635284423828125;-1.0078277587890625;0.03190120682120323;-0.011455853469669819;0.0018604843644425273
-0.088836669921875;-0.1635284423828125;-1.0078277587890625;0.03190120682120323;-0.011455853469669819;0.0018604843644425273
-0.088836669921875;-0.1635284423828125;-1.0078277587890625;0.03190120682120323;-0.011455853469669819;0.0018604843644425273
-0.0878753662109375;-0.1634063720703125;-1.0067596435546875;0.03890958055853844;-0.005724464543163776;0.0017528926255181432
-0.0878753662109375;-0.1634063720703125;-1.0067596435546875;0.03890958055853844;-0.005724464543163776;0.0017528926255181432
-0.0878753662109375;-0.1634063720703125;-1.0067596435546875;0.03890958055853844;-0.005724464543163776;0.0017528926255181432
-0.0878753662109375;-0.1634063720703125;-1.0067596435546875;0.03890958055853844;-0.005724464543163776;0.0017528926255181432
-0.0878753662109375;-0.1634063720703125;-1.0067596435546875;0.03890958055853844;-0.005724464543163776;0.0017528926255181432
-0.087738037109375;-0.16314697265625;-1.004730224609375;0.04048537462949753;-0.0010583401890471578;0.0022921827621757984
-0.087738037109375;-0.16314697265625;-1.004730224609375;0.04048537462949753;-0.0010583401890471578;0.0022921827621757984
-0.087738037109375;-0.16314697265625;-1.004730224609375;0.04048537462949753;-0.0010583401890471578;0.0022921827621757984
-0.087738037109375;-0.16314697265625;-1.004730224609375;0.04048537462949753;-0.0010583401890471578;0.0022921827621757984
-0.087738037109375;-0.16314697265625;-1.004730224609375;0.04048537462949753;-0.0010583401890471578;0.0022921827621757984
-0.08740234375;-0.1637420654296875;-1.0032806396484375;0.03250947222113609;-0.003242664970457554;-0.0005198490689508617
-0.08740234375;-0.1637420654296875;-1.0032806396484375;0.03250947222113609;-0.003242664970457554;-0.0005198490689508617
-0.08740234375;-0.1637420654296875;-1.0032806396484375;0.03250947222113609;-0.003242664970457554;-0.0005198490689508617
-0.08740234375;-0.1637420654296875;-1.0032806396484375;0.03250947222113609;-0.003242664970457554;-0.0005198490689508617
-0.0856170654296875;-0.1638946533203125;-1.0012054443359375;0.028175711631774902;-0.006733004003763199;0.00010945591930067167
-0.0856170654296875;-0.1638946533203125;-1.0012054443359375;0.028175711631774902;-0.006733004003763199;0.00010945591930067167
-0.0856170654296875;-0.1638946533203125;-1.0012054443359375;0.028175711631774902;-0.006733004003763199;0.00010945591930067167
-0.0856170654296875;-0.1638946533203125;-1.0012054443359375;0.028175711631774902;-0.006733004003763199;0.00010945591930067167
-0.0856170654296875;-0.1638946533203125;-1.0012054443359375;0.028175711631774902;-0.006733004003763199;0.00010945591930067167
-0.084747314453125;-0.163787841796875;-0.9987030029296875;0.020972926169633865;-0.010543720796704292;0.004727377090603113
-0.084747314453125;-0.163787841796875;-0.9987030029296875;0.020972926169633865;-0.010543720796704292;0.004727377090603113
-0.084747314453125;-0.163787841796875;-0.9987030029296875;0.020972926169633865;-0.010543720796704292;0.004727377090603113
-0.084747314453125;-0.163787841796875;-0.9987030029296875;0.020972926169633865;-0.010543720796704292;0.004727377090603113
-0.084747314453125;-0.163787841796875;-0.9987030029296875;0.020972926169633865;-0.010543720796704292;0.004727377090603113
-0.0849456787109375;-0.163421630859375;-0.9971771240234375;0.014883608557283878;-0.01134080532938242;0.0016290555940940976
-0.0849456787109375;-0.163421630859375;-0.9971771240234375;0.014883608557283878;-0.01134080532938242;0.0016290555940940976
-0.0849456787109375;-0.163421630859375;-0.9971771240234375;0.014883608557283878;-0.01134080532938242;0.0016290555940940976
-0.0849456787109375;-0.163421630859375;-0.9971771240234375;0.014883608557283878;-0.01134080532938242;0.0016290555940940976
-0.0849456787109375;-0.163421630859375;-0.9971771240234375;0.014883608557283878;-0.01134080532938242;0.0016290555940940976
-0.0845794677734375;-0.1629486083984375;-0.995513916015625;0.008046741597354412;-0.011066765524446964;0.0018927085911855102
-0.0845794677734375;-0.1629486083984375;-0.995513916015625;0.008046741597354412;-0.011066765524446964;0.0018927085911855102
-0.0845794677734375;-0.1629486083984375;-0.995513916015625;0.008046741597354412;-0.011066765524446964;0.0018927085911855102
-0.0845794677734375;-0.1629486083984375;-0.995513916015625;0.008046741597354412;-0.011066765524446964;0.0018927085911855102
-0.0845794677734375;-0.1629486083984375;-0.995513916015625;0.008046741597354412;-0.011066765524446964;0.0018927085911855102
-0.084564208984375;-0.1631317138671875;-0.9947357177734375;0.005094094667583704;-0.007462976034730673;0.002939330879598856
-0.084564208984375;-0.1631317138671875;-0.9947357177734375;0.005094094667583704;-0.007462976034730673;0.002939330879598856
-0.084564208984375;-0.1631317138671875;-0.9947357177734375;0.005094094667583704;-0.007462976034730673;0.002939330879598856
-0.084564208984375;-0.1631317138671875;-0.9947357177734375;0.005094094667583704;-0.007462976034730673;0.002939330879598856
-0.084564208984375;-0.1631317138671875;-0.9947357177734375;0.005094094667583704;-0.007462976034730673;0.002939330879598856
-0.0840911865234375;-0.161895751953125;-0.996307373046875;0.002514024032279849;-0.005935120861977339;0.00421258807182312
-0.0840911865234375;-0.161895751953125;-0.996307373046875;0.002514024032279849;-0.005935120861977339;0.00421258807182312
-0.0840911865234375;-0.161895751953125;-0.996307373046875;0.002514024032279849;-0.005935120861977339;0.00421258807182312
-0.0840911865234375;-0.161895751953125;-0.996307373046875;0.002514024032279849;-0.005935120861977339;0.00421258807182312
-0.0840911865234375;-0.161895751953125;-0.996307373046875;0.002514024032279849;-0.005935120861977339;0.00421258807182312
-0.0852203369140625;-0.1627197265625;-0.99664306640625;-0.0009198558400385082;-0.003212571144104004;0.0017390442080795765
-0.0852203369140625;-0.1627197265625;-0.99664306640625;-0.0009198558400385082;-0.003212571144104004;0.0017390442080795765
-0.0852203369140625;-0.1627197265625;-0.99664306640625;-0.0009198558400385082;-0.003212571144104004;0.0017390442080795765
-0.0852203369140625;-0.1627197265625;-0.99664306640625;-0.0009198558400385082;-0.003212571144104004;0.0017390442080795765
-0.0852203369140625;-0.1627197265625;-0.99664306640625;-0.0009198558400385082;-0.003212571144104004;0.0017390442080795765
-0.0851898193359375;-0.1634674072265625;-0.996551513671875;-0.0004468784318305552;-0.0014647386269643903;0.0024945829063653946
-0.0851898193359375;-0.1634674072265625;-0.996551513671875;-0.0004468784318305552;-0.0014647386269643903;0.0024945829063653946
-0.0851898193359375;-0.1634674072265625;-0.996551513671875;-0.0004468784318305552;-0.0014647386269643903;0.0024945829063653946
-0.0851898193359375;-0.1634674072265625;-0.996551513671875;-0.0004468784318305552;-0.0014647386269643903;0.0024945829063653946
-0.0851898193359375;-0.1634674072265625;-0.996551513671875;-0.0004468784318305552;-0.0014647386269643903;0.0024945829063653946
-0.085693359375;-0.164154052734375;-0.99920654296875;0.0013158678775653243;-0.004343882203102112;0.0026056368369609118
-0.085693359375;-0.164154052734375;-0.99920654296875;0.0013158678775653243;-0.004343882203102112;0.0026056368369609118
-0.085693359375;-0.164154052734375;-0.99920654296875;0.0013158678775653243;-0.004343882203102112;0.0026056368369609118
-0.085693359375;-0.164154052734375;-0.99920654296875;0.0013158678775653243;-0.004343882203102112;0.0026056368369609118
-0.085693359375;-0.164154052734375;-0.99920654296875;0.0013158678775653243;-0.004343882203102112;0.0026056368369609118
-0.086761474609375;-0.1634674072265625;-0.9993743896484375;0.003224555402994156;-0.0057558901607990265;0.0027377295773476362
-0.086761474609375;-0.1634674072265625;-0.9993743896484375;0.003224555402994156;-0.0057558901607990265;0.0027377295773476362
-0.086761474609375;-0.1634674072265625;-0.9993743896484375;0.003224555402994156;-0.0057558901607990265;0.0027377295773476362
-0.086761474609375;-0.1634674072265625;-0.9993743896484375;0.003224555402994156;-0.0057558901607990265;0.0027377295773476362
-0.086761474609375;-0.1634674072265625;-0.9993743896484375;0.003224555402994156;-0.0057558901607990265;0.0027377295773476362
-0.08770751953125;-0.1643524169921875;-1.0004119873046875;0.0064951833337545395;-0.00720678037032485;0.002892459277063608
-0.08770751953125;-0.1643524169921875;-1.0004119873046875;0.0064951833337545395;-0.00720678037032485;0.002892459277063608
-0.08770751953125;-0.1643524169921875;-1.0004119873046875;0.0064951833337545395;-0.00720678037032485;0.002892459277063608
-0.08770751953125;-0.1643524169921875;-1.0004119873046875;0.0064951833337545395;-0.00720678037032485;0.002892459277063608
-0.08770751953125;-0.1643524169921875;-1.0004119873046875;0.0064951833337545395;-0.00720678037032485;0.002892459277063608
-0.0868988037109375;-0.16461181640625;-1.001922607421875;0.0075545888394117355;-0.010459299199283123;0.000743820914067328
-0.0868988037109375;-0.16461181640625;-1.001922607421875;0.0075545888394117355;-0.010459299199283123;0.000743820914067328
-0.0868988037109375;-0.16461181640625;-1.001922607421875;0.0075545888394117355;-0.010459299199283123;0.000743820914067328
-0.0868988037109375;-0.16461181640625;-1.001922607421875;0.0075545888394117355;-0.010459299199283123;0.000743820914067328
-0.0868988037109375;-0.16461181640625;-1.001922607421875;0.0075545888394117355;-0.010459299199283123;0.000743820914067328
-0.0874176025390625;-0.16473388671875;-1.0015716552734375;0.009177785366773605;-0.010234261862933636;0.0003312972257845104
-0.0874176025390625;-0.16473388671875;-1.0015716552734375;0.009177785366773605;-0.010234261862933636;0.0003312972257845104
-0.0874176025390625;-0.16473388671875;-1.0015716552734375;0.009177785366773605;-0.010234261862933636;0.0003312972257845104
-0.0874176025390625;-0.16473388671875;-1.0015716552734375;0.009177785366773605;-0.010234261862933636;0.0003312972257845104
-0.0874176025390625;-0.16473388671875;-1.0015716552734375;0.009177785366773605;-0.010234261862933636;0.0003312972257845104
-0.0871124267578125;-0.1652374267578125;-1.0020751953125;0.010086722671985626;-0.0122428173199296;-4.5273736759554595e-06
-0.0871124267578125;-0.1652374267578125;-1.0020751953125;0.010086722671985626;-0.0122428173199296;-4.5273736759554595e-06
-0.0871124267578125;-0.1652374267578125;-1.0020751953125;0.010086722671985626;-0.0122428173199296;-4.5273736759554595e-06
-0.0871124267578125;-0.1652374267578125;-1.0020751953125;0.010086722671985626;-0.0122428173199296;-4.5273736759554595e-06
-0.0871124267578125;-0.1652374267578125;-1.0020751953125;0.010086722671985626;-0.0122428173199296;-4.5273736759554595e-06
-0.08642578125;-0.1663818359375;-1.00164794921875;0.009918943047523499;-0.009609750472009182;0.0016551546286791563
-0.08642578125;-0.1663818359375;-1.00164794921875;0.009918943047523499;-0.009609750472009182;0.0016551546286791563
-0.08642578125;-0.1663818359375;-1.00164794921875;0.009918943047523499;-0.009609750472009182;0.0016551546286791563
-0.08642578125;-0.1663818359375;-1.00164794921875;0.009918943047523499;-0.009609750472009182;0.0016551546286791563
-0.08642578125;-0.1663818359375;-1.00164794921875;0.009918943047523499;-0.009609750472009182;0.0016551546286791563
-0.08544921875;-0.167144775390625;-1.0006866455078125;0.009290969930589199;-0.008131695911288261;0.00012596751912496984
-0.08544921875;-0.167144775390625;-1.0006866455078125;0.009290969930589199;-0.008131695911288261;0.00012596751912496984
-0.08544921875;-0.167144775390625;-1.0006866455078125;0.009290969930589199;-0.008131695911288261;0.00012596751912496984
-0.08544921875;-0.167144775390625;-1.0006866455078125;0.009290969930589199;-0.008131695911288261;0.00012596751912496984
-0.08544921875;-0.167144775390625;-1.0006866455078125;0.009290969930589199;-0.008131695911288261;0.00012596751912496984
-0.0855560302734375;-0.168243408203125;-1.0027008056640625;0.0057383133098483086;-0.0041089910082519054;0.0011560781858861446
-0.0855560302734375;-0.168243408203125;-1.0027008056640625;0.0057383133098483086;-0.0041089910082519054;0.0011560781858861446
-0.0855560302734375;-0.168243408203125;-1.0027008056640625;0.0057383133098483086;-0.0041089910082519054;0.0011560781858861446
-0.0855560302734375;-0.168243408203125;-1.0027008056640625;0.0057383133098483086;-0.0041089910082519054;0.0011560781858861446
-0.0855560302734375;-0.168243408203125;-1.0027008056640625;0.0057383133098483086;-0.0041089910082519054;0.0011560781858861446
-0.0858306884765625;-0.1695098876953125;-1.0035247802734375;0.003952397499233484;-0.0012181298807263374;0.002398442942649126
-0.0858306884765625;-0.1695098876953125;-1.0035247802734375;0.003952397499233484;-0.0012181298807263374;0.002398442942649126
-0.0858306884765625;-0.1695098876953125;-1.0035247802734375;0.003952397499233484;-0.0012181298807263374;0.002398442942649126
-0.0858306884765625;-0.1695098876953125;-1.0035247802734375;0.003952397499233484;-0.0012181298807263374;0.002398442942649126
-0.0858306884765625;-0.1695098876953125;-1.0035247802734375;0.003952397499233484;-0.0012181298807263374;0.002398442942649126
-0.0862274169921875;-0.169677734375;-1.0048065185546875;0.005702893249690533;0.0006202502408996224;-0.00015686018741689622
-0.0862274169921875;-0.169677734375;-1.0048065185546875;0.005702893249690533;0.0006202502408996224;-0.00015686018741689622
-0.0862274169921875;-0.169677734375;-1.0048065185546875;0.005702893249690533;0.0006202502408996224;-0.00015686018741689622
-0.0862274169921875;-0.169677734375;-1.0048065185546875;0.005702893249690533;0.0006202502408996224;-0.00015686018741689622
-0.0869140625;-0.169921875;-1.007476806640625;0.008715727366507053;0.003093527862802148;-0.0003403519804123789
-0.0869140625;-0.169921875;-1.007476806640625;0.008715727366507053;0.003093527862802148;-0.0003403519804123789
-0.0869140625;-0.169921875;-1.007476806640625;0.008715727366507053;0.003093527862802148;-0.0003403519804123789
-0.0869140625;-0.169921875;-1.007476806640625;0.008715727366507053;0.003093527862802148;-0.0003403519804123789
-0.0869140625;-0.169921875;-1.007476806640625;0.008715727366507053;0.003093527862802148;-0.0003403519804123789
-0.0869140625;-0.169921875;-1.007476806640625;0.01209687627851963;0.004395014606416225;-0.001710814656689763
-0.087646484375;-0.1691131591796875;-1.009735107421875;0.01209687627851963;0.004395014606416225;-0.001710814656689763
-0.087646484375;-0.1691131591796875;-1.009735107421875;0.01209687627851963;0.004395014606416225;-0.001710814656689763
-0.087646484375;-0.1691131591796875;-1.009735107421875;0.01209687627851963;0.004395014606416225;-0.001710814656689763
-0.087646484375;-0.1691131591796875;-1.009735107421875;0.01209687627851963;0.004395014606416225;-0.001710814656689763
-0.087646484375;-0.1691131591796875;-1.009735107421875;0.015543007291853428;0.0048829056322574615;0.0003001382574439049
-0.0878143310546875;-0.1681671142578125;-1.0119476318359375;0.015543007291853428;0.0048829056322574615;0.0003001382574439049
-0.0878143310546875;-0.1681671142578125;-1.0119476318359375;0.015543007291853428;0.0048829056322574615;0.0003001382574439049
-0.0878143310546875;-0.1681671142578125;-1.0119476318359375;0.015543007291853428;0.0048829056322574615;0.0003001382574439049
-0.0878143310546875;-0.1681671142578125;-1.0119476318359375;0.015543007291853428;0.0048829056322574615;0.0003001382574439049
-0.0895843505859375;-0.1694793701171875;-1.012786865234375;0.014901718124747276;0.005575327668339014;0.0027473168447613716
-0.0895843505859375;-0.1694793701171875;-1.012786865234375;0.014901718124747276;0.005575327668339014;0.0027473168447613716
-0.0895843505859375;-0.1694793701171875;-1.012786865234375;0.014901718124747276;0.005575327668339014;0.0027473168447613716
-0.0895843505859375;-0.1694793701171875;-1.012786865234375;0.014901718124747276;0.005575327668339014;0.0027473168447613716
-0.0895843505859375;-0.1694793701171875;-1.012786865234375;0.014901718124747276;0.005575327668339014;0.0027473168447613716
-0.0896453857421875;-0.1690673828125;-1.0128936767578125;0.009046758525073528;-0.00264798104763031;-0.0002511360798962414
-0.0896453857421875;-0.1690673828125;-1.0128936767578125;0.009046758525073528;-0.00264798104763031;-0.0002511360798962414
-0.0896453857421875;-0.1690673828125;-1.0128936767578125;0.009046758525073528;-0.00264798104763031;-0.0002511360798962414
-0.0896453857421875;-0.1690673828125;-1.0128936767578125;0.009046758525073528;-0.00264798104763031;-0.0002511360798962414
-0.0896453857421875;-0.1690673828125;-1.0128936767578125;0.009046758525073528;-0.00264798104763031;-0.0002511360798962414
-0.0902252197265625;-0.167877197265625;-1.0081939697265625;-0.002478603972122073;0.0024346618447452784;0.002950782421976328
-0.0902252197265625;-0.167877197265625;-1.0081939697265625;-0.002478603972122073;0.0024346618447452784;0.002950782421976328
-0.0902252197265625;-0.167877197265625;-1.0081939697265625;-0.002478603972122073;0.0024346618447452784;0.002950782421976328
-0.0902252197265625;-0.167877197265625;-1.0081939697265625;-0.002478603972122073;0.0024346618447452784;0.002950782421976328
-0.0902252197265625;-0.167877197265625;-1.0081939697265625;-0.002478603972122073;0.0024346618447452784;0.002950782421976328
-0.0914764404296875;-0.168487548828125;-1.0013275146484375;-0.020800353959202766;0.010537329129874706;0.0054570832289755344
-0.0914764404296875;-0.168487548828125;-1.0013275146484375;-0.020800353959202766;0.010537329129874706;0.0054570832289755344
-0.0914764404296875;-0.168487548828125;-1.0013275146484375;-0.020800353959202766;0.010537329129874706;0.0054570832289755344
-0.0914764404296875;-0.168487548828125;-1.0013275146484375;-0.020800353959202766;0.010537329129874706;0.0054570832289755344
-0.0914764404296875;-0.168487548828125;-1.0013275146484375;-0.020800353959202766;0.010537329129874706;0.0054570832289755344
-0.09063720703125;-0.1697998046875;-0.99896240234375;-0.04309021309018135;0.017140105366706848;0.010521883144974709
-0.09063720703125;-0.1697998046875;-0.99896240234375;-0.04309021309018135;0.017140105366706848;0.010521883144974709
-0.09063720703125;-0.1697998046875;-0.99896240234375;-0.04309021309018135;0.017140105366706848;0.010521883144974709
-0.09063720703125;-0.1697998046875;-0.99896240234375;-0.04309021309018135;0.017140105366706848;0.010521883144974709
-0.09063720703125;-0.1697998046875;-0.99896240234375;-0.04309021309018135;0.017140105366706848;0.010521883144974709
-0.0907745361328125;-0.1695556640625;-0.9968414306640625;-0.06702723354101181;0.020361730828881264;0.013852166011929512
-0.0907745361328125;-0.1695556640625;-0.9968414306640625;-0.06702723354101181;0.020361730828881264;0.013852166011929512
-0.0907745361328125;-0.1695556640625;-0.9968414306640625;-0.06702723354101181;0.020361730828881264;0.013852166011929512
-0.0907745361328125;-0.1695556640625;-0.9968414306640625;-0.06702723354101181;0.020361730828881264;0.013852166011929512
-0.0907745361328125;-0.1695556640625;-0.9968414306640625;-0.06702723354101181;0.020361730828881264;0.013852166011929512
-0.091888427734375;-0.16668701171875;-0.99609375;-0.06702723354101181;0.020361730828881264;0.013852166011929512
-0.091888427734375;-0.16668701171875;-0.99609375;-0.08811095356941223;0.02322169952094555;0.01251179724931717
-0.091888427734375;-0.16668701171875;-0.99609375;-0.08811095356941223;0.02322169952094555;0.01251179724931717
-0.091888427734375;-0.16668701171875;-0.99609375;-0.08811095356941223;0.02322169952094555;0.01251179724931717
-0.091888427734375;-0.16668701171875;-0.99609375;-0.08811095356941223;0.02322169952094555;0.01251179724931717
-0.092071533203125;-0.162841796875;-0.9930267333984375;-0.1050686314702034;0.025599902495741844;0.01630680076777935
-0.092071533203125;-0.162841796875;-0.9930267333984375;-0.1050686314702034;0.025599902495741844;0.01630680076777935
-0.092071533203125;-0.162841796875;-0.9930267333984375;-0.1050686314702034;0.025599902495741844;0.01630680076777935
-0.092071533203125;-0.162841796875;-0.9930267333984375;-0.1050686314702034;0.025599902495741844;0.01630680076777935
-0.092071533203125;-0.162841796875;-0.9930267333984375;-0.1050686314702034;0.025599902495741844;0.01630680076777935
-0.0909423828125;-0.1593780517578125;-0.991302490234375;-0.11624325066804886;0.02046319656074047;0.011530156247317791
-0.0909423828125;-0.1593780517578125;-0.991302490234375;-0.11624325066804886;0.02046319656074047;0.011530156247317791
-0.0909423828125;-0.1593780517578125;-0.991302490234375;-0.11624325066804886;0.02046319656074047;0.011530156247317791
-0.0909423828125;-0.1593780517578125;-0.991302490234375;-0.11624325066804886;0.02046319656074047;0.011530156247317791
-0.0909423828125;-0.1593780517578125;-0.991302490234375;-0.11624325066804886;0.02046319656074047;0.011530156247317791
-0.0885772705078125;-0.15625;-0.9937744140625;-0.12846049666404724;0.017167801037430763;0.011893677525222301
-0.0885772705078125;-0.15625;-0.9937744140625;-0.12846049666404724;0.017167801037430763;0.011893677525222301
-0.0885772705078125;-0.15625;-0.9937744140625;-0.12846049666404724;0.017167801037430763;0.011893677525222301
-0.0885772705078125;-0.15625;-0.9937744140625;-0.12846049666404724;0.017167801037430763;0.011893677525222301
-0.0885772705078125;-0.15625;-0.9937744140625;-0.12846049666404724;0.017167801037430763;0.011893677525222301
-0.087860107421875;-0.1535491943359375;-0.9979705810546875;-0.13432611525058746;0.019657324999570847;0.00890747457742691
-0.087860107421875;-0.1535491943359375;-0.9979705810546875;-0.13432611525058746;0.019657324999570847;0.00890747457742691
-0.087860107421875;-0.1535491943359375;-0.9979705810546875;-0.13432611525058746;0.019657324999570847;0.00890747457742691
-0.087860107421875;-0.1535491943359375;-0.9979705810546875;-0.13432611525058746;0.019657324999570847;0.00890747457742691
-0.087860107421875;-0.1535491943359375;-0.9979705810546875;-0.13432611525058746;0.019657324999570847;0.00890747457742691
-0.0882415771484375;-0.1526947021484375;-0.9995880126953125;-0.14340217411518097;0.023542610928416252;0.007631820626556873
-0.0882415771484375;-0.1526947021484375;-0.9995880126953125;-0.14340217411518097;0.023542610928416252;0.007631820626556873
-0.0882415771484375;-0.1526947021484375;-0.9995880126953125;-0.14340217411518097;0.023542610928416252;0.007631820626556873
-0.0882415771484375;-0.1526947021484375;-0.9995880126953125;-0.14340217411518097;0.023542610928416252;0.007631820626556873
-0.0882415771484375;-0.1526947021484375;-0.9995880126953125;-0.14340217411518097;0.023542610928416252;0.007631820626556873
-0.0887298583984375;-0.152618408203125;-0.995361328125;-0.14933276176452637;0.03641553223133087;0.004160656593739986
-0.0887298583984375;-0.152618408203125;-0.995361328125;-0.14933276176452637;0.03641553223133087;0.004160656593739986
-0.0887298583984375;-0.152618408203125;-0.995361328125;-0.14933276176452637;0.03641553223133087;0.004160656593739986
-0.0887298583984375;-0.152618408203125;-0.995361328125;-0.14933276176452637;0.03641553223133087;0.004160656593739986
-0.0887298583984375;-0.152618408203125;-0.995361328125;-0.14933276176452637;0.03641553223133087;0.004160656593739986
-0.0885162353515625;-0.155059814453125;-0.9945526123046875;-0.14698173105716705;0.04766978323459625;0.001990979304537177
-0.0885162353515625;-0.155059814453125;-0.9945526123046875;-0.14698173105716705;0.04766978323459625;0.001990979304537177
-0.0885162353515625;-0.155059814453125;-0.9945526123046875;-0.14698173105716705;0.04766978323459625;0.001990979304537177
-0.0885162353515625;-0.155059814453125;-0.9945526123046875;-0.14698173105716705;0.04766978323459625;0.001990979304537177
-0.0885162353515625;-0.155059814453125;-0.9945526123046875;-0.14698173105716705;0.04766978323459625;0.001990979304537177
-0.0867919921875;-0.155731201171875;-0.9997100830078125;-0.1361839324235916;0.04691797494888306;0.0017963021527975798
-0.0867919921875;-0.155731201171875;-0.9997100830078125;-0.1361839324235916;0.04691797494888306;0.0017963021527975798
-0.0867919921875;-0.155731201171875;-0.9997100830078125;-0.1361839324235916;0.04691797494888306;0.0017963021527975798
-0.0867919921875;-0.155731201171875;-0.9997100830078125;-0.1361839324235916;0.04691797494888306;0.0017963021527975798
-0.0867919921875;-0.155731201171875;-0.9997100830078125;-0.1361839324235916;0.04691797494888306;0.0017963021527975798
-0.0845489501953125;-0.153839111328125;-1.0070648193359375;-0.10981890559196472;0.04471500590443611;0.0029342707712203264
-0.0845489501953125;-0.153839111328125;-1.0070648193359375;-0.10981890559196472;0.04471500590443611;0.0029342707712203264
-0.0845489501953125;-0.153839111328125;-1.0070648193359375;-0.10981890559196472;0.04471500590443611;0.0029342707712203264
-0.0845489501953125;-0.153839111328125;-1.0070648193359375;-0.10981890559196472;0.04471500590443611;0.0029342707712203264
-0.0845489501953125;-0.153839111328125;-1.0070648193359375;-0.10981890559196472;0.04471500590443611;0.0029342707712203264
-0.08245849609375;-0.1534423828125;-1.0141143798828125;-0.07668998092412949;0.032108135521411896;0.001499359728768468
-0.08245849609375;-0.1534423828125;-1.0141143798828125;-0.07668998092412949;0.032108135521411896;0.001499359728768468
-0.08245849609375;-0.1534423828125;-1.0141143798828125;-0.07668998092412949;0.032108135521411896;0.001499359728768468
-0.08245849609375;-0.1534423828125;-1.0141143798828125;-0.07668998092412949;0.032108135521411896;0.001499359728768468
-0.08245849609375;-0.1534423828125;-1.0141143798828125;-0.07668998092412949;0.032108135521411896;0.001499359728768468
-0.0812530517578125;-0.1535491943359375;-1.0150909423828125;-0.05079393833875656;0.021519141271710396;0.0015789881581440568
-0.0812530517578125;-0.1535491943359375;-1.0150909423828125;-0.05079393833875656;0.021519141271710396;0.0015789881581440568
-0.0812530517578125;-0.1535491943359375;-1.0150909423828125;-0.05079393833875656;0.021519141271710396;0.0015789881581440568
-0.0812530517578125;-0.1535491943359375;-1.0150909423828125;-0.05079393833875656;0.021519141271710396;0.0015789881581440568
-0.0812530517578125;-0.1535491943359375;-1.0150909423828125;-0.05079393833875656;0.021519141271710396;0.0015789881581440568
-0.0816802978515625;-0.154876708984375;-1.0130615234375;-0.025913622230291367;0.01865118183195591;0.004378769546747208
-0.0816802978515625;-0.154876708984375;-1.0130615234375;-0.025913622230291367;0.01865118183195591;0.004378769546747208
-0.0816802978515625;-0.154876708984375;-1.0130615234375;-0.025913622230291367;0.01865118183195591;0.004378769546747208
-0.0816802978515625;-0.154876708984375;-1.0130615234375;-0.025913622230291367;0.01865118183195591;0.004378769546747208
-0.0816802978515625;-0.154876708984375;-1.0130615234375;-0.025913622230291367;0.01865118183195591;0.004378769546747208
-0.084320068359375;-0.1558837890625;-1.0062103271484375;-0.013423663564026356;0.019405389204621315;0.004536961205303669
-0.084320068359375;-0.1558837890625;-1.0062103271484375;-0.013423663564026356;0.019405389204621315;0.004536961205303669
-0.084320068359375;-0.1558837890625;-1.0062103271484375;-0.013423663564026356;0.019405389204621315;0.004536961205303669
-0.084320068359375;-0.1558837890625;-1.0062103271484375;-0.013423663564026356;0.019405389204621315;0.004536961205303669
-0.084320068359375;-0.1558837890625;-1.0062103271484375;-0.013423663564026356;0.019405389204621315;0.004536961205303669
-0.0865936279296875;-0.1553802490234375;-0.9988861083984375;-0.014539794065058231;0.026561835780739784;0.002182993106544018
-0.0865936279296875;-0.1553802490234375;-0.9988861083984375;-0.014539794065058231;0.026561835780739784;0.002182993106544018
-0.0865936279296875;-0.1553802490234375;-0.9988861083984375;-0.014539794065058231;0.026561835780739784;0.002182993106544018
-0.0865936279296875;-0.1553802490234375;-0.9988861083984375;-0.014539794065058231;0.026561835780739784;0.002182993106544018
-0.0865936279296875;-0.1553802490234375;-0.9988861083984375;-0.014539794065058231;0.026561835780739784;0.002182993106544018
-0.0876007080078125;-0.1532745361328125;-0.9918365478515625;-0.021926604211330414;0.031027425080537796;-6.73779723001644e-05
-0.0876007080078125;-0.1532745361328125;-0.9918365478515625;-0.021926604211330414;0.031027425080537796;-6.73779723001644e-05
-0.0876007080078125;-0.1532745361328125;-0.9918365478515625;-0.021926604211330414;0.031027425080537796;-6.73779723001644e-05
-0.0876007080078125;-0.1532745361328125;-0.9918365478515625;-0.021926604211330414;0.031027425080537796;-6.73779723001644e-05
-0.0876007080078125;-0.1532745361328125;-0.9918365478515625;-0.021926604211330414;0.031027425080537796;-6.73779723001644e-05
-0.0872039794921875;-0.149932861328125;-0.9864501953125;-0.03789838030934334;0.033904436975717545;0.0028485171496868134
-0.0872039794921875;-0.149932861328125;-0.9864501953125;-0.03789838030934334;0.033904436975717545;0.0028485171496868134
-0.0872039794921875;-0.149932861328125;-0.9864501953125;-0.03789838030934334;0.033904436975717545;0.0028485171496868134
-0.0872039794921875;-0.149932861328125;-0.9864501953125;-0.03789838030934334;0.033904436975717545;0.0028485171496868134
-0.0872039794921875;-0.149932861328125;-0.9864501953125;-0.03789838030934334;0.033904436975717545;0.0028485171496868134
-0.0856781005859375;-0.148681640625;-0.98614501953125;-0.051124703139066696;0.03410124406218529;0.0032226911280304193
-0.0856781005859375;-0.148681640625;-0.98614501953125;-0.051124703139066696;0.03410124406218529;0.0032226911280304193
-0.0856781005859375;-0.148681640625;-0.98614501953125;-0.051124703139066696;0.03410124406218529;0.0032226911280304193
-0.0856781005859375;-0.148681640625;-0.98614501953125;-0.051124703139066696;0.03410124406218529;0.0032226911280304193
-0.0856781005859375;-0.148681640625;-0.98614501953125;-0.051124703139066696;0.03410124406218529;0.0032226911280304193
-0.084228515625;-0.147674560546875;-0.98876953125;-0.06388790160417557;0.024768995121121407;0.0018125474452972412
-0.084228515625;-0.147674560546875;-0.98876953125;-0.06388790160417557;0.024768995121121407;0.0018125474452972412
-0.084228515625;-0.147674560546875;-0.98876953125;-0.06388790160417557;0.024768995121121407;0.0018125474452972412
-0.084228515625;-0.147674560546875;-0.98876953125;-0.06388790160417557;0.024768995121121407;0.0018125474452972412
-0.084228515625;-0.147674560546875;-0.98876953125;-0.06388790160417557;0.024768995121121407;0.0018125474452972412
-0.082733154296875;-0.1475982666015625;-0.994964599609375;-0.07213491201400757;0.015231949277222157;-0.0008290420519188046
-0.082733154296875;-0.1475982666015625;-0.994964599609375;-0.07213491201400757;0.015231949277222157;-0.0008290420519188046
-0.082733154296875;-0.1475982666015625;-0.994964599609375;-0.07213491201400757;0.015231949277222157;-0.0008290420519188046
-0.082733154296875;-0.1475982666015625;-0.994964599609375;-0.07213491201400757;0.015231949277222157;-0.0008290420519188046
-0.082733154296875;-0.1475982666015625;-0.994964599609375;-0.07213491201400757;0.015231949277222157;-0.0008290420519188046
-0.08056640625;-0.146331787109375;-0.9999237060546875;-0.0687476396560669;0.007637945935130119;0.0025100293569266796
-0.08056640625;-0.146331787109375;-0.9999237060546875;-0.0687476396560669;0.007637945935130119;0.0025100293569266796
-0.08056640625;-0.146331787109375;-0.9999237060546875;-0.0687476396560669;0.007637945935130119;0.0025100293569266796
-0.08056640625;-0.146331787109375;-0.9999237060546875;-0.0687476396560669;0.007637945935130119;0.0025100293569266796
-0.08056640625;-0.146331787109375;-0.9999237060546875;-0.0687476396560669;0.007637945935130119;0.0025100293569266796
-0.0809478759765625;-0.1458587646484375;-1.0044708251953125;-0.060440175235271454;-0.0036962011363357306;0.0019110844004899263
-0.0809478759765625;-0.1458587646484375;-1.0044708251953125;-0.060440175235271454;-0.0036962011363357306;0.0019110844004899263
-0.0809478759765625;-0.1458587646484375;-1.0044708251953125;-0.060440175235271454;-0.0036962011363357306;0.0019110844004899263
-0.0809478759765625;-0.1458587646484375;-1.0044708251953125;-0.060440175235271454;-0.0036962011363357306;0.0019110844004899263
-0.0809478759765625;-0.1458587646484375;-1.0044708251953125;-0.060440175235271454;-0.0036962011363357306;0.0019110844004899263
-0.08209228515625;-0.1453094482421875;-1.00738525390625;-0.04770200699567795;-0.0037462685722857714;0.0013235911028459668
-0.08209228515625;-0.1453094482421875;-1.00738525390625;-0.04770200699567795;-0.0037462685722857714;0.0013235911028459668
-0.08209228515625;-0.1453094482421875;-1.00738525390625;-0.04770200699567795;-0.0037462685722857714;0.0013235911028459668
-0.08209228515625;-0.1453094482421875;-1.00738525390625;-0.04770200699567795;-0.0037462685722857714;0.0013235911028459668
-0.08209228515625;-0.1453094482421875;-1.00738525390625;-0.04770200699567795;-0.0037462685722857714;0.0013235911028459668
-0.0821990966796875;-0.1446685791015625;-1.0104827880859375;-0.035655997693538666;0.0008229167433455586;0.0015598133904859424
-0.0821990966796875;-0.1446685791015625;-1.0104827880859375;-0.035655997693538666;0.0008229167433455586;0.0015598133904859424
-0.0821990966796875;-0.1446685791015625;-1.0104827880859375;-0.035655997693538666;0.0008229167433455586;0.0015598133904859424
-0.0821990966796875;-0.1446685791015625;-1.0104827880859375;-0.035655997693538666;0.0008229167433455586;0.0015598133904859424
-0.0821990966796875;-0.1446685791015625;-1.0104827880859375;-0.035655997693538666;0.0008229167433455586;0.0015598133904859424
-0.0825042724609375;-0.145843505859375;-1.0129852294921875;-0.023516777902841568;0.00401684595271945;-0.002252501668408513
-0.0825042724609375;-0.145843505859375;-1.0129852294921875;-0.023516777902841568;0.00401684595271945;-0.002252501668408513
-0.0825042724609375;-0.145843505859375;-1.0129852294921875;-0.023516777902841568;0.00401684595271945;-0.002252501668408513
-0.0825042724609375;-0.145843505859375;-1.0129852294921875;-0.023516777902841568;0.00401684595271945;-0.002252501668408513
-0.0825042724609375;-0.145843505859375;-1.0129852294921875;-0.023516777902841568;0.00401684595271945;-0.002252501668408513
-0.0828857421875;-0.147705078125;-1.0161590576171875;-0.007985488511621952;0.014239922165870667;-0.001577123999595642
-0.0828857421875;-0.147705078125;-1.0161590576171875;-0.007985488511621952;0.014239922165870667;-0.001577123999595642
-0.0828857421875;-0.147705078125;-1.0161590576171875;-0.007985488511621952;0.014239922165870667;-0.001577123999595642
-0.0828857421875;-0.147705078125;-1.0161590576171875;-0.007985488511621952;0.014239922165870667;-0.001577123999595642
-0.0828857421875;-0.147705078125;-1.0161590576171875;-0.007985488511621952;0.014239922165870667;-0.001577123999595642
-0.083251953125;-0.14886474609375;-1.01690673828125;-0.002103897277265787;0.017315873876214027;-0.007391870021820068
-0.083251953125;-0.14886474609375;-1.01690673828125;-0.002103897277265787;0.017315873876214027;-0.007391870021820068
-0.083251953125;-0.14886474609375;-1.01690673828125;-0.002103897277265787;0.017315873876214027;-0.007391870021820068
-0.083251953125;-0.14886474609375;-1.01690673828125;-0.002103897277265787;0.017315873876214027;-0.007391870021820068
-0.083251953125;-0.14886474609375;-1.01690673828125;-0.002103897277265787;0.017315873876214027;-0.007391870021820068
-0.0827789306640625;-0.1498870849609375;-1.015869140625;0.0015755260828882456;0.02087465487420559;-0.009152219630777836
-0.0827789306640625;-0.1498870849609375;-1.015869140625;0.0015755260828882456;0.02087465487420559;-0.009152219630777836
-0.0827789306640625;-0.1498870849609375;-1.015869140625;0.0015755260828882456;0.02087465487420559;-0.009152219630777836
-0.0827789306640625;-0.1498870849609375;-1.015869140625;0.0015755260828882456;0.02087465487420559;-0.009152219630777836
-0.0827789306640625;-0.1498870849609375;-1.015869140625;0.0015755260828882456;0.02087465487420559;-0.009152219630777836
-0.080810546875;-0.15185546875;-1.01361083984375;-0.00014674017438665032;0.016140088438987732;-0.00863530021160841
-0.080810546875;-0.15185546875;-1.01361083984375;-0.00014674017438665032;0.016140088438987732;-0.00863530021160841
-0.080810546875;-0.15185546875;-1.01361083984375;-0.00014674017438665032;0.016140088438987732;-0.00863530021160841
-0.080810546875;-0.15185546875;-1.01361083984375;-0.00014674017438665032;0.016140088438987732;-0.00863530021160841
-0.080810546875;-0.15185546875;-1.01361083984375;-0.00014674017438665032;0.016140088438987732;-0.00863530021160841
-0.079315185546875;-0.1512451171875;-1.01129150390625;-0.006302903406322002;0.011155715212225914;-0.005685849115252495
-0.079315185546875;-0.1512451171875;-1.01129150390625;-0.006302903406322002;0.011155715212225914;-0.005685849115252495
-0.079315185546875;-0.1512451171875;-1.01129150390625;-0.006302903406322002;0.011155715212225914;-0.005685849115252495
-0.079315185546875;-0.1512451171875;-1.01129150390625;-0.006302903406322002;0.011155715212225914;-0.005685849115252495
-0.079315185546875;-0.1512451171875;-1.01129150390625;-0.006302903406322002;0.011155715212225914;-0.005685849115252495
-0.0782318115234375;-0.1498565673828125;-1.005279541015625;-0.023154322057962418;0.007041397970169783;-4.261057711119065e-06
-0.0782318115234375;-0.1498565673828125;-1.005279541015625;-0.023154322057962418;0.007041397970169783;-4.261057711119065e-06
-0.0782318115234375;-0.1498565673828125;-1.005279541015625;-0.023154322057962418;0.007041397970169783;-4.261057711119065e-06
-0.0782318115234375;-0.1498565673828125;-1.005279541015625;-0.023154322057962418;0.007041397970169783;-4.261057711119065e-06
-0.0782318115234375;-0.1498565673828125;-1.005279541015625;-0.023154322057962418;0.007041397970169783;-4.261057711119065e-06
-0.076873779296875;-0.1476593017578125;-0.995880126953125;-0.04380740225315094;0.012052135542035103;0.0029851372819393873
-0.076873779296875;-0.1476593017578125;-0.995880126953125;-0.04380740225315094;0.012052135542035103;0.0029851372819393873
-0.076873779296875;-0.1476593017578125;-0.995880126953125;-0.04380740225315094;0.012052135542035103;0.0029851372819393873
-0.076873779296875;-0.1476593017578125;-0.995880126953125;-0.04380740225315094;0.012052135542035103;0.0029851372819393873
-0.077880859375;-0.14501953125;-0.989532470703125;-0.0685737356543541;0.015572035685181618;0.007448595017194748
-0.077880859375;-0.14501953125;-0.989532470703125;-0.0685737356543541;0.015572035685181618;0.007448595017194748
-0.077880859375;-0.14501953125;-0.989532470703125;-0.0685737356543541;0.015572035685181618;0.007448595017194748
-0.077880859375;-0.14501953125;-0.989532470703125;-0.0685737356543541;0.015572035685181618;0.007448595017194748
-0.077880859375;-0.14501953125;-0.989532470703125;-0.0685737356543541;0.015572035685181618;0.007448595017194748
-0.078887939453125;-0.142120361328125;-0.98480224609375;-0.09398508816957474;0.0196064580231905;0.005686914082616568
-0.078887939453125;-0.142120361328125;-0.98480224609375;-0.09398508816957474;0.0196064580231905;0.005686914082616568
-0.078887939453125;-0.142120361328125;-0.98480224609375;-0.09398508816957474;0.0196064580231905;0.005686914082616568
-0.078887939453125;-0.142120361328125;-0.98480224609375;-0.09398508816957474;0.0196064580231905;0.005686914082616568
-0.078887939453125;-0.142120361328125;-0.98480224609375;-0.09398508816957474;0.0196064580231905;0.005686914082616568
-0.078887939453125;-0.142120361328125;-0.98480224609375;-0.10782952606678009;0.023196931928396225;0.0076155755668878555
-0.0792388916015625;-0.1397705078125;-0.987335205078125;-0.10782952606678009;0.023196931928396225;0.0076155755668878555
-0.0792388916015625;-0.1397705078125;-0.987335205078125;-0.10782952606678009;0.023196931928396225;0.0076155755668878555
-0.0792388916015625;-0.1397705078125;-0.987335205078125;-0.10782952606678009;0.023196931928396225;0.0076155755668878555
-0.0792388916015625;-0.1397705078125;-0.987335205078125;-0.10782952606678009;0.023196931928396225;0.0076155755668878555
-0.0792694091796875;-0.13787841796875;-0.9932098388671875;-0.11241202801465988;0.018811771646142006;0.007446198258548975
-0.0792694091796875;-0.13787841796875;-0.9932098388671875;-0.11241202801465988;0.018811771646142006;0.007446198258548975
-0.0792694091796875;-0.13787841796875;-0.9932098388671875;-0.11241202801465988;0.018811771646142006;0.007446198258548975
-0.0792694091796875;-0.13787841796875;-0.9932098388671875;-0.11241202801465988;0.018811771646142006;0.007446198258548975
-0.0792694091796875;-0.13787841796875;-0.9932098388671875;-0.11241202801465988;0.018811771646142006;0.007446198258548975
-0.0792694091796875;-0.13787841796875;-0.9932098388671875;-0.10447021573781967;0.013763482682406902;0.009466205723583698
-0.077789306640625;-0.137420654296875;-0.9990997314453125;-0.10447021573781967;0.013763482682406902;0.009466205723583698
-0.077789306640625;-0.137420654296875;-0.9990997314453125;-0.10447021573781967;0.013763482682406902;0.009466205723583698
-0.077789306640625;-0.137420654296875;-0.9990997314453125;-0.10447021573781967;0.013763482682406902;0.009466205723583698
-0.077789306640625;-0.137420654296875;-0.9990997314453125;-0.10447021573781967;0.013763482682406902;0.009466205723583698
-0.0769195556640625;-0.1373443603515625;-1.0068817138671875;-0.08816288411617279;0.003695402294397354;0.008675513789057732
-0.0769195556640625;-0.1373443603515625;-1.0068817138671875;-0.08816288411617279;0.003695402294397354;0.008675513789057732
-0.0769195556640625;-0.1373443603515625;-1.0068817138671875;-0.08816288411617279;0.003695402294397354;0.008675513789057732
-0.0769195556640625;-0.1373443603515625;-1.0068817138671875;-0.08816288411617279;0.003695402294397354;0.008675513789057732
-0.0769195556640625;-0.1373443603515625;-1.0068817138671875;-0.08816288411617279;0.003695402294397354;0.008675513789057732
-0.0758819580078125;-0.137725830078125;-1.0112152099609375;-0.07385078817605972;-0.006887733470648527;0.006196376867592335
-0.0758819580078125;-0.137725830078125;-1.0112152099609375;-0.07385078817605972;-0.006887733470648527;0.006196376867592335
-0.0758819580078125;-0.137725830078125;-1.0112152099609375;-0.07385078817605972;-0.006887733470648527;0.006196376867592335
-0.0758819580078125;-0.137725830078125;-1.0112152099609375;-0.07385078817605972;-0.006887733470648527;0.006196376867592335
-0.0758819580078125;-0.137725830078125;-1.0112152099609375;-0.07385078817605972;-0.006887733470648527;0.006196376867592335
-0.0761871337890625;-0.138275146484375;-1.01202392578125;-0.05167757347226143;-0.015364841558039188;0.005694104824215174
-0.0761871337890625;-0.138275146484375;-1.01202392578125;-0.05167757347226143;-0.015364841558039188;0.005694104824215174
-0.0761871337890625;-0.138275146484375;-1.01202392578125;-0.05167757347226143;-0.015364841558039188;0.005694104824215174
-0.0761871337890625;-0.138275146484375;-1.01202392578125;-0.05167757347226143;-0.015364841558039188;0.005694104824215174
-0.0761871337890625;-0.138275146484375;-1.01202392578125;-0.05167757347226143;-0.015364841558039188;0.005694104824215174
-0.076568603515625;-0.1392669677734375;-1.011016845703125;-0.03566478565335274;-0.015539278276264668;0.006183327175676823
-0.076568603515625;-0.1392669677734375;-1.011016845703125;-0.03566478565335274;-0.015539278276264668;0.006183327175676823
-0.076568603515625;-0.1392669677734375;-1.011016845703125;-0.03566478565335274;-0.015539278276264668;0.006183327175676823
-0.076568603515625;-0.1392669677734375;-1.011016845703125;-0.03566478565335274;-0.015539278276264668;0.006183327175676823
-0.076568603515625;-0.1392669677734375;-1.011016845703125;-0.03566478565335274;-0.015539278276264668;0.006183327175676823
-0.0775146484375;-0.1407012939453125;-1.0088348388671875;-0.020301543176174164;-0.011424960568547249;0.0041044638492167
-0.0775146484375;-0.1407012939453125;-1.0088348388671875;-0.020301543176174164;-0.011424960568547249;0.0041044638492167
-0.0775146484375;-0.1407012939453125;-1.0088348388671875;-0.020301543176174164;-0.011424960568547249;0.0041044638492167
-0.0775146484375;-0.1407012939453125;-1.0088348388671875;-0.020301543176174164;-0.011424960568547249;0.0041044638492167
-0.0775146484375;-0.1407012939453125;-1.0088348388671875;-0.020301543176174164;-0.011424960568547249;0.0041044638492167
-0.0796051025390625;-0.140106201171875;-1.0070037841796875;-0.012601546011865139;-0.0046456181444227695;0.0032381375785917044
-0.0796051025390625;-0.140106201171875;-1.0070037841796875;-0.012601546011865139;-0.0046456181444227695;0.0032381375785917044
-0.0796051025390625;-0.140106201171875;-1.0070037841796875;-0.012601546011865139;-0.0046456181444227695;0.0032381375785917044
-0.0796051025390625;-0.140106201171875;-1.0070037841796875;-0.012601546011865139;-0.0046456181444227695;0.0032381375785917044
-0.0796051025390625;-0.140106201171875;-1.0070037841796875;-0.012601546011865139;-0.0046456181444227695;0.0032381375785917044
-0.080230712890625;-0.1412811279296875;-1.0068817138671875;-0.005645901430398226;-0.0017006946727633476;0.002350505907088518
-0.080230712890625;-0.1412811279296875;-1.0068817138671875;-0.005645901430398226;-0.0017006946727633476;0.002350505907088518
-0.080230712890625;-0.1412811279296875;-1.0068817138671875;-0.005645901430398226;-0.0017006946727633476;0.002350505907088518
-0.080230712890625;-0.1412811279296875;-1.0068817138671875;-0.005645901430398226;-0.0017006946727633476;0.002350505907088518
-0.080230712890625;-0.1412811279296875;-1.0068817138671875;-0.005645901430398226;-0.0017006946727633476;0.002350505907088518
-0.0792694091796875;-0.1399383544921875;-1.0057830810546875;-0.005392634775489569;0.0015869776252657175;0.0049255164340138435
-0.0792694091796875;-0.1399383544921875;-1.0057830810546875;-0.005392634775489569;0.0015869776252657175;0.0049255164340138435
-0.0792694091796875;-0.1399383544921875;-1.0057830810546875;-0.005392634775489569;0.0015869776252657175;0.0049255164340138435
-0.0792694091796875;-0.1399383544921875;-1.0057830810546875;-0.005392634775489569;0.0015869776252657175;0.0049255164340138435
-0.0792694091796875;-0.1399383544921875;-1.0057830810546875;-0.005392634775489569;0.0015869776252657175;0.0049255164340138435
-0.0789794921875;-0.1397552490234375;-1.006103515625;-0.005163336638361216;0.003930825740098953;0.0031092404387891293
-0.0789794921875;-0.1397552490234375;-1.006103515625;-0.005163336638361216;0.003930825740098953;0.0031092404387891293
-0.0789794921875;-0.1397552490234375;-1.006103515625;-0.005163336638361216;0.003930825740098953;0.0031092404387891293
-0.0789794921875;-0.1397552490234375;-1.006103515625;-0.005163336638361216;0.003930825740098953;0.0031092404387891293
-0.0789794921875;-0.1397552490234375;-1.006103515625;-0.005163336638361216;0.003930825740098953;0.0031092404387891293
-0.0786285400390625;-0.13836669921875;-1.004180908203125;-0.00814900640398264;0.007597732357680798;-0.00012117382721044123
-0.0786285400390625;-0.13836669921875;-1.004180908203125;-0.00814900640398264;0.007597732357680798;-0.00012117382721044123
-0.0786285400390625;-0.13836669921875;-1.004180908203125;-0.00814900640398264;0.007597732357680798;-0.00012117382721044123
-0.0786285400390625;-0.13836669921875;-1.004180908203125;-0.00814900640398264;0.007597732357680798;-0.00012117382721044123
-0.0786285400390625;-0.13836669921875;-1.004180908203125;-0.00814900640398264;0.007597732357680798;-0.00012117382721044123
-0.0785980224609375;-0.1353302001953125;-1.00323486328125;-0.012355735525488853;0.005810484755784273;-0.00011265171633567661
-0.0785980224609375;-0.1353302001953125;-1.00323486328125;-0.012355735525488853;0.005810484755784273;-0.00011265171633567661
-0.0785980224609375;-0.1353302001953125;-1.00323486328125;-0.012355735525488853;0.005810484755784273;-0.00011265171633567661
-0.0785980224609375;-0.1353302001953125;-1.00323486328125;-0.012355735525488853;0.005810484755784273;-0.00011265171633567661
-0.0785980224609375;-0.1353302001953125;-1.00323486328125;-0.012355735525488853;0.005810484755784273;-0.00011265171633567661
-0.078125;-0.134979248046875;-1.000579833984375;-0.022714899852871895;0.004289020784199238;-0.0014556838432326913
-0.078125;-0.134979248046875;-1.000579833984375;-0.022714899852871895;0.004289020784199238;-0.0014556838432326913
-0.078125;-0.134979248046875;-1.000579833984375;-0.022714899852871895;0.004289020784199238;-0.0014556838432326913
-0.078125;-0.134979248046875;-1.000579833984375;-0.022714899852871895;0.004289020784199238;-0.0014556838432326913
-0.078125;-0.134979248046875;-1.000579833984375;-0.022714899852871895;0.004289020784199238;-0.0014556838432326913
-0.078704833984375;-0.13372802734375;-0.998443603515625;-0.031063910573720932;0.00612234091386199;0.0019883159548044205
-0.078704833984375;-0.13372802734375;-0.998443603515625;-0.031063910573720932;0.00612234091386199;0.0019883159548044205
-0.078704833984375;-0.13372802734375;-0.998443603515625;-0.031063910573720932;0.00612234091386199;0.0019883159548044205
-0.078704833984375;-0.13372802734375;-0.998443603515625;-0.031063910573720932;0.00612234091386199;0.0019883159548044205
-0.078704833984375;-0.13372802734375;-0.998443603515625;-0.031063910573720932;0.00612234091386199;0.0019883159548044205
-0.079315185546875;-0.1319732666015625;-0.9959259033203125;-0.04075994715094566;0.0065460498444736;5.1132694352418184e-05
-0.079315185546875;-0.1319732666015625;-0.9959259033203125;-0.04075994715094566;0.0065460498444736;5.1132694352418184e-05
-0.079315185546875;-0.1319732666015625;-0.9959259033203125;-0.04075994715094566;0.0065460498444736;5.1132694352418184e-05
-0.079315185546875;-0.1319732666015625;-0.9959259033203125;-0.04075994715094566;0.0065460498444736;5.1132694352418184e-05
-0.079315185546875;-0.1319732666015625;-0.9959259033203125;-0.04075994715094566;0.0065460498444736;5.1132694352418184e-05
-0.0796356201171875;-0.1332550048828125;-0.9957275390625;-0.048418398946523666;0.005805158521980047;-0.0014245248166844249
-0.0796356201171875;-0.1332550048828125;-0.9957275390625;-0.048418398946523666;0.005805158521980047;-0.0014245248166844249
-0.0796356201171875;-0.1332550048828125;-0.9957275390625;-0.048418398946523666;0.005805158521980047;-0.0014245248166844249
-0.0796356201171875;-0.1332550048828125;-0.9957275390625;-0.048418398946523666;0.005805158521980047;-0.0014245248166844249
-0.0796356201171875;-0.1332550048828125;-0.9957275390625;-0.048418398946523666;0.005805158521980047;-0.0014245248166844249
-0.079864501953125;-0.1340789794921875;-0.998138427734375;-0.0496559701859951;0.004123372491449118;0.001713744131848216
-0.079864501953125;-0.1340789794921875;-0.998138427734375;-0.0496559701859951;0.004123372491449118;0.001713744131848216
-0.079864501953125;-0.1340789794921875;-0.998138427734375;-0.0496559701859951;0.004123372491449118;0.001713744131848216
-0.079864501953125;-0.1340789794921875;-0.998138427734375;-0.0496559701859951;0.004123372491449118;0.001713744131848216
-0.079864501953125;-0.1340789794921875;-0.998138427734375;-0.0496559701859951;0.004123372491449118;0.001713744131848216
-0.0799713134765625;-0.1329345703125;-1.0011138916015625;-0.04682236537337303;0.0035233621019870043;0.0011225224006921053
-0.0799713134765625;-0.1329345703125;-1.0011138916015625;-0.04682236537337303;0.0035233621019870043;0.0011225224006921053
-0.0799713134765625;-0.1329345703125;-1.0011138916015625;-0.04682236537337303;0.0035233621019870043;0.0011225224006921053
-0.0799713134765625;-0.1329345703125;-1.0011138916015625;-0.04682236537337303;0.0035233621019870043;0.0011225224006921053
-0.0799713134765625;-0.1329345703125;-1.0011138916015625;-0.04682236537337303;0.0035233621019870043;0.0011225224006921053
-0.0796966552734375;-0.133880615234375;-1.0058746337890625;-0.03485092520713806;0.0062429821118712425;-0.0016998957144096494
-0.0796966552734375;-0.133880615234375;-1.0058746337890625;-0.03485092520713806;0.0062429821118712425;-0.0016998957144096494
-0.0796966552734375;-0.133880615234375;-1.0058746337890625;-0.03485092520713806;0.0062429821118712425;-0.0016998957144096494
-0.0796966552734375;-0.133880615234375;-1.0058746337890625;-0.03485092520713806;0.0062429821118712425;-0.0016998957144096494
-0.0796966552734375;-0.133880615234375;-1.0058746337890625;-0.03485092520713806;0.0062429821118712425;-0.0016998957144096494
-0.08050537109375;-0.1346435546875;-1.0106353759765625;-0.024171914905309677;0.005406483076512814;-0.0024823325220495462
-0.08050537109375;-0.1346435546875;-1.0106353759765625;-0.024171914905309677;0.005406483076512814;-0.0024823325220495462
-0.08050537109375;-0.1346435546875;-1.0106353759765625;-0.024171914905309677;0.005406483076512814;-0.0024823325220495462
-0.08050537109375;-0.1346435546875;-1.0106353759765625;-0.024171914905309677;0.005406483076512814;-0.0024823325220495462
-0.08050537109375;-0.1346435546875;-1.0106353759765625;-0.024171914905309677;0.005406483076512814;-0.0024823325220495462
-0.0810546875;-0.1349029541015625;-1.012359619140625;-0.011472098529338837;0.005682120565325022;-0.0007605988066643476
-0.0810546875;-0.1349029541015625;-1.012359619140625;-0.011472098529338837;0.005682120565325022;-0.0007605988066643476
-0.0810546875;-0.1349029541015625;-1.012359619140625;-0.011472098529338837;0.005682120565325022;-0.0007605988066643476
-0.0810546875;-0.1349029541015625;-1.012359619140625;-0.011472098529338837;0.005682120565325022;-0.0007605988066643476
-0.0810546875;-0.1349029541015625;-1.012359619140625;-0.011472098529338837;0.005682120565325022;-0.0007605988066643476
-0.0807342529296875;-0.135711669921875;-1.01263427734375;-0.0031555795576423407;0.0041193775832653046;-0.0027387947775423527
-0.0807342529296875;-0.135711669921875;-1.01263427734375;-0.0031555795576423407;0.0041193775832653046;-0.0027387947775423527
-0.0807342529296875;-0.135711669921875;-1.01263427734375;-0.0031555795576423407;0.0041193775832653046;-0.0027387947775423527
-0.0807342529296875;-0.135711669921875;-1.01263427734375;-0.0031555795576423407;0.0041193775832653046;-0.0027387947775423527
-0.0807342529296875;-0.135711669921875;-1.01263427734375;-0.0031555795576423407;0.0041193775832653046;-0.0027387947775423527
-0.08087158203125;-0.1360321044921875;-1.009521484375;-0.0009954896522685885;0.0063154203817248344;-0.0019361181184649467
-0.08087158203125;-0.1360321044921875;-1.009521484375;-0.0009954896522685885;0.0063154203817248344;-0.0019361181184649467
-0.08087158203125;-0.1360321044921875;-1.009521484375;-0.0009954896522685885;0.0063154203817248344;-0.0019361181184649467
-0.08087158203125;-0.1360321044921875;-1.009521484375;-0.0009954896522685885;0.0063154203817248344;-0.0019361181184649467
-0.08087158203125;-0.1360321044921875;-1.009521484375;-0.0009954896522685885;0.0063154203817248344;-0.0019361181184649467
-0.0803985595703125;-0.1354827880859375;-1.00628662109375;-0.004289287142455578;0.00869335699826479;-0.0030927290208637714
-0.0803985595703125;-0.1354827880859375;-1.00628662109375;-0.004289287142455578;0.00869335699826479;-0.0030927290208637714
-0.0803985595703125;-0.1354827880859375;-1.00628662109375;-0.004289287142455578;0.00869335699826479;-0.0030927290208637714
-0.0803985595703125;-0.1354827880859375;-1.00628662109375;-0.004289287142455578;0.00869335699826479;-0.0030927290208637714
-0.0803985595703125;-0.1354827880859375;-1.00628662109375;-0.004289287142455578;0.00869335699826479;-0.0030927290208637714
-0.079681396484375;-0.1346282958984375;-1.001312255859375;-0.011633486486971378;0.012407400645315647;-0.0022897860035300255
-0.079681396484375;-0.1346282958984375;-1.001312255859375;-0.011633486486971378;0.012407400645315647;-0.0022897860035300255
-0.079681396484375;-0.1346282958984375;-1.001312255859375;-0.011633486486971378;0.012407400645315647;-0.0022897860035300255
-0.079681396484375;-0.1346282958984375;-1.001312255859375;-0.011633486486971378;0.012407400645315647;-0.0022897860035300255
-0.079681396484375;-0.1346282958984375;-1.001312255859375;-0.011633486486971378;0.012407400645315647;-0.0022897860035300255
-0.0788116455078125;-0.135498046875;-0.9988861083984375;-0.0223870649933815;0.009737049229443073;-0.002108957152813673
-0.0788116455078125;-0.135498046875;-0.9988861083984375;-0.0223870649933815;0.009737049229443073;-0.002108957152813673
-0.0788116455078125;-0.135498046875;-0.9988861083984375;-0.0223870649933815;0.009737049229443073;-0.002108957152813673
-0.0788116455078125;-0.135498046875;-0.9988861083984375;-0.0223870649933815;0.009737049229443073;-0.002108957152813673
-0.0788116455078125;-0.135498046875;-0.9988861083984375;-0.0223870649933815;0.009737049229443073;-0.002108957152813673
-0.0782012939453125;-0.1350860595703125;-0.998748779296875;-0.03193343058228493;0.008481635712087154;-0.0047835698351264
-0.0782012939453125;-0.1350860595703125;-0.998748779296875;-0.03193343058228493;0.008481635712087154;-0.0047835698351264
-0.0782012939453125;-0.1350860595703125;-0.998748779296875;-0.03193343058228493;0.008481635712087154;-0.0047835698351264
-0.0782012939453125;-0.1350860595703125;-0.998748779296875;-0.03193343058228493;0.008481635712087154;-0.0047835698351264
-0.0782012939453125;-0.1350860595703125;-0.998748779296875;-0.03193343058228493;0.008481635712087154;-0.0047835698351264
-0.0763702392578125;-0.1352081298828125;-0.999420166015625;-0.038179609924554825;0.004686897154897451;-0.0026943201664835215
-0.0763702392578125;-0.1352081298828125;-0.999420166015625;-0.038179609924554825;0.004686897154897451;-0.0026943201664835215
-0.0763702392578125;-0.1352081298828125;-0.999420166015625;-0.038179609924554825;0.004686897154897451;-0.0026943201664835215
-0.0763702392578125;-0.1352081298828125;-0.999420166015625;-0.038179609924554825;0.004686897154897451;-0.0026943201664835215
-0.0763702392578125;-0.1352081298828125;-0.999420166015625;-0.038179609924554825;0.004686897154897451;-0.0026943201664835215
-0.07659912109375;-0.1334075927734375;-1.0012664794921875;-0.0378299355506897;-2.9294772048160667e-06;-0.001324123702943325
-0.07659912109375;-0.1334075927734375;-1.0012664794921875;-0.0378299355506897;-2.9294772048160667e-06;-0.001324123702943325
-0.07659912109375;-0.1334075927734375;-1.0012664794921875;-0.0378299355506897;-2.9294772048160667e-06;-0.001324123702943325
-0.07659912109375;-0.1334075927734375;-1.0012664794921875;-0.0378299355506897;-2.9294772048160667e-06;-0.001324123702943325
-0.07659912109375;-0.1334075927734375;-1.0012664794921875;-0.0378299355506897;-2.9294772048160667e-06;-0.001324123702943325
-0.0772705078125;-0.133544921875;-1.0048370361328125;-0.03506956994533539;-0.00042317630141042173;-0.0030389330349862576
-0.0772705078125;-0.133544921875;-1.0048370361328125;-0.03506956994533539;-0.00042317630141042173;-0.0030389330349862576
-0.0772705078125;-0.133544921875;-1.0048370361328125;-0.03506956994533539;-0.00042317630141042173;-0.0030389330349862576
-0.0772705078125;-0.133544921875;-1.0048370361328125;-0.03506956994533539;-0.00042317630141042173;-0.0030389330349862576
-0.0772705078125;-0.133544921875;-1.0048370361328125;-0.03506956994533539;-0.00042317630141042173;-0.0030389330349862576
-0.076873779296875;-0.132965087890625;-1.0070953369140625;-0.029947511851787567;-0.0010897654574364424;-0.0026586337480694056
-0.076873779296875;-0.132965087890625;-1.0070953369140625;-0.029947511851787567;-0.0010897654574364424;-0.0026586337480694056
-0.076873779296875;-0.132965087890625;-1.0070953369140625;-0.029947511851787567;-0.0010897654574364424;-0.0026586337480694056
-0.076873779296875;-0.132965087890625;-1.0070953369140625;-0.029947511851787567;-0.0010897654574364424;-0.0026586337480694056
-0.076873779296875;-0.132965087890625;-1.0070953369140625;-0.029947511851787567;-0.0010897654574364424;-0.0026586337480694056
-0.078216552734375;-0.13250732421875;-1.00909423828125;-0.01805010624229908;-0.0022357236593961716;-0.003906857222318649
-0.078216552734375;-0.13250732421875;-1.00909423828125;-0.01805010624229908;-0.0022357236593961716;-0.003906857222318649
-0.078216552734375;-0.13250732421875;-1.00909423828125;-0.01805010624229908;-0.0022357236593961716;-0.003906857222318649
-0.078216552734375;-0.13250732421875;-1.00909423828125;-0.01805010624229908;-0.0022357236593961716;-0.003906857222318649
-0.078216552734375;-0.13250732421875;-1.00909423828125;-0.01805010624229908;-0.0022357236593961716;-0.003906857222318649
-0.077117919921875;-0.1331787109375;-1.012481689453125;-0.007828895002603531;-0.009311210364103317;-0.0027598338201642036
-0.077117919921875;-0.1331787109375;-1.012481689453125;-0.007828895002603531;-0.009311210364103317;-0.0027598338201642036
-0.077117919921875;-0.1331787109375;-1.012481689453125;-0.007828895002603531;-0.009311210364103317;-0.0027598338201642036
-0.077117919921875;-0.1331787109375;-1.012481689453125;-0.007828895002603531;-0.009311210364103317;-0.0027598338201642036
-0.077117919921875;-0.1331787109375;-1.012481689453125;0.0016674051294103265;-0.013802897185087204;-0.00390339526347816
-0.075592041015625;-0.132476806640625;-1.0160064697265625;0.0016674051294103265;-0.013802897185087204;-0.00390339526347816
-0.075592041015625;-0.132476806640625;-1.0160064697265625;0.0016674051294103265;-0.013802897185087204;-0.00390339526347816
-0.075592041015625;-0.132476806640625;-1.0160064697265625;0.0016674051294103265;-0.013802897185087204;-0.00390339526347816
-0.075592041015625;-0.132476806640625;-1.0160064697265625;0.0016674051294103265;-0.013802897185087204;-0.00390339526347816
-0.075592041015625;-0.132476806640625;-1.0160064697265625;0.0016674051294103265;-0.013802897185087204;-0.00390339526347816
