Acell X;Acell Y;Acell Z;Gyro X;Gyro Y;Gyro Z

-0.062255859375;-0.1769866943359375;-0.9904327392578125;-0.039735160768032074;-0.007515707053244114;-0.0001917476038215682
-0.0654296875;-0.1769866943359375;-0.99078369140625;-0.039735160768032074;-0.007515707053244114;-0.0001917476038215682
-0.0654296875;-0.1769866943359375;-0.99078369140625;-0.039735160768032074;-0.007515707053244114;-0.0001917476038215682
-0.0654296875;-0.1769866943359375;-0.99078369140625;-0.028958680108189583;-0.01455657184123993;-0.00046072687837295234
-0.0654296875;-0.1769866943359375;-0.99078369140625;-0.028958680108189583;-0.01455657184123993;-0.00046072687837295234
-0.0644683837890625;-0.176971435546875;-0.9968109130859375;-0.028958680108189583;-0.01455657184123993;-0.00046072687837295234
-0.0644683837890625;-0.176971435546875;-0.9968109130859375;-0.028958680108189583;-0.01455657184123993;-0.00046072687837295234
-0.0644683837890625;-0.176971435546875;-0.9968109130859375;-0.028958680108189583;-0.01455657184123993;-0.00046072687837295234
-0.0644683837890625;-0.176971435546875;-0.9968109130859375;-0.016079101711511612;-0.027777036651968956;-0.0020101540721952915
-0.0644683837890625;-0.176971435546875;-0.9968109130859375;-0.016079101711511612;-0.027777036651968956;-0.0020101540721952915
-0.0644683837890625;-0.176971435546875;-0.9968109130859375;-0.016079101711511612;-0.027777036651968956;-0.0020101540721952915
-0.065185546875;-0.178558349609375;-1.0016326904296875;-0.016079101711511612;-0.027777036651968956;-0.0020101540721952915
-0.065185546875;-0.178558349609375;-1.0016326904296875;-0.016079101711511612;-0.027777036651968956;-0.0020101540721952915
-0.065185546875;-0.178558349609375;-1.0016326904296875;-0.0017965685110539198;-0.03212811052799225;-0.00324825756251812
-0.065185546875;-0.178558349609375;-1.0016326904296875;-0.0017965685110539198;-0.03212811052799225;-0.00324825756251812
-0.0645294189453125;-0.179443359375;-1.0037078857421875;-0.0017965685110539198;-0.03212811052799225;-0.00324825756251812
-0.0645294189453125;-0.179443359375;-1.0037078857421875;-0.0017965685110539198;-0.03212811052799225;-0.00324825756251812
-0.0645294189453125;-0.179443359375;-1.0037078857421875;-0.0017965685110539198;-0.03212811052799225;-0.00324825756251812
-0.0645294189453125;-0.179443359375;-1.0037078857421875;0.009005479514598846;-0.022286130115389824;0.0009249158320017159
-0.0645294189453125;-0.179443359375;-1.0037078857421875;0.009005479514598846;-0.022286130115389824;0.0009249158320017159
-0.0651397705078125;-0.1791534423828125;-1.003570556640625;0.009005479514598846;-0.022286130115389824;0.0009249158320017159
-0.0651397705078125;-0.1791534423828125;-1.003570556640625;0.009005479514598846;-0.022286130115389824;0.0009249158320017159
-0.0651397705078125;-0.1791534423828125;-1.003570556640625;0.009005479514598846;-0.022286130115389824;0.0009249158320017159
-0.0651397705078125;-0.1791534423828125;-1.003570556640625;0.012172776274383068;-0.0023153522051870823;0.0009781790431588888
-0.0651397705078125;-0.1791534423828125;-1.003570556640625;0.012172776274383068;-0.0023153522051870823;0.0009781790431588888
-0.0657958984375;-0.1793365478515625;-1.0008392333984375;0.012172776274383068;-0.0023153522051870823;0.0009781790431588888
-0.0657958984375;-0.1793365478515625;-1.0008392333984375;0.012172776274383068;-0.0023153522051870823;0.0009781790431588888
-0.0657958984375;-0.1793365478515625;-1.0008392333984375;0.012172776274383068;-0.0023153522051870823;0.0009781790431588888
-0.0657958984375;-0.1793365478515625;-1.0008392333984375;0.008743157610297203;0.010332532227039337;0.0010463559301570058
-0.0657958984375;-0.1793365478515625;-1.0008392333984375;0.008743157610297203;0.010332532227039337;0.0010463559301570058
-0.0670013427734375;-0.1799163818359375;-0.997711181640625;0.008743157610297203;0.010332532227039337;0.0010463559301570058
-0.0670013427734375;-0.1799163818359375;-0.997711181640625;0.008743157610297203;0.010332532227039337;0.0010463559301570058
-0.0670013427734375;-0.1799163818359375;-0.997711181640625;0.008743157610297203;0.010332532227039337;0.0010463559301570058
-0.0670013427734375;-0.1799163818359375;-0.997711181640625;0.0002769687562249601;0.01576751098036766;0.00452950457111001
-0.0670013427734375;-0.1799163818359375;-0.997711181640625;0.0002769687562249601;0.01576751098036766;0.00452950457111001
-0.066802978515625;-0.1777801513671875;-0.9970855712890625;0.0002769687562249601;0.01576751098036766;0.00452950457111001
-0.066802978515625;-0.1777801513671875;-0.9970855712890625;0.0002769687562249601;0.01576751098036766;0.00452950457111001
-0.066802978515625;-0.1777801513671875;-0.9970855712890625;0.0002769687562249601;0.01576751098036766;0.00452950457111001
-0.066802978515625;-0.1777801513671875;-0.9970855712890625;-0.013907826505601406;0.012011122889816761;0.001315068919211626
-0.066802978515625;-0.1777801513671875;-0.9970855712890625;-0.013907826505601406;0.012011122889816761;0.001315068919211626
-0.065338134765625;-0.1755828857421875;-0.9945526123046875;-0.013907826505601406;0.012011122889816761;0.001315068919211626
-0.065338134765625;-0.1755828857421875;-0.9945526123046875;-0.013907826505601406;0.012011122889816761;0.001315068919211626
-0.065338134765625;-0.1755828857421875;-0.9945526123046875;-0.013907826505601406;0.012011122889816761;0.001315068919211626
-0.065338134765625;-0.1755828857421875;-0.9945526123046875;-0.024049410596489906;0.005309544038027525;0.006845122668892145
-0.065338134765625;-0.1755828857421875;-0.9945526123046875;-0.024049410596489906;0.005309544038027525;0.006845122668892145
-0.0639801025390625;-0.17401123046875;-0.9957275390625;-0.024049410596489906;0.005309544038027525;0.006845122668892145
-0.0639801025390625;-0.17401123046875;-0.9957275390625;-0.024049410596489906;0.005309544038027525;0.006845122668892145
-0.0639801025390625;-0.17401123046875;-0.9957275390625;-0.024049410596489906;0.005309544038027525;0.006845122668892145
-0.0639801025390625;-0.17401123046875;-0.9957275390625;-0.035709794610738754;0.0025569009594619274;0.009415606036782265
-0.0639801025390625;-0.17401123046875;-0.9957275390625;-0.035709794610738754;0.0025569009594619274;0.009415606036782265
-0.0653839111328125;-0.173065185546875;-0.9991607666015625;-0.035709794610738754;0.0025569009594619274;0.009415606036782265
-0.0653839111328125;-0.173065185546875;-0.9991607666015625;-0.035709794610738754;0.0025569009594619274;0.009415606036782265
-0.0653839111328125;-0.173065185546875;-0.9991607666015625;-0.035709794610738754;0.0025569009594619274;0.009415606036782265
-0.0653839111328125;-0.173065185546875;-0.9991607666015625;-0.04475575312972069;-0.001216265605762601;0.0026706180069595575
-0.0653839111328125;-0.173065185546875;-0.9991607666015625;-0.04475575312972069;-0.001216265605762601;0.0026706180069595575
-0.066864013671875;-0.17279052734375;-0.998992919921875;-0.04475575312972069;-0.001216265605762601;0.0026706180069595575
-0.066864013671875;-0.17279052734375;-0.998992919921875;-0.04475575312972069;-0.001216265605762601;0.0026706180069595575
-0.066864013671875;-0.17279052734375;-0.998992919921875;-0.04475575312972069;-0.001216265605762601;0.0026706180069595575
-0.066864013671875;-0.17279052734375;-0.998992919921875;-0.05513462424278259;-0.00101146858651191;0.002298840554431081
-0.066864013671875;-0.17279052734375;-0.998992919921875;-0.05513462424278259;-0.00101146858651191;0.002298840554431081
-0.0667877197265625;-0.1736907958984375;-0.9963836669921875;-0.05513462424278259;-0.00101146858651191;0.002298840554431081
-0.0667877197265625;-0.1736907958984375;-0.9963836669921875;-0.05513462424278259;-0.00101146858651191;0.002298840554431081
-0.0667877197265625;-0.1736907958984375;-0.9963836669921875;-0.05513462424278259;-0.00101146858651191;0.002298840554431081
-0.0667877197265625;-0.1736907958984375;-0.9963836669921875;-0.05808594077825546;-0.0011294466676190495;-0.003037867834791541
-0.0667877197265625;-0.1736907958984375;-0.9963836669921875;-0.05808594077825546;-0.0011294466676190495;-0.003037867834791541
-0.066436767578125;-0.175048828125;-0.99560546875;-0.05808594077825546;-0.0011294466676190495;-0.003037867834791541
-0.066436767578125;-0.175048828125;-0.99560546875;-0.05808594077825546;-0.0011294466676190495;-0.003037867834791541
-0.066436767578125;-0.175048828125;-0.99560546875;-0.05808594077825546;-0.0011294466676190495;-0.003037867834791541
-0.066436767578125;-0.175048828125;-0.99560546875;-0.04364601522684097;-0.008790561929345131;-0.0020208065398037434
-0.066436767578125;-0.175048828125;-0.99560546875;-0.04364601522684097;-0.008790561929345131;-0.0020208065398037434
-0.0643463134765625;-0.1761474609375;-0.9991455078125;-0.04364601522684097;-0.008790561929345131;-0.0020208065398037434
-0.0643463134765625;-0.1761474609375;-0.9991455078125;-0.04364601522684097;-0.008790561929345131;-0.0020208065398037434
-0.0643463134765625;-0.1761474609375;-0.9991455078125;-0.04364601522684097;-0.008790561929345131;-0.0020208065398037434
-0.0643463134765625;-0.1761474609375;-0.9991455078125;-0.026492860168218613;-0.017558487132191658;0.0016325177857652307
-0.0643463134765625;-0.1761474609375;-0.9991455078125;-0.026492860168218613;-0.017558487132191658;0.0016325177857652307
-0.0605621337890625;-0.175262451171875;-1.0021514892578125;-0.026492860168218613;-0.017558487132191658;0.0016325177857652307
-0.0605621337890625;-0.175262451171875;-1.0021514892578125;-0.026492860168218613;-0.017558487132191658;0.0016325177857652307
-0.0605621337890625;-0.175262451171875;-1.0021514892578125;-0.026492860168218613;-0.017558487132191658;0.0016325177857652307
-0.0605621337890625;-0.175262451171875;-1.0021514892578125;-0.006200371775776148;-0.024398017674684525;0.005344431847333908
-0.0605621337890625;-0.175262451171875;-1.0021514892578125;-0.006200371775776148;-0.024398017674684525;0.005344431847333908
-0.0595550537109375;-0.176239013671875;-1.0014495849609375;-0.006200371775776148;-0.024398017674684525;0.005344431847333908
-0.0595550537109375;-0.176239013671875;-1.0014495849609375;-0.006200371775776148;-0.024398017674684525;0.005344431847333908
-0.0595550537109375;-0.176239013671875;-1.0014495849609375;-0.006200371775776148;-0.024398017674684525;0.005344431847333908
-0.0595550537109375;-0.176239013671875;-1.0014495849609375;0.01065344363451004;-0.027287013828754425;0.007705323863774538
-0.0595550537109375;-0.176239013671875;-1.0014495849609375;0.01065344363451004;-0.027287013828754425;0.007705323863774538
-0.0596923828125;-0.1769561767578125;-1.0000152587890625;0.01065344363451004;-0.027287013828754425;0.007705323863774538
-0.0596923828125;-0.1769561767578125;-1.0000152587890625;0.01065344363451004;-0.027287013828754425;0.007705323863774538
-0.0596923828125;-0.1769561767578125;-1.0000152587890625;0.01065344363451004;-0.027287013828754425;0.007705323863774538
-0.0596923828125;-0.1769561767578125;-1.0000152587890625;0.0270697008818388;-0.025848109275102615;0.00980416126549244
-0.0596923828125;-0.1769561767578125;-1.0000152587890625;0.0270697008818388;-0.025848109275102615;0.00980416126549244
-0.060699462890625;-0.1764373779296875;-0.9965362548828125;0.0270697008818388;-0.025848109275102615;0.00980416126549244
-0.060699462890625;-0.1764373779296875;-0.9965362548828125;0.0270697008818388;-0.025848109275102615;0.00980416126549244
-0.060699462890625;-0.1764373779296875;-0.9965362548828125;0.0270697008818388;-0.025848109275102615;0.00980416126549244
-0.060699462890625;-0.1764373779296875;-0.9965362548828125;0.03855351731181145;-0.020234964787960052;0.009061671793460846
-0.060699462890625;-0.1764373779296875;-0.9965362548828125;0.03855351731181145;-0.020234964787960052;0.009061671793460846
-0.0621185302734375;-0.1757049560546875;-0.9933929443359375;0.03855351731181145;-0.020234964787960052;0.009061671793460846
-0.0621185302734375;-0.1757049560546875;-0.9933929443359375;0.03855351731181145;-0.020234964787960052;0.009061671793460846
-0.0621185302734375;-0.1757049560546875;-0.9933929443359375;0.03855351731181145;-0.020234964787960052;0.009061671793460846
-0.0621185302734375;-0.1757049560546875;-0.9933929443359375;0.04332190752029419;-0.01734144054353237;0.009375925175845623
-0.0621185302734375;-0.1757049560546875;-0.9933929443359375;0.04332190752029419;-0.01734144054353237;0.009375925175845623
-0.0637664794921875;-0.172393798828125;-0.992828369140625;0.04332190752029419;-0.01734144054353237;0.009375925175845623
-0.0637664794921875;-0.172393798828125;-0.992828369140625;0.04332190752029419;-0.01734144054353237;0.009375925175845623
-0.0637664794921875;-0.172393798828125;-0.992828369140625;0.04332190752029419;-0.01734144054353237;0.009375925175845623
-0.0637664794921875;-0.172393798828125;-0.992828369140625;0.04574698209762573;-0.016327042132616043;0.008639028295874596
-0.0637664794921875;-0.172393798828125;-0.992828369140625;0.04574698209762573;-0.016327042132616043;0.008639028295874596
-0.0647125244140625;-0.168243408203125;-0.9930572509765625;0.04574698209762573;-0.016327042132616043;0.008639028295874596
-0.0647125244140625;-0.168243408203125;-0.9930572509765625;0.04574698209762573;-0.016327042132616043;0.008639028295874596
-0.0647125244140625;-0.168243408203125;-0.9930572509765625;0.04574698209762573;-0.016327042132616043;0.008639028295874596
-0.0647125244140625;-0.168243408203125;-0.9930572509765625;0.049376603215932846;-0.012809538282454014;0.0072898706421256065
-0.0647125244140625;-0.168243408203125;-0.9930572509765625;0.049376603215932846;-0.012809538282454014;0.0072898706421256065
-0.06500244140625;-0.1668853759765625;-0.99432373046875;0.049376603215932846;-0.012809538282454014;0.0072898706421256065
-0.06500244140625;-0.1668853759765625;-0.99432373046875;0.049376603215932846;-0.012809538282454014;0.0072898706421256065
-0.06500244140625;-0.1668853759765625;-0.99432373046875;0.04692143574357033;-0.016592292115092278;0.004232561681419611
-0.06500244140625;-0.1668853759765625;-0.99432373046875;0.04692143574357033;-0.016592292115092278;0.004232561681419611
-0.06500244140625;-0.1668853759765625;-0.99432373046875;0.04692143574357033;-0.016592292115092278;0.004232561681419611
-0.065185546875;-0.1670074462890625;-0.9957122802734375;0.04692143574357033;-0.016592292115092278;0.004232561681419611
-0.065185546875;-0.1670074462890625;-0.9957122802734375;0.04692143574357033;-0.016592292115092278;0.004232561681419611
-0.065185546875;-0.1670074462890625;-0.9957122802734375;0.04692143574357033;-0.016592292115092278;0.004232561681419611
-0.065185546875;-0.1670074462890625;-0.9957122802734375;0.03915752097964287;-0.01630600169301033;0.0034288198221474886
-0.065185546875;-0.1670074462890625;-0.9957122802734375;0.03915752097964287;-0.01630600169301033;0.0034288198221474886
-0.065765380859375;-0.16705322265625;-0.99639892578125;0.03915752097964287;-0.01630600169301033;0.0034288198221474886
-0.065765380859375;-0.16705322265625;-0.99639892578125;0.03915752097964287;-0.01630600169301033;0.0034288198221474886
-0.065765380859375;-0.16705322265625;-0.99639892578125;0.030116356909275055;-0.015229819342494011;0.0025041704066097736
-0.065765380859375;-0.16705322265625;-0.99639892578125;0.030116356909275055;-0.015229819342494011;0.0025041704066097736
-0.065765380859375;-0.16705322265625;-0.99639892578125;0.030116356909275055;-0.015229819342494011;0.0025041704066097736
-0.066009521484375;-0.168731689453125;-0.9966888427734375;0.030116356909275055;-0.015229819342494011;0.0025041704066097736
-0.066009521484375;-0.168731689453125;-0.9966888427734375;0.030116356909275055;-0.015229819342494011;0.0025041704066097736
-0.066009521484375;-0.168731689453125;-0.9966888427734375;0.01889512687921524;-0.01739576831459999;0.0016636766958981752
-0.066009521484375;-0.168731689453125;-0.9966888427734375;0.01889512687921524;-0.01739576831459999;0.0016636766958981752
-0.066009521484375;-0.168731689453125;-0.9966888427734375;0.01889512687921524;-0.01739576831459999;0.0016636766958981752
-0.066802978515625;-0.169952392578125;-0.9981536865234375;0.01889512687921524;-0.01739576831459999;0.0016636766958981752
-0.066802978515625;-0.169952392578125;-0.9981536865234375;0.01889512687921524;-0.01739576831459999;0.0016636766958981752
-0.066802978515625;-0.169952392578125;-0.9981536865234375;0.009522398933768272;-0.014065219089388847;-0.0021576930303126574
-0.066802978515625;-0.169952392578125;-0.9981536865234375;0.009522398933768272;-0.014065219089388847;-0.0021576930303126574
-0.066802978515625;-0.169952392578125;-0.9981536865234375;0.009522398933768272;-0.014065219089388847;-0.0021576930303126574
-0.0672454833984375;-0.1713714599609375;-0.997406005859375;0.009522398933768272;-0.014065219089388847;-0.0021576930303126574
-0.0672454833984375;-0.1713714599609375;-0.997406005859375;0.009522398933768272;-0.014065219089388847;-0.0021576930303126574
-0.0672454833984375;-0.1713714599609375;-0.997406005859375;0.0013110742438584566;-0.01786395162343979;0.0001371527905575931
-0.0672454833984375;-0.1713714599609375;-0.997406005859375;0.0013110742438584566;-0.01786395162343979;0.0001371527905575931
-0.0672454833984375;-0.1713714599609375;-0.997406005859375;0.0013110742438584566;-0.01786395162343979;0.0001371527905575931
-0.06756591796875;-0.1731414794921875;-0.9967041015625;0.0013110742438584566;-0.01786395162343979;0.0001371527905575931
-0.06756591796875;-0.1731414794921875;-0.9967041015625;0.0013110742438584566;-0.01786395162343979;0.0001371527905575931
-0.06756591796875;-0.1731414794921875;-0.9967041015625;-0.009228652343153954;-0.01715848036110401;-0.0003225088003091514
-0.06756591796875;-0.1731414794921875;-0.9967041015625;-0.009228652343153954;-0.01715848036110401;-0.0003225088003091514
-0.06756591796875;-0.1731414794921875;-0.9967041015625;-0.009228652343153954;-0.01715848036110401;-0.0003225088003091514
-0.06878662109375;-0.1761932373046875;-0.9971771240234375;-0.009228652343153954;-0.01715848036110401;-0.0003225088003091514
-0.06878662109375;-0.1761932373046875;-0.9971771240234375;-0.009228652343153954;-0.01715848036110401;-0.0003225088003091514
-0.06878662109375;-0.1761932373046875;-0.9971771240234375;-0.019164640456438065;-0.01401648297905922;0.00044128578156232834
-0.06878662109375;-0.1761932373046875;-0.9971771240234375;-0.019164640456438065;-0.01401648297905922;0.00044128578156232834
-0.06878662109375;-0.1761932373046875;-0.9971771240234375;-0.019164640456438065;-0.01401648297905922;0.00044128578156232834
-0.0700225830078125;-0.17706298828125;-0.99798583984375;-0.019164640456438065;-0.01401648297905922;0.00044128578156232834
-0.0700225830078125;-0.17706298828125;-0.99798583984375;-0.019164640456438065;-0.01401648297905922;0.00044128578156232834
-0.0700225830078125;-0.17706298828125;-0.99798583984375;-0.021700767800211906;-0.01980512961745262;-0.002915895078331232
-0.0700225830078125;-0.17706298828125;-0.99798583984375;-0.021700767800211906;-0.01980512961745262;-0.002915895078331232
-0.0700225830078125;-0.17706298828125;-0.99798583984375;-0.021700767800211906;-0.01980512961745262;-0.002915895078331232
-0.0709991455078125;-0.1779022216796875;-0.9976348876953125;-0.021700767800211906;-0.01980512961745262;-0.002915895078331232
-0.0709991455078125;-0.1779022216796875;-0.9976348876953125;-0.021700767800211906;-0.01980512961745262;-0.002915895078331232
-0.0709991455078125;-0.1779022216796875;-0.9976348876953125;-0.02900022640824318;-0.021222464740276337;-0.002945456188172102
-0.0709991455078125;-0.1779022216796875;-0.9976348876953125;-0.02900022640824318;-0.021222464740276337;-0.002945456188172102
-0.0709991455078125;-0.1779022216796875;-0.9976348876953125;-0.02900022640824318;-0.021222464740276337;-0.002945456188172102
-0.0711212158203125;-0.1782684326171875;-0.9973297119140625;-0.02900022640824318;-0.021222464740276337;-0.002945456188172102
-0.0711212158203125;-0.1782684326171875;-0.9973297119140625;-0.02900022640824318;-0.021222464740276337;-0.002945456188172102
-0.0711212158203125;-0.1782684326171875;-0.9973297119140625;-0.02474369667470455;-0.03189907595515251;0.0006079996819607913
-0.0711212158203125;-0.1782684326171875;-0.9973297119140625;-0.02474369667470455;-0.03189907595515251;0.0006079996819607913
-0.0711212158203125;-0.1782684326171875;-0.9973297119140625;-0.02474369667470455;-0.03189907595515251;0.0006079996819607913
-0.0705108642578125;-0.1789093017578125;-0.998565673828125;-0.02474369667470455;-0.03189907595515251;0.0006079996819607913
-0.0705108642578125;-0.1789093017578125;-0.998565673828125;-0.02474369667470455;-0.03189907595515251;0.0006079996819607913
-0.0705108642578125;-0.1789093017578125;-0.998565673828125;-0.022461365908384323;-0.035293009132146835;0.000996554852463305
-0.0705108642578125;-0.1789093017578125;-0.998565673828125;-0.022461365908384323;-0.035293009132146835;0.000996554852463305
-0.0705108642578125;-0.1789093017578125;-0.998565673828125;-0.022461365908384323;-0.035293009132146835;0.000996554852463305
-0.071685791015625;-0.1778411865234375;-0.9991912841796875;-0.022461365908384323;-0.035293009132146835;0.000996554852463305
-0.071685791015625;-0.1778411865234375;-0.9991912841796875;-0.022461365908384323;-0.035293009132146835;0.000996554852463305
-0.071685791015625;-0.1778411865234375;-0.9991912841796875;-0.01624048873782158;-0.03382960334420204;0.0006860303110443056
-0.071685791015625;-0.1778411865234375;-0.9991912841796875;-0.01624048873782158;-0.03382960334420204;0.0006860303110443056
-0.071685791015625;-0.1778411865234375;-0.9991912841796875;-0.01624048873782158;-0.03382960334420204;0.0006860303110443056
-0.0719146728515625;-0.1773223876953125;-0.9996490478515625;-0.01624048873782158;-0.03382960334420204;0.0006860303110443056
-0.0719146728515625;-0.1773223876953125;-0.9996490478515625;-0.01624048873782158;-0.03382960334420204;0.0006860303110443056
-0.0719146728515625;-0.1773223876953125;-0.9996490478515625;-0.013412478379905224;-0.030430076643824577;0.0011779161868616939
-0.0719146728515625;-0.1773223876953125;-0.9996490478515625;-0.013412478379905224;-0.030430076643824577;0.0011779161868616939
-0.0719146728515625;-0.1773223876953125;-0.9996490478515625;-0.013412478379905224;-0.030430076643824577;0.0011779161868616939
-0.071746826171875;-0.1773834228515625;-0.997283935546875;-0.013412478379905224;-0.030430076643824577;0.0011779161868616939
-0.071746826171875;-0.1773834228515625;-0.997283935546875;-0.013412478379905224;-0.030430076643824577;0.0011779161868616939
-0.071746826171875;-0.1773834228515625;-0.997283935546875;-0.0095698032528162;-0.026198847219347954;0.0022831279784440994
-0.071746826171875;-0.1773834228515625;-0.997283935546875;-0.0095698032528162;-0.026198847219347954;0.0022831279784440994
-0.071746826171875;-0.1773834228515625;-0.997283935546875;-0.0095698032528162;-0.026198847219347954;0.0022831279784440994
-0.072662353515625;-0.1768341064453125;-0.996124267578125;-0.0095698032528162;-0.026198847219347954;0.0022831279784440994
-0.072662353515625;-0.1768341064453125;-0.996124267578125;-0.0095698032528162;-0.026198847219347954;0.0022831279784440994
-0.072662353515625;-0.1768341064453125;-0.996124267578125;-0.006037119776010513;-0.02448323927819729;0.0008364989189431071
-0.072662353515625;-0.1768341064453125;-0.996124267578125;-0.006037119776010513;-0.02448323927819729;0.0008364989189431071
-0.072662353515625;-0.1768341064453125;-0.996124267578125;-0.006037119776010513;-0.02448323927819729;0.0008364989189431071
-0.0729827880859375;-0.177032470703125;-0.9953460693359375;-0.006037119776010513;-0.02448323927819729;0.0008364989189431071
-0.0729827880859375;-0.177032470703125;-0.9953460693359375;-0.006037119776010513;-0.02448323927819729;0.0008364989189431071
-0.0729827880859375;-0.177032470703125;-0.9953460693359375;-0.01016901433467865;-0.02262568473815918;0.003040264593437314
-0.0729827880859375;-0.177032470703125;-0.9953460693359375;-0.01016901433467865;-0.02262568473815918;0.003040264593437314
-0.0729827880859375;-0.177032470703125;-0.9953460693359375;-0.01016901433467865;-0.02262568473815918;0.003040264593437314
-0.0708770751953125;-0.1769561767578125;-0.9936065673828125;-0.01016901433467865;-0.02262568473815918;0.003040264593437314
-0.0708770751953125;-0.1769561767578125;-0.9936065673828125;-0.01016901433467865;-0.02262568473815918;0.003040264593437314
-0.0708770751953125;-0.1769561767578125;-0.9936065673828125;-0.009405752643942833;-0.032879654318094254;0.0029704899061471224
-0.0708770751953125;-0.1769561767578125;-0.9936065673828125;-0.009405752643942833;-0.032879654318094254;0.0029704899061471224
-0.0708770751953125;-0.1769561767578125;-0.9936065673828125;-0.009405752643942833;-0.032879654318094254;0.0029704899061471224
-0.0693206787109375;-0.1763916015625;-0.991729736328125;-0.009405752643942833;-0.032879654318094254;0.0029704899061471224
-0.0693206787109375;-0.1763916015625;-0.991729736328125;-0.009405752643942833;-0.032879654318094254;0.0029704899061471224
-0.0693206787109375;-0.1763916015625;-0.991729736328125;-0.013362676836550236;-0.04572834074497223;0.0033342777751386166
-0.0693206787109375;-0.1763916015625;-0.991729736328125;-0.013362676836550236;-0.04572834074497223;0.0033342777751386166
-0.0693206787109375;-0.1763916015625;-0.991729736328125;-0.013362676836550236;-0.04572834074497223;0.0033342777751386166
-0.068023681640625;-0.1765594482421875;-0.9911346435546875;-0.013362676836550236;-0.04572834074497223;0.0033342777751386166
-0.068023681640625;-0.1765594482421875;-0.9911346435546875;-0.013362676836550236;-0.04572834074497223;0.0033342777751386166
-0.068023681640625;-0.1765594482421875;-0.9911346435546875;-0.017680726945400238;-0.06120689958333969;0.0059907808899879456
-0.068023681640625;-0.1765594482421875;-0.9911346435546875;-0.017680726945400238;-0.06120689958333969;0.0059907808899879456
-0.068023681640625;-0.1765594482421875;-0.9911346435546875;-0.017680726945400238;-0.06120689958333969;0.0059907808899879456
-0.06817626953125;-0.1751556396484375;-0.9889984130859375;-0.017680726945400238;-0.06120689958333969;0.0059907808899879456
-0.06817626953125;-0.1751556396484375;-0.9889984130859375;-0.017680726945400238;-0.06120689958333969;0.0059907808899879456
-0.06817626953125;-0.1751556396484375;-0.9889984130859375;-0.024517593905329704;-0.0735197588801384;0.005940447095781565
-0.06817626953125;-0.1751556396484375;-0.9889984130859375;-0.024517593905329704;-0.0735197588801384;0.005940447095781565
-0.06982421875;-0.17279052734375;-0.9883880615234375;-0.024517593905329704;-0.0735197588801384;0.005940447095781565
-0.06982421875;-0.17279052734375;-0.9883880615234375;-0.024517593905329704;-0.0735197588801384;0.005940447095781565
-0.06982421875;-0.17279052734375;-0.9883880615234375;-0.024517593905329704;-0.0735197588801384;0.005940447095781565
-0.06982421875;-0.17279052734375;-0.9883880615234375;-0.026450516656041145;-0.0880129486322403;0.003942809998989105
-0.06982421875;-0.17279052734375;-0.9883880615234375;-0.026450516656041145;-0.0880129486322403;0.003942809998989105
-0.0708465576171875;-0.173736572265625;-0.9866180419921875;-0.026450516656041145;-0.0880129486322403;0.003942809998989105
-0.0708465576171875;-0.173736572265625;-0.9866180419921875;-0.026450516656041145;-0.0880129486322403;0.003942809998989105
-0.0708465576171875;-0.173736572265625;-0.9866180419921875;-0.026450516656041145;-0.0880129486322403;0.003942809998989105
-0.0708465576171875;-0.173736572265625;-0.9866180419921875;-0.028265992179512978;-0.09494568407535553;0.007667507044970989
-0.0708465576171875;-0.173736572265625;-0.9866180419921875;-0.028265992179512978;-0.09494568407535553;0.007667507044970989
-0.072052001953125;-0.1728973388671875;-0.9863433837890625;-0.028265992179512978;-0.09494568407535553;0.007667507044970989
-0.072052001953125;-0.1728973388671875;-0.9863433837890625;-0.028265992179512978;-0.09494568407535553;0.007667507044970989
-0.072052001953125;-0.1728973388671875;-0.9863433837890625;-0.028265992179512978;-0.09494568407535553;0.007667507044970989
-0.072052001953125;-0.1728973388671875;-0.9863433837890625;-0.021497035399079323;-0.1020832285284996;0.007445399183779955
-0.072052001953125;-0.1728973388671875;-0.9863433837890625;-0.021497035399079323;-0.1020832285284996;0.007445399183779955
-0.0740966796875;-0.17083740234375;-0.9878387451171875;-0.021497035399079323;-0.1020832285284996;0.007445399183779955
-0.0740966796875;-0.17083740234375;-0.9878387451171875;-0.021497035399079323;-0.1020832285284996;0.007445399183779955
-0.0740966796875;-0.17083740234375;-0.9878387451171875;-0.021497035399079323;-0.1020832285284996;0.007445399183779955
-0.0740966796875;-0.17083740234375;-0.9878387451171875;-0.013308348134160042;-0.11155661940574646;0.005658418405801058
-0.0740966796875;-0.17083740234375;-0.9878387451171875;-0.013308348134160042;-0.11155661940574646;0.005658418405801058
-0.0751495361328125;-0.171722412109375;-0.9910888671875;-0.013308348134160042;-0.11155661940574646;0.005658418405801058
-0.0751495361328125;-0.171722412109375;-0.9910888671875;-0.013308348134160042;-0.11155661940574646;0.005658418405801058
-0.0751495361328125;-0.171722412109375;-0.9910888671875;-0.013308348134160042;-0.11155661940574646;0.005658418405801058
-0.0751495361328125;-0.171722412109375;-0.9910888671875;0.005322593729943037;-0.11570156365633011;0.004539357963949442
-0.0751495361328125;-0.171722412109375;-0.9910888671875;0.005322593729943037;-0.11570156365633011;0.004539357963949442
-0.0751495361328125;-0.171722412109375;-0.9910888671875;0.005322593729943037;-0.11570156365633011;0.004539357963949442
-0.074981689453125;-0.1714324951171875;-0.996124267578125;0.005322593729943037;-0.11570156365633011;0.004539357963949442
-0.074981689453125;-0.1714324951171875;-0.996124267578125;0.005322593729943037;-0.11570156365633011;0.004539357963949442
-0.074981689453125;-0.1714324951171875;-0.996124267578125;0.029257221147418022;-0.12075810879468918;0.003489007242023945
-0.074981689453125;-0.1714324951171875;-0.996124267578125;0.029257221147418022;-0.12075810879468918;0.003489007242023945
-0.075531005859375;-0.172576904296875;-1.0009613037109375;0.029257221147418022;-0.12075810879468918;0.003489007242023945
-0.075531005859375;-0.172576904296875;-1.0009613037109375;0.029257221147418022;-0.12075810879468918;0.003489007242023945
-0.075531005859375;-0.172576904296875;-1.0009613037109375;0.029257221147418022;-0.12075810879468918;0.003489007242023945
-0.075531005859375;-0.172576904296875;-1.0009613037109375;0.0628197118639946;-0.11569277942180634;0.0032834112644195557
-0.075531005859375;-0.172576904296875;-1.0009613037109375;0.0628197118639946;-0.11569277942180634;0.0032834112644195557
-0.076812744140625;-0.1724853515625;-1.0073699951171875;0.0628197118639946;-0.11569277942180634;0.0032834112644195557
-0.076812744140625;-0.1724853515625;-1.0073699951171875;0.0628197118639946;-0.11569277942180634;0.0032834112644195557
-0.076812744140625;-0.1724853515625;-1.0073699951171875;0.0628197118639946;-0.11569277942180634;0.0032834112644195557
-0.076812744140625;-0.1724853515625;-1.0073699951171875;0.09865733236074448;-0.10064777731895447;0.004339354578405619
-0.076812744140625;-0.1724853515625;-1.0073699951171875;0.09865733236074448;-0.10064777731895447;0.004339354578405619
-0.0780487060546875;-0.1741180419921875;-1.01031494140625;0.09865733236074448;-0.10064777731895447;0.004339354578405619
-0.0780487060546875;-0.1741180419921875;-1.01031494140625;0.09865733236074448;-0.10064777731895447;0.004339354578405619
-0.0780487060546875;-0.1741180419921875;-1.01031494140625;0.09865733236074448;-0.10064777731895447;0.004339354578405619
-0.0780487060546875;-0.1741180419921875;-1.01031494140625;0.12941470742225647;-0.08375055342912674;-0.0007579356315545738
-0.0780487060546875;-0.1741180419921875;-1.01031494140625;0.12941470742225647;-0.08375055342912674;-0.0007579356315545738
-0.078094482421875;-0.1767730712890625;-1.013031005859375;0.12941470742225647;-0.08375055342912674;-0.0007579356315545738
-0.078094482421875;-0.1767730712890625;-1.013031005859375;0.12941470742225647;-0.08375055342912674;-0.0007579356315545738
-0.078094482421875;-0.1767730712890625;-1.013031005859375;0.12941470742225647;-0.08375055342912674;-0.0007579356315545738
-0.078094482421875;-0.1767730712890625;-1.013031005859375;0.16019126772880554;-0.05546432361006737;-0.0026088326703757048
-0.078094482421875;-0.1767730712890625;-1.013031005859375;0.16019126772880554;-0.05546432361006737;-0.0026088326703757048
-0.07904052734375;-0.178253173828125;-1.0111541748046875;0.16019126772880554;-0.05546432361006737;-0.0026088326703757048
-0.07904052734375;-0.178253173828125;-1.0111541748046875;0.16019126772880554;-0.05546432361006737;-0.0026088326703757048
-0.07904052734375;-0.178253173828125;-1.0111541748046875;0.16019126772880554;-0.05546432361006737;-0.0026088326703757048
-0.07904052734375;-0.178253173828125;-1.0111541748046875;0.1761217713356018;-0.029621008783578873;-0.007028880994766951
-0.07904052734375;-0.178253173828125;-1.0111541748046875;0.1761217713356018;-0.029621008783578873;-0.007028880994766951
-0.07977294921875;-0.181304931640625;-1.008392333984375;0.1761217713356018;-0.029621008783578873;-0.007028880994766951
-0.07977294921875;-0.181304931640625;-1.008392333984375;0.1761217713356018;-0.029621008783578873;-0.007028880994766951
-0.07977294921875;-0.181304931640625;-1.008392333984375;0.1761217713356018;-0.029621008783578873;-0.007028880994766951
-0.07977294921875;-0.181304931640625;-1.008392333984375;0.18211627006530762;-0.00558065390214324;-0.010855310596525669
-0.07977294921875;-0.181304931640625;-1.008392333984375;0.18211627006530762;-0.00558065390214324;-0.010855310596525669
-0.0787200927734375;-0.183197021484375;-1.006011962890625;0.18211627006530762;-0.00558065390214324;-0.010855310596525669
-0.0787200927734375;-0.183197021484375;-1.006011962890625;0.18211627006530762;-0.00558065390214324;-0.010855310596525669
-0.0787200927734375;-0.183197021484375;-1.006011962890625;0.18211627006530762;-0.00558065390214324;-0.010855310596525669
-0.0787200927734375;-0.183197021484375;-1.006011962890625;0.17636944353580475;0.006246977020055056;-0.011804461479187012
-0.0787200927734375;-0.183197021484375;-1.006011962890625;0.17636944353580475;0.006246977020055056;-0.011804461479187012
-0.07745361328125;-0.1841583251953125;-1.0019989013671875;0.17636944353580475;0.006246977020055056;-0.011804461479187012
-0.07745361328125;-0.1841583251953125;-1.0019989013671875;0.17636944353580475;0.006246977020055056;-0.011804461479187012
-0.07745361328125;-0.1841583251953125;-1.0019989013671875;0.17636944353580475;0.006246977020055056;-0.011804461479187012
-0.07745361328125;-0.1841583251953125;-1.0019989013671875;0.15804342925548553;0.015740348026156425;-0.010529872961342335
-0.07745361328125;-0.1841583251953125;-1.0019989013671875;0.15804342925548553;0.015740348026156425;-0.010529872961342335
-0.0768280029296875;-0.1845245361328125;-0.998321533203125;0.15804342925548553;0.015740348026156425;-0.010529872961342335
-0.0768280029296875;-0.1845245361328125;-0.998321533203125;0.15804342925548553;0.015740348026156425;-0.010529872961342335
-0.0768280029296875;-0.1845245361328125;-0.998321533203125;0.15804342925548553;0.015740348026156425;-0.010529872961342335
-0.0768280029296875;-0.1845245361328125;-0.998321533203125;0.12999048829078674;0.01309289876371622;-0.01455896906554699
-0.0768280029296875;-0.1845245361328125;-0.998321533203125;0.12999048829078674;0.01309289876371622;-0.01455896906554699
-0.07733154296875;-0.185302734375;-0.99420166015625;0.12999048829078674;0.01309289876371622;-0.01455896906554699
-0.07733154296875;-0.185302734375;-0.99420166015625;0.12999048829078674;0.01309289876371622;-0.01455896906554699
-0.07733154296875;-0.185302734375;-0.99420166015625;0.12999048829078674;0.01309289876371622;-0.01455896906554699
-0.07733154296875;-0.185302734375;-0.99420166015625;0.1005156859755516;0.005362807307392359;-0.012955745682120323
-0.07733154296875;-0.185302734375;-0.99420166015625;0.1005156859755516;0.005362807307392359;-0.012955745682120323
-0.0761260986328125;-0.1855010986328125;-0.9910430908203125;0.1005156859755516;0.005362807307392359;-0.012955745682120323
-0.0761260986328125;-0.1855010986328125;-0.9910430908203125;0.1005156859755516;0.005362807307392359;-0.012955745682120323
-0.0761260986328125;-0.1855010986328125;-0.9910430908203125;0.1005156859755516;0.005362807307392359;-0.012955745682120323
-0.0761260986328125;-0.1855010986328125;-0.9910430908203125;0.06353902816772461;-0.0015198660548776388;-0.011491806246340275
-0.0761260986328125;-0.1855010986328125;-0.9910430908203125;0.06353902816772461;-0.0015198660548776388;-0.011491806246340275
-0.077362060546875;-0.1859130859375;-0.9864959716796875;0.06353902816772461;-0.0015198660548776388;-0.011491806246340275
-0.077362060546875;-0.1859130859375;-0.9864959716796875;0.06353902816772461;-0.0015198660548776388;-0.011491806246340275
-0.077362060546875;-0.1859130859375;-0.9864959716796875;0.06353902816772461;-0.0015198660548776388;-0.011491806246340275
-0.077362060546875;-0.1859130859375;-0.9864959716796875;0.031186414882540703;-0.004967061802744865;-0.004229366313666105
-0.077362060546875;-0.1859130859375;-0.9864959716796875;0.031186414882540703;-0.004967061802744865;-0.004229366313666105
-0.0780487060546875;-0.1845855712890625;-0.98272705078125;0.031186414882540703;-0.004967061802744865;-0.004229366313666105
-0.0780487060546875;-0.1845855712890625;-0.98272705078125;0.031186414882540703;-0.004967061802744865;-0.004229366313666105
-0.0780487060546875;-0.1845855712890625;-0.98272705078125;0.031186414882540703;-0.004967061802744865;-0.004229366313666105
-0.0780487060546875;-0.1845855712890625;-0.98272705078125;0.00361683894880116;-0.014674283564090729;-0.002919357270002365
-0.0780487060546875;-0.1845855712890625;-0.98272705078125;0.00361683894880116;-0.014674283564090729;-0.002919357270002365
-0.079833984375;-0.183441162109375;-0.984649658203125;0.00361683894880116;-0.014674283564090729;-0.002919357270002365
-0.079833984375;-0.183441162109375;-0.984649658203125;0.00361683894880116;-0.014674283564090729;-0.002919357270002365
-0.079833984375;-0.183441162109375;-0.984649658203125;-0.016404805704951286;-0.027872910723090172;-0.004114317707717419
-0.079833984375;-0.183441162109375;-0.984649658203125;-0.016404805704951286;-0.027872910723090172;-0.004114317707717419
-0.079833984375;-0.183441162109375;-0.984649658203125;-0.016404805704951286;-0.027872910723090172;-0.004114317707717419
-0.082305908203125;-0.18280029296875;-0.99029541015625;-0.016404805704951286;-0.027872910723090172;-0.004114317707717419
-0.082305908203125;-0.18280029296875;-0.99029541015625;-0.016404805704951286;-0.027872910723090172;-0.004114317707717419
-0.082305908203125;-0.18280029296875;-0.99029541015625;-0.016518522053956985;-0.04893052577972412;-0.005636047571897507
-0.082305908203125;-0.18280029296875;-0.99029541015625;-0.016518522053956985;-0.04893052577972412;-0.005636047571897507
-0.082305908203125;-0.18280029296875;-0.99029541015625;-0.016518522053956985;-0.04893052577972412;-0.005636047571897507
-0.0830230712890625;-0.183349609375;-1.0011749267578125;-0.016518522053956985;-0.04893052577972412;-0.005636047571897507
-0.0830230712890625;-0.183349609375;-1.0011749267578125;-0.016518522053956985;-0.04893052577972412;-0.005636047571897507
-0.0830230712890625;-0.183349609375;-1.0011749267578125;-0.006450442597270012;-0.06637503206729889;-0.003311640815809369
-0.0830230712890625;-0.183349609375;-1.0011749267578125;-0.006450442597270012;-0.06637503206729889;-0.003311640815809369
-0.0830230712890625;-0.183349609375;-1.0011749267578125;-0.006450442597270012;-0.06637503206729889;-0.003311640815809369
-0.0826263427734375;-0.18499755859375;-1.0088043212890625;-0.006450442597270012;-0.06637503206729889;-0.003311640815809369
-0.0826263427734375;-0.18499755859375;-1.0088043212890625;-0.006450442597270012;-0.06637503206729889;-0.003311640815809369
-0.0826263427734375;-0.18499755859375;-1.0088043212890625;0.009754359722137451;-0.06608181446790695;-0.003477022983133793
-0.0826263427734375;-0.18499755859375;-1.0088043212890625;0.009754359722137451;-0.06608181446790695;-0.003477022983133793
-0.0826263427734375;-0.18499755859375;-1.0088043212890625;0.009754359722137451;-0.06608181446790695;-0.003477022983133793
-0.0828704833984375;-0.1857147216796875;-1.0094757080078125;0.009754359722137451;-0.06608181446790695;-0.003477022983133793
-0.0828704833984375;-0.1857147216796875;-1.0094757080078125;0.009754359722137451;-0.06608181446790695;-0.003477022983133793
-0.0828704833984375;-0.1857147216796875;-1.0094757080078125;0.029210615903139114;-0.05413567274808884;-0.00227833422832191
-0.0828704833984375;-0.1857147216796875;-1.0094757080078125;0.029210615903139114;-0.05413567274808884;-0.00227833422832191
-0.0828704833984375;-0.1857147216796875;-1.0094757080078125;0.029210615903139114;-0.05413567274808884;-0.00227833422832191
-0.0838623046875;-0.1888275146484375;-1.008544921875;0.029210615903139114;-0.05413567274808884;-0.00227833422832191
-0.0838623046875;-0.1888275146484375;-1.008544921875;0.029210615903139114;-0.05413567274808884;-0.00227833422832191
-0.0838623046875;-0.1888275146484375;-1.008544921875;0.04541994631290436;-0.026004169136285782;0.00045034053619019687
-0.0838623046875;-0.1888275146484375;-1.008544921875;0.04541994631290436;-0.026004169136285782;0.00045034053619019687
-0.0838623046875;-0.1888275146484375;-1.008544921875;0.04541994631290436;-0.026004169136285782;0.00045034053619019687
-0.0843963623046875;-0.1913604736328125;-1.0078277587890625;0.04541994631290436;-0.026004169136285782;0.00045034053619019687
-0.0843963623046875;-0.1913604736328125;-1.0078277587890625;0.04541994631290436;-0.026004169136285782;0.00045034053619019687
-0.0843963623046875;-0.1913604736328125;-1.0078277587890625;0.06149079278111458;-0.001927595934830606;0.0009070726810023189
-0.0843963623046875;-0.1913604736328125;-1.0078277587890625;0.06149079278111458;-0.001927595934830606;0.0009070726810023189
-0.0843963623046875;-0.1913604736328125;-1.0078277587890625;0.06149079278111458;-0.001927595934830606;0.0009070726810023189
-0.0843658447265625;-0.192840576171875;-1.0075531005859375;0.06149079278111458;-0.001927595934830606;0.0009070726810023189
-0.0843658447265625;-0.192840576171875;-1.0075531005859375;0.06149079278111458;-0.001927595934830606;0.0009070726810023189
-0.0843658447265625;-0.192840576171875;-1.0075531005859375;0.07453681528568268;0.01269741915166378;-0.00029081720276735723
-0.0843658447265625;-0.192840576171875;-1.0075531005859375;0.07453681528568268;0.01269741915166378;-0.00029081720276735723
-0.0843658447265625;-0.192840576171875;-1.0075531005859375;0.07453681528568268;0.01269741915166378;-0.00029081720276735723
-0.0838470458984375;-0.19403076171875;-1.006683349609375;0.07453681528568268;0.01269741915166378;-0.00029081720276735723
-0.0838470458984375;-0.19403076171875;-1.006683349609375;0.07453681528568268;0.01269741915166378;-0.00029081720276735723
-0.0838470458984375;-0.19403076171875;-1.006683349609375;0.075419120490551;0.029256422072649002;0.003846403444185853
-0.0838470458984375;-0.19403076171875;-1.006683349609375;0.075419120490551;0.029256422072649002;0.003846403444185853
-0.0838470458984375;-0.19403076171875;-1.006683349609375;0.075419120490551;0.029256422072649002;0.003846403444185853
-0.0838775634765625;-0.1950225830078125;-1.00396728515625;0.075419120490551;0.029256422072649002;0.003846403444185853
-0.0838775634765625;-0.1950225830078125;-1.00396728515625;0.075419120490551;0.029256422072649002;0.003846403444185853
-0.0838775634765625;-0.1950225830078125;-1.00396728515625;0.06784163415431976;0.039681900292634964;0.004510862287133932
-0.0838775634765625;-0.1950225830078125;-1.00396728515625;0.06784163415431976;0.039681900292634964;0.004510862287133932
-0.0838775634765625;-0.1950225830078125;-1.00396728515625;0.06784163415431976;0.039681900292634964;0.004510862287133932
-0.0829010009765625;-0.1944732666015625;-0.9983367919921875;0.06784163415431976;0.039681900292634964;0.004510862287133932
-0.0829010009765625;-0.1944732666015625;-0.9983367919921875;0.06784163415431976;0.039681900292634964;0.004510862287133932
-0.0829010009765625;-0.1944732666015625;-0.9983367919921875;0.046488672494888306;0.05041763558983803;0.005277319811284542
-0.0829010009765625;-0.1944732666015625;-0.9983367919921875;0.046488672494888306;0.05041763558983803;0.005277319811284542
-0.0829010009765625;-0.1944732666015625;-0.9983367919921875;0.046488672494888306;0.05041763558983803;0.005277319811284542
-0.0828704833984375;-0.195343017578125;-0.9929656982421875;0.046488672494888306;0.05041763558983803;0.005277319811284542
-0.0828704833984375;-0.195343017578125;-0.9929656982421875;0.046488672494888306;0.05041763558983803;0.005277319811284542
-0.0828704833984375;-0.195343017578125;-0.9929656982421875;0.005255215801298618;0.06479018181562424;0.001794171635992825
-0.0828704833984375;-0.195343017578125;-0.9929656982421875;0.005255215801298618;0.06479018181562424;0.001794171635992825
-0.0828704833984375;-0.195343017578125;-0.9929656982421875;0.005255215801298618;0.06479018181562424;0.001794171635992825
-0.0822296142578125;-0.1949005126953125;-0.9828033447265625;0.005255215801298618;0.06479018181562424;0.001794171635992825
-0.0822296142578125;-0.1949005126953125;-0.9828033447265625;0.005255215801298618;0.06479018181562424;0.001794171635992825
-0.0822296142578125;-0.1949005126953125;-0.9828033447265625;-0.04128485545516014;0.06644799560308456;0.0006314354832284153
-0.0822296142578125;-0.1949005126953125;-0.9828033447265625;-0.04128485545516014;0.06644799560308456;0.0006314354832284153
-0.0822296142578125;-0.1949005126953125;-0.9828033447265625;-0.04128485545516014;0.06644799560308456;0.0006314354832284153
-0.0830230712890625;-0.1945953369140625;-0.974273681640625;-0.04128485545516014;0.06644799560308456;0.0006314354832284153
-0.0830230712890625;-0.1945953369140625;-0.974273681640625;-0.04128485545516014;0.06644799560308456;0.0006314354832284153
-0.0830230712890625;-0.1945953369140625;-0.974273681640625;-0.07943330705165863;0.056478723883628845;0.00012223910016473383
-0.0830230712890625;-0.1945953369140625;-0.974273681640625;-0.07943330705165863;0.056478723883628845;0.00012223910016473383
-0.0830230712890625;-0.1945953369140625;-0.974273681640625;-0.07943330705165863;0.056478723883628845;0.00012223910016473383
-0.082061767578125;-0.1934967041015625;-0.97454833984375;-0.07943330705165863;0.056478723883628845;0.00012223910016473383
-0.082061767578125;-0.1934967041015625;-0.97454833984375;-0.07943330705165863;0.056478723883628845;0.00012223910016473383
-0.082061767578125;-0.1934967041015625;-0.97454833984375;-0.09880700707435608;0.030002107843756676;-0.0036637107841670513
-0.082061767578125;-0.1934967041015625;-0.97454833984375;-0.09880700707435608;0.030002107843756676;-0.0036637107841670513
-0.082061767578125;-0.1934967041015625;-0.97454833984375;-0.09880700707435608;0.030002107843756676;-0.0036637107841670513
-0.08074951171875;-0.1901702880859375;-0.9820098876953125;-0.09880700707435608;0.030002107843756676;-0.0036637107841670513
-0.08074951171875;-0.1901702880859375;-0.9820098876953125;-0.09880700707435608;0.030002107843756676;-0.0036637107841670513
-0.08074951171875;-0.1901702880859375;-0.9820098876953125;-0.10307098925113678;-0.006721019744873047;-0.005601426586508751
-0.08074951171875;-0.1901702880859375;-0.9820098876953125;-0.10307098925113678;-0.006721019744873047;-0.005601426586508751
-0.08074951171875;-0.1901702880859375;-0.9820098876953125;-0.10307098925113678;-0.006721019744873047;-0.005601426586508751
-0.0794525146484375;-0.1873016357421875;-0.9893035888671875;-0.10307098925113678;-0.006721019744873047;-0.005601426586508751
-0.0794525146484375;-0.1873016357421875;-0.9893035888671875;-0.10307098925113678;-0.006721019744873047;-0.005601426586508751
-0.0794525146484375;-0.1873016357421875;-0.9893035888671875;-0.09060180187225342;-0.03862728551030159;-0.0011819108622148633
-0.0794525146484375;-0.1873016357421875;-0.9893035888671875;-0.09060180187225342;-0.03862728551030159;-0.0011819108622148633
-0.0794525146484375;-0.1873016357421875;-0.9893035888671875;-0.09060180187225342;-0.03862728551030159;-0.0011819108622148633
-0.0783233642578125;-0.1847991943359375;-0.99481201171875;-0.09060180187225342;-0.03862728551030159;-0.0011819108622148633
-0.0783233642578125;-0.1847991943359375;-0.99481201171875;-0.09060180187225342;-0.03862728551030159;-0.0011819108622148633
-0.0783233642578125;-0.1847991943359375;-0.99481201171875;-0.06799183040857315;-0.06232915446162224;-0.002180063631385565
-0.0783233642578125;-0.1847991943359375;-0.99481201171875;-0.06799183040857315;-0.06232915446162224;-0.002180063631385565
-0.0783233642578125;-0.1847991943359375;-0.99481201171875;-0.06799183040857315;-0.06232915446162224;-0.002180063631385565
-0.0797119140625;-0.183258056640625;-0.998779296875;-0.06799183040857315;-0.06232915446162224;-0.002180063631385565
-0.0797119140625;-0.183258056640625;-0.998779296875;-0.06799183040857315;-0.06232915446162224;-0.002180063631385565
-0.0797119140625;-0.183258056640625;-0.998779296875;-0.04194851592183113;-0.07259324193000793;0.0008261125767603517
-0.0797119140625;-0.183258056640625;-0.998779296875;-0.04194851592183113;-0.07259324193000793;0.0008261125767603517
-0.0797119140625;-0.183258056640625;-0.998779296875;-0.04194851592183113;-0.07259324193000793;0.0008261125767603517
-0.080413818359375;-0.185760498046875;-0.9997406005859375;-0.04194851592183113;-0.07259324193000793;0.0008261125767603517
-0.080413818359375;-0.185760498046875;-0.9997406005859375;-0.04194851592183113;-0.07259324193000793;0.0008261125767603517
-0.080413818359375;-0.185760498046875;-0.9997406005859375;-0.00803129468113184;-0.07267367094755173;-0.0009978864109143615
-0.080413818359375;-0.185760498046875;-0.9997406005859375;-0.00803129468113184;-0.07267367094755173;-0.0009978864109143615
-0.0832977294921875;-0.1866302490234375;-1.0009613037109375;-0.00803129468113184;-0.07267367094755173;-0.0009978864109143615
-0.0832977294921875;-0.1866302490234375;-1.0009613037109375;-0.00803129468113184;-0.07267367094755173;-0.0009978864109143615
-0.0832977294921875;-0.1866302490234375;-1.0009613037109375;-0.00803129468113184;-0.07267367094755173;-0.0009978864109143615
-0.0832977294921875;-0.1866302490234375;-1.0009613037109375;0.030940072610974312;-0.059597816318273544;0.002457298804074526
-0.0832977294921875;-0.1866302490234375;-1.0009613037109375;0.030940072610974312;-0.059597816318273544;0.002457298804074526
-0.0860137939453125;-0.188629150390625;-1.001312255859375;0.030940072610974312;-0.059597816318273544;0.002457298804074526
-0.0860137939453125;-0.188629150390625;-1.001312255859375;0.030940072610974312;-0.059597816318273544;0.002457298804074526
-0.0860137939453125;-0.188629150390625;-1.001312255859375;0.030940072610974312;-0.059597816318273544;0.002457298804074526
-0.0860137939453125;-0.188629150390625;-1.001312255859375;0.06459390372037888;-0.04436426982283592;0.002186721656471491
-0.0860137939453125;-0.188629150390625;-1.001312255859375;0.06459390372037888;-0.04436426982283592;0.002186721656471491
-0.087921142578125;-0.19012451171875;-1.00213623046875;0.06459390372037888;-0.04436426982283592;0.002186721656471491
-0.087921142578125;-0.19012451171875;-1.00213623046875;0.06459390372037888;-0.04436426982283592;0.002186721656471491
-0.087921142578125;-0.19012451171875;-1.00213623046875;0.06459390372037888;-0.04436426982283592;0.002186721656471491
-0.087921142578125;-0.19012451171875;-1.00213623046875;0.09372781962156296;-0.027937890961766243;0.0009350358741357923
-0.087921142578125;-0.19012451171875;-1.00213623046875;0.09372781962156296;-0.027937890961766243;0.0009350358741357923
-0.087921142578125;-0.19012451171875;-1.00213623046875;0.09372781962156296;-0.027937890961766243;0.0009350358741357923
-0.087890625;-0.19189453125;-1.0024871826171875;0.09372781962156296;-0.027937890961766243;0.0009350358741357923
-0.087890625;-0.19189453125;-1.0024871826171875;0.09372781962156296;-0.027937890961766243;0.0009350358741357923
-0.087890625;-0.19189453125;-1.0024871826171875;0.1129704937338829;-0.010372213087975979;0.0014018879737704992
-0.087890625;-0.19189453125;-1.0024871826171875;0.1129704937338829;-0.010372213087975979;0.0014018879737704992
-0.0880126953125;-0.1932373046875;-1.0026702880859375;0.1129704937338829;-0.010372213087975979;0.0014018879737704992
-0.0880126953125;-0.1932373046875;-1.0026702880859375;0.1129704937338829;-0.010372213087975979;0.0014018879737704992
-0.0880126953125;-0.1932373046875;-1.0026702880859375;0.1129704937338829;-0.010372213087975979;0.0014018879737704992
-0.0880126953125;-0.1932373046875;-1.0026702880859375;0.1258343607187271;0.004674646537750959;0.0028969866689294577
-0.0880126953125;-0.1932373046875;-1.0026702880859375;0.1258343607187271;0.004674646537750959;0.0028969866689294577
-0.087646484375;-0.195465087890625;-1.0021820068359375;0.1258343607187271;0.004674646537750959;0.0028969866689294577
-0.087646484375;-0.195465087890625;-1.0021820068359375;0.1258343607187271;0.004674646537750959;0.0028969866689294577
-0.087646484375;-0.195465087890625;-1.0021820068359375;0.1258343607187271;0.004674646537750959;0.0028969866689294577
-0.087646484375;-0.195465087890625;-1.0021820068359375;0.12544527649879456;0.011717109940946102;-0.003165433183312416
-0.087646484375;-0.195465087890625;-1.0021820068359375;0.12544527649879456;0.011717109940946102;-0.003165433183312416
-0.0858154296875;-0.1961212158203125;-0.9994354248046875;0.12544527649879456;0.011717109940946102;-0.003165433183312416
-0.0858154296875;-0.1961212158203125;-0.9994354248046875;0.12544527649879456;0.011717109940946102;-0.003165433183312416
-0.0858154296875;-0.1961212158203125;-0.9994354248046875;0.12544527649879456;0.011717109940946102;-0.003165433183312416
-0.0858154296875;-0.1961212158203125;-0.9994354248046875;0.11899962276220322;0.017715347930788994;0.003019491909071803
-0.0858154296875;-0.1961212158203125;-0.9994354248046875;0.11899962276220322;0.017715347930788994;0.003019491909071803
-0.085296630859375;-0.1972198486328125;-0.996795654296875;0.11899962276220322;0.017715347930788994;0.003019491909071803
-0.085296630859375;-0.1972198486328125;-0.996795654296875;0.11899962276220322;0.017715347930788994;0.003019491909071803
-0.085296630859375;-0.1972198486328125;-0.996795654296875;0.11899962276220322;0.017715347930788994;0.003019491909071803
-0.085296630859375;-0.1972198486328125;-0.996795654296875;0.10105391591787338;0.017120396718382835;0.0027305390685796738
-0.085296630859375;-0.1972198486328125;-0.996795654296875;0.10105391591787338;0.017120396718382835;0.0027305390685796738
-0.0836639404296875;-0.1972198486328125;-0.99615478515625;0.10105391591787338;0.017120396718382835;0.0027305390685796738
-0.0836639404296875;-0.1972198486328125;-0.99615478515625;0.10105391591787338;0.017120396718382835;0.0027305390685796738
-0.0836639404296875;-0.1972198486328125;-0.99615478515625;0.10105391591787338;0.017120396718382835;0.0027305390685796738
-0.0836639404296875;-0.1972198486328125;-0.99615478515625;0.0833343043923378;0.01062041986733675;0.002360359765589237
-0.0836639404296875;-0.1972198486328125;-0.99615478515625;0.0833343043923378;0.01062041986733675;0.002360359765589237
-0.0830230712890625;-0.197113037109375;-0.9950103759765625;0.0833343043923378;0.01062041986733675;0.002360359765589237
-0.0830230712890625;-0.197113037109375;-0.9950103759765625;0.0833343043923378;0.01062041986733675;0.002360359765589237
-0.0830230712890625;-0.197113037109375;-0.9950103759765625;0.0833343043923378;0.01062041986733675;0.002360359765589237
-0.0830230712890625;-0.197113037109375;-0.9950103759765625;0.06425754725933075;0.0008333030855283141;0.0012708604335784912
-0.0830230712890625;-0.197113037109375;-0.9950103759765625;0.06425754725933075;0.0008333030855283141;0.0012708604335784912
-0.0820465087890625;-0.1950531005859375;-0.9951324462890625;0.06425754725933075;0.0008333030855283141;0.0012708604335784912
-0.0820465087890625;-0.1950531005859375;-0.9951324462890625;0.06425754725933075;0.0008333030855283141;0.0012708604335784912
-0.0820465087890625;-0.1950531005859375;-0.9951324462890625;0.06425754725933075;0.0008333030855283141;0.0012708604335784912
-0.0820465087890625;-0.1950531005859375;-0.9951324462890625;0.04447079449892044;-0.011440407484769821;0.0028847360517829657
-0.0820465087890625;-0.1950531005859375;-0.9951324462890625;0.04447079449892044;-0.011440407484769821;0.0028847360517829657
-0.082061767578125;-0.195159912109375;-0.9948883056640625;0.04447079449892044;-0.011440407484769821;0.0028847360517829657
-0.082061767578125;-0.195159912109375;-0.9948883056640625;0.04447079449892044;-0.011440407484769821;0.0028847360517829657
-0.082061767578125;-0.195159912109375;-0.9948883056640625;0.04447079449892044;-0.011440407484769821;0.0028847360517829657
-0.082061767578125;-0.195159912109375;-0.9948883056640625;0.025256088003516197;-0.023539414629340172;0.0020969731267541647
-0.082061767578125;-0.195159912109375;-0.9948883056640625;0.025256088003516197;-0.023539414629340172;0.0020969731267541647
-0.0818634033203125;-0.194244384765625;-0.9945831298828125;0.025256088003516197;-0.023539414629340172;0.0020969731267541647
-0.0818634033203125;-0.194244384765625;-0.9945831298828125;0.025256088003516197;-0.023539414629340172;0.0020969731267541647
-0.0818634033203125;-0.194244384765625;-0.9945831298828125;0.025256088003516197;-0.023539414629340172;0.0020969731267541647
-0.0818634033203125;-0.194244384765625;-0.9945831298828125;0.009983125142753124;-0.033896978944540024;0.0011696603614836931
-0.0818634033203125;-0.194244384765625;-0.9945831298828125;0.009983125142753124;-0.033896978944540024;0.0011696603614836931
-0.081146240234375;-0.194610595703125;-0.9956512451171875;0.009983125142753124;-0.033896978944540024;0.0011696603614836931
-0.081146240234375;-0.194610595703125;-0.9956512451171875;0.009983125142753124;-0.033896978944540024;0.0011696603614836931
-0.081146240234375;-0.194610595703125;-0.9956512451171875;0.009983125142753124;-0.033896978944540024;0.0011696603614836931
-0.081146240234375;-0.194610595703125;-0.9956512451171875;0.0038104509003460407;-0.047757670283317566;0.0028780782595276833
-0.081146240234375;-0.194610595703125;-0.9956512451171875;0.0038104509003460407;-0.047757670283317566;0.0028780782595276833
-0.082000732421875;-0.1949310302734375;-0.9993438720703125;0.0038104509003460407;-0.047757670283317566;0.0028780782595276833
-0.082000732421875;-0.1949310302734375;-0.9993438720703125;0.0038104509003460407;-0.047757670283317566;0.0028780782595276833
-0.082000732421875;-0.1949310302734375;-0.9993438720703125;0.004081028047949076;-0.05622119456529617;0.0051710596308112144
-0.082000732421875;-0.1949310302734375;-0.9993438720703125;0.004081028047949076;-0.05622119456529617;0.0051710596308112144
-0.082550048828125;-0.1947479248046875;-1.000732421875;0.004081028047949076;-0.05622119456529617;0.0051710596308112144
-0.082550048828125;-0.1947479248046875;-1.000732421875;0.004081028047949076;-0.05622119456529617;0.0051710596308112144
-0.082550048828125;-0.1947479248046875;-1.000732421875;0.004081028047949076;-0.05622119456529617;0.0051710596308112144
-0.082550048828125;-0.1947479248046875;-1.000732421875;0.004118045791983604;-0.05222592130303383;0.007130613550543785
-0.082550048828125;-0.1947479248046875;-1.000732421875;0.004118045791983604;-0.05222592130303383;0.007130613550543785
-0.083404541015625;-0.1951904296875;-0.9999542236328125;0.004118045791983604;-0.05222592130303383;0.007130613550543785
-0.083404541015625;-0.1951904296875;-0.9999542236328125;0.004118045791983604;-0.05222592130303383;0.007130613550543785
-0.083404541015625;-0.1951904296875;-0.9999542236328125;0.004118045791983604;-0.05222592130303383;0.007130613550543785
-0.083404541015625;-0.1951904296875;-0.9999542236328125;0.010273942723870277;-0.03804778307676315;0.004418716765940189
-0.083404541015625;-0.1951904296875;-0.9999542236328125;0.010273942723870277;-0.03804778307676315;0.004418716765940189
-0.0849151611328125;-0.19622802734375;-0.994873046875;0.010273942723870277;-0.03804778307676315;0.004418716765940189
-0.0849151611328125;-0.19622802734375;-0.994873046875;0.010273942723870277;-0.03804778307676315;0.004418716765940189
-0.0849151611328125;-0.19622802734375;-0.994873046875;0.010273942723870277;-0.03804778307676315;0.004418716765940189
-0.0849151611328125;-0.19622802734375;-0.994873046875;0.008755141869187355;-0.02490401826798916;0.005049886181950569
-0.0849151611328125;-0.19622802734375;-0.994873046875;0.008755141869187355;-0.02490401826798916;0.005049886181950569
-0.0854339599609375;-0.197113037109375;-0.9902801513671875;0.008755141869187355;-0.02490401826798916;0.005049886181950569
-0.0854339599609375;-0.197113037109375;-0.9902801513671875;0.008755141869187355;-0.02490401826798916;0.005049886181950569
-0.0854339599609375;-0.197113037109375;-0.9902801513671875;0.008755141869187355;-0.02490401826798916;0.005049886181950569
-0.0854339599609375;-0.197113037109375;-0.9902801513671875;0.0029382656794041395;-0.01025769766420126;0.005645368713885546
-0.0854339599609375;-0.197113037109375;-0.9902801513671875;0.0029382656794041395;-0.01025769766420126;0.005645368713885546
-0.0865325927734375;-0.198944091796875;-0.98748779296875;0.0029382656794041395;-0.01025769766420126;0.005645368713885546
-0.0865325927734375;-0.198944091796875;-0.98748779296875;0.0029382656794041395;-0.01025769766420126;0.005645368713885546
-0.0865325927734375;-0.198944091796875;-0.98748779296875;0.0029382656794041395;-0.01025769766420126;0.005645368713885546
-0.0865325927734375;-0.198944091796875;-0.98748779296875;-0.00020186760229989886;-0.005067463032901287;0.005162005312740803
-0.0865325927734375;-0.198944091796875;-0.98748779296875;-0.00020186760229989886;-0.005067463032901287;0.005162005312740803
-0.084747314453125;-0.198883056640625;-0.9885101318359375;-0.00020186760229989886;-0.005067463032901287;0.005162005312740803
-0.084747314453125;-0.198883056640625;-0.9885101318359375;-0.00020186760229989886;-0.005067463032901287;0.005162005312740803
-0.084747314453125;-0.198883056640625;-0.9885101318359375;0.00028043086058460176;-0.013903032056987286;0.0038256309926509857
-0.084747314453125;-0.198883056640625;-0.9885101318359375;0.00028043086058460176;-0.013903032056987286;0.0038256309926509857
-0.084747314453125;-0.198883056640625;-0.9885101318359375;0.00028043086058460176;-0.013903032056987286;0.0038256309926509857
-0.0851287841796875;-0.1979522705078125;-0.9897308349609375;0.00028043086058460176;-0.013903032056987286;0.0038256309926509857
-0.0851287841796875;-0.1979522705078125;-0.9897308349609375;0.00028043086058460176;-0.013903032056987286;0.0038256309926509857
-0.0851287841796875;-0.1979522705078125;-0.9897308349609375;-0.004234958905726671;-0.026455841958522797;0.004523911513388157
-0.0851287841796875;-0.1979522705078125;-0.9897308349609375;-0.004234958905726671;-0.026455841958522797;0.004523911513388157
-0.0851287841796875;-0.1979522705078125;-0.9897308349609375;-0.004234958905726671;-0.026455841958522797;0.004523911513388157
-0.083770751953125;-0.197723388671875;-0.9913787841796875;-0.004234958905726671;-0.026455841958522797;0.004523911513388157
-0.083770751953125;-0.197723388671875;-0.9913787841796875;-0.004234958905726671;-0.026455841958522797;0.004523911513388157
-0.083770751953125;-0.197723388671875;-0.9913787841796875;-0.003156378399580717;-0.040609210729599;0.004309260752052069
-0.083770751953125;-0.197723388671875;-0.9913787841796875;-0.003156378399580717;-0.040609210729599;0.004309260752052069
-0.083770751953125;-0.197723388671875;-0.9913787841796875;-0.003156378399580717;-0.040609210729599;0.004309260752052069
-0.0832672119140625;-0.1981353759765625;-0.9919281005859375;-0.003156378399580717;-0.040609210729599;0.004309260752052069
-0.0832672119140625;-0.1981353759765625;-0.9919281005859375;-0.003156378399580717;-0.040609210729599;0.004309260752052069
-0.0832672119140625;-0.1981353759765625;-0.9919281005859375;-0.006338057108223438;-0.051904741674661636;0.0007789746159687638
-0.0832672119140625;-0.1981353759765625;-0.9919281005859375;-0.006338057108223438;-0.051904741674661636;0.0007789746159687638
-0.0832672119140625;-0.1981353759765625;-0.9919281005859375;-0.006338057108223438;-0.051904741674661636;0.0007789746159687638
-0.0830078125;-0.19830322265625;-0.9927825927734375;-0.006338057108223438;-0.051904741674661636;0.0007789746159687638
-0.0830078125;-0.19830322265625;-0.9927825927734375;-0.006338057108223438;-0.051904741674661636;0.0007789746159687638
-0.0830078125;-0.19830322265625;-0.9927825927734375;-0.0035811527632176876;-0.057626545429229736;0.0014482269762083888
-0.0830078125;-0.19830322265625;-0.9927825927734375;-0.0035811527632176876;-0.057626545429229736;0.0014482269762083888
-0.0830078125;-0.19830322265625;-0.9927825927734375;-0.0035811527632176876;-0.057626545429229736;0.0014482269762083888
-0.083251953125;-0.199462890625;-0.992889404296875;-0.0035811527632176876;-0.057626545429229736;0.0014482269762083888
-0.083251953125;-0.199462890625;-0.992889404296875;-0.0035811527632176876;-0.057626545429229736;0.0014482269762083888
-0.083251953125;-0.199462890625;-0.992889404296875;-0.004461061209440231;-0.05541718751192093;-9.321063407696784e-05
-0.083251953125;-0.199462890625;-0.992889404296875;-0.004461061209440231;-0.05541718751192093;-9.321063407696784e-05
-0.083251953125;-0.199462890625;-0.992889404296875;-0.004461061209440231;-0.05541718751192093;-9.321063407696784e-05
-0.0841217041015625;-0.1988372802734375;-0.9935760498046875;-0.004461061209440231;-0.05541718751192093;-9.321063407696784e-05
-0.0841217041015625;-0.1988372802734375;-0.9935760498046875;-0.004461061209440231;-0.05541718751192093;-9.321063407696784e-05
-0.0841217041015625;-0.1988372802734375;-0.9935760498046875;0.005939914379268885;-0.05362727493047714;-0.000788561999797821
-0.0841217041015625;-0.1988372802734375;-0.9935760498046875;0.005939914379268885;-0.05362727493047714;-0.000788561999797821
-0.0841217041015625;-0.1988372802734375;-0.9935760498046875;0.005939914379268885;-0.05362727493047714;-0.000788561999797821
-0.084381103515625;-0.199798583984375;-0.9951934814453125;0.005939914379268885;-0.05362727493047714;-0.000788561999797821
-0.084381103515625;-0.199798583984375;-0.9951934814453125;0.005939914379268885;-0.05362727493047714;-0.000788561999797821
-0.084381103515625;-0.199798583984375;-0.9951934814453125;0.013709686696529388;-0.043419644236564636;-9.374327055411413e-05
-0.084381103515625;-0.199798583984375;-0.9951934814453125;0.013709686696529388;-0.043419644236564636;-9.374327055411413e-05
-0.084381103515625;-0.199798583984375;-0.9951934814453125;0.013709686696529388;-0.043419644236564636;-9.374327055411413e-05
-0.086334228515625;-0.1999664306640625;-0.9962310791015625;0.013709686696529388;-0.043419644236564636;-9.374327055411413e-05
-0.086334228515625;-0.1999664306640625;-0.9962310791015625;0.013709686696529388;-0.043419644236564636;-9.374327055411413e-05
-0.086334228515625;-0.1999664306640625;-0.9962310791015625;0.02280092053115368;-0.03684110566973686;-0.002968625631183386
-0.086334228515625;-0.1999664306640625;-0.9962310791015625;0.02280092053115368;-0.03684110566973686;-0.002968625631183386
-0.086334228515625;-0.1999664306640625;-0.9962310791015625;0.02280092053115368;-0.03684110566973686;-0.002968625631183386
-0.0875244140625;-0.19915771484375;-0.9992218017578125;0.02280092053115368;-0.03684110566973686;-0.002968625631183386
-0.0875244140625;-0.19915771484375;-0.9992218017578125;0.02280092053115368;-0.03684110566973686;-0.002968625631183386
-0.0875244140625;-0.19915771484375;-0.9992218017578125;0.0341838039457798;-0.028842566534876823;-0.00012676646292675287
-0.0875244140625;-0.19915771484375;-0.9992218017578125;0.0341838039457798;-0.028842566534876823;-0.00012676646292675287
-0.0875244140625;-0.19915771484375;-0.9992218017578125;0.0341838039457798;-0.028842566534876823;-0.00012676646292675287
-0.0892333984375;-0.1998291015625;-0.9990234375;0.0341838039457798;-0.028842566534876823;-0.00012676646292675287
-0.0892333984375;-0.1998291015625;-0.9990234375;0.0341838039457798;-0.028842566534876823;-0.00012676646292675287
-0.0892333984375;-0.1998291015625;-0.9990234375;0.038049113005399704;-0.018764900043606758;-0.0004796353168785572
-0.0892333984375;-0.1998291015625;-0.9990234375;0.038049113005399704;-0.018764900043606758;-0.0004796353168785572
-0.0892333984375;-0.1998291015625;-0.9990234375;0.038049113005399704;-0.018764900043606758;-0.0004796353168785572
-0.0900115966796875;-0.1995849609375;-0.998870849609375;0.038049113005399704;-0.018764900043606758;-0.0004796353168785572
-0.0900115966796875;-0.1995849609375;-0.998870849609375;0.038049113005399704;-0.018764900043606758;-0.0004796353168785572
-0.0900115966796875;-0.1995849609375;-0.998870849609375;0.04259859398007393;-0.008171909488737583;-0.0014021543320268393
-0.0900115966796875;-0.1995849609375;-0.998870849609375;0.04259859398007393;-0.008171909488737583;-0.0014021543320268393
-0.0900115966796875;-0.1995849609375;-0.998870849609375;0.04259859398007393;-0.008171909488737583;-0.0014021543320268393
-0.0903472900390625;-0.1995391845703125;-0.99761962890625;0.04259859398007393;-0.008171909488737583;-0.0014021543320268393
-0.0903472900390625;-0.1995391845703125;-0.99761962890625;0.04259859398007393;-0.008171909488737583;-0.0014021543320268393
-0.0903472900390625;-0.1995391845703125;-0.99761962890625;0.043712858110666275;-0.008291752077639103;-0.0009432916413061321
-0.0903472900390625;-0.1995391845703125;-0.99761962890625;0.043712858110666275;-0.008291752077639103;-0.0009432916413061321
-0.0903472900390625;-0.1995391845703125;-0.99761962890625;0.043712858110666275;-0.008291752077639103;-0.0009432916413061321
-0.0907745361328125;-0.2004241943359375;-0.9964447021484375;0.043712858110666275;-0.008291752077639103;-0.0009432916413061321
-0.0907745361328125;-0.2004241943359375;-0.9964447021484375;0.043712858110666275;-0.008291752077639103;-0.0009432916413061321
-0.0907745361328125;-0.2004241943359375;-0.9964447021484375;0.04375174269080162;-0.008522914722561836;-0.0018730012234300375
-0.0907745361328125;-0.2004241943359375;-0.9964447021484375;0.04375174269080162;-0.008522914722561836;-0.0018730012234300375
-0.0907745361328125;-0.2004241943359375;-0.9964447021484375;0.04375174269080162;-0.008522914722561836;-0.0018730012234300375
-0.090301513671875;-0.1999359130859375;-0.9944305419921875;0.04375174269080162;-0.008522914722561836;-0.0018730012234300375
-0.090301513671875;-0.1999359130859375;-0.9944305419921875;0.04375174269080162;-0.008522914722561836;-0.0018730012234300375
-0.090301513671875;-0.1999359130859375;-0.9944305419921875;0.03641579672694206;-0.01104412879794836;-0.0036493295338004827
-0.090301513671875;-0.1999359130859375;-0.9944305419921875;0.03641579672694206;-0.01104412879794836;-0.0036493295338004827
-0.090301513671875;-0.1999359130859375;-0.9944305419921875;0.03641579672694206;-0.01104412879794836;-0.0036493295338004827
-0.090423583984375;-0.1996917724609375;-0.9931182861328125;0.03641579672694206;-0.01104412879794836;-0.0036493295338004827
-0.090423583984375;-0.1996917724609375;-0.9931182861328125;0.03641579672694206;-0.01104412879794836;-0.0036493295338004827
-0.090423583984375;-0.1996917724609375;-0.9931182861328125;0.03081224113702774;-0.009995109401643276;-0.003963316325098276
-0.090423583984375;-0.1996917724609375;-0.9931182861328125;0.03081224113702774;-0.009995109401643276;-0.003963316325098276
-0.090423583984375;-0.1996917724609375;-0.9931182861328125;0.03081224113702774;-0.009995109401643276;-0.003963316325098276
-0.089569091796875;-0.199615478515625;-0.991302490234375;0.03081224113702774;-0.009995109401643276;-0.003963316325098276
-0.089569091796875;-0.199615478515625;-0.991302490234375;0.03081224113702774;-0.009995109401643276;-0.003963316325098276
-0.089569091796875;-0.199615478515625;-0.991302490234375;0.025832396000623703;-0.016280969604849815;-0.0003145193331874907
-0.089569091796875;-0.199615478515625;-0.991302490234375;0.025832396000623703;-0.016280969604849815;-0.0003145193331874907
-0.089569091796875;-0.199615478515625;-0.991302490234375;0.025832396000623703;-0.016280969604849815;-0.0003145193331874907
-0.0902252197265625;-0.19744873046875;-0.990386962890625;0.025832396000623703;-0.016280969604849815;-0.0003145193331874907
-0.0902252197265625;-0.19744873046875;-0.990386962890625;0.025832396000623703;-0.016280969604849815;-0.0003145193331874907
-0.0902252197265625;-0.19744873046875;-0.990386962890625;0.016568323597311974;-0.020858410745859146;-0.00011771172285079956
-0.0902252197265625;-0.19744873046875;-0.990386962890625;0.016568323597311974;-0.020858410745859146;-0.00011771172285079956
-0.0902252197265625;-0.19744873046875;-0.990386962890625;0.016568323597311974;-0.020858410745859146;-0.00011771172285079956
-0.0891876220703125;-0.198150634765625;-0.9910125732421875;0.016568323597311974;-0.020858410745859146;-0.00011771172285079956
-0.0891876220703125;-0.198150634765625;-0.9910125732421875;0.016568323597311974;-0.020858410745859146;-0.00011771172285079956
-0.0891876220703125;-0.198150634765625;-0.9910125732421875;0.01386681292206049;-0.02173112891614437;-0.0008167914929799736
-0.0891876220703125;-0.198150634765625;-0.9910125732421875;0.01386681292206049;-0.02173112891614437;-0.0008167914929799736
-0.0891876220703125;-0.198150634765625;-0.9910125732421875;0.01386681292206049;-0.02173112891614437;-0.0008167914929799736
-0.08880615234375;-0.198944091796875;-0.9916534423828125;0.01386681292206049;-0.02173112891614437;-0.0008167914929799736
-0.08880615234375;-0.198944091796875;-0.9916534423828125;0.01386681292206049;-0.02173112891614437;-0.0008167914929799736
-0.08880615234375;-0.198944091796875;-0.9916534423828125;0.010207896120846272;-0.026376480236649513;0.001856755930930376
-0.08880615234375;-0.198944091796875;-0.9916534423828125;0.010207896120846272;-0.026376480236649513;0.001856755930930376
-0.08880615234375;-0.198944091796875;-0.9916534423828125;0.010207896120846272;-0.026376480236649513;0.001856755930930376
-0.0888671875;-0.199737548828125;-0.9931640625;0.010207896120846272;-0.026376480236649513;0.001856755930930376
-0.0888671875;-0.199737548828125;-0.9931640625;0.010207896120846272;-0.026376480236649513;0.001856755930930376
-0.0888671875;-0.199737548828125;-0.9931640625;0.008245413191616535;-0.02473543956875801;0.002222940558567643
-0.0888671875;-0.199737548828125;-0.9931640625;0.008245413191616535;-0.02473543956875801;0.002222940558567643
-0.0888671875;-0.199737548828125;-0.9931640625;0.008245413191616535;-0.02473543956875801;0.002222940558567643
-0.0888824462890625;-0.2001190185546875;-0.9930877685546875;0.008245413191616535;-0.02473543956875801;0.002222940558567643
-0.0888824462890625;-0.2001190185546875;-0.9930877685546875;0.008245413191616535;-0.02473543956875801;0.002222940558567643
-0.0888824462890625;-0.2001190185546875;-0.9930877685546875;0.0059628174640238285;-0.02310079149901867;0.004397677723318338
-0.0888824462890625;-0.2001190185546875;-0.9930877685546875;0.0059628174640238285;-0.02310079149901867;0.004397677723318338
-0.089508056640625;-0.2006683349609375;-0.992645263671875;0.0059628174640238285;-0.02310079149901867;0.004397677723318338
-0.089508056640625;-0.2006683349609375;-0.992645263671875;0.0059628174640238285;-0.02310079149901867;0.004397677723318338
-0.089508056640625;-0.2006683349609375;-0.992645263671875;0.0059628174640238285;-0.02310079149901867;0.004397677723318338
-0.089508056640625;-0.2006683349609375;-0.992645263671875;0.006140716839581728;-0.024196682497859;0.0015395734226331115
-0.089508056640625;-0.2006683349609375;-0.992645263671875;0.006140716839581728;-0.024196682497859;0.0015395734226331115
-0.090576171875;-0.2022705078125;-0.99188232421875;0.006140716839581728;-0.024196682497859;0.0015395734226331115
-0.090576171875;-0.2022705078125;-0.99188232421875;0.006140716839581728;-0.024196682497859;0.0015395734226331115
-0.090576171875;-0.2022705078125;-0.99188232421875;0.006140716839581728;-0.024196682497859;0.0015395734226331115
-0.090576171875;-0.2022705078125;-0.99188232421875;0.005702094174921513;-0.027212979272007942;0.0033875408116728067
-0.090576171875;-0.2022705078125;-0.99188232421875;0.005702094174921513;-0.027212979272007942;0.0033875408116728067
-0.0916595458984375;-0.2020263671875;-0.993133544921875;0.005702094174921513;-0.027212979272007942;0.0033875408116728067
-0.0916595458984375;-0.2020263671875;-0.993133544921875;0.005702094174921513;-0.027212979272007942;0.0033875408116728067
-0.0916595458984375;-0.2020263671875;-0.993133544921875;0.005702094174921513;-0.027212979272007942;0.0033875408116728067
-0.0916595458984375;-0.2020263671875;-0.993133544921875;0.013680391944944859;-0.03688637912273407;0.002129729837179184
-0.0916595458984375;-0.2020263671875;-0.993133544921875;0.013680391944944859;-0.03688637912273407;0.002129729837179184
-0.0916595458984375;-0.2020263671875;-0.993133544921875;0.013680391944944859;-0.03688637912273407;0.002129729837179184
-0.091094970703125;-0.2030487060546875;-1.000152587890625;0.013680391944944859;-0.03688637912273407;0.002129729837179184
-0.091094970703125;-0.2030487060546875;-1.000152587890625;0.013680391944944859;-0.03688637912273407;0.002129729837179184
-0.091094970703125;-0.2030487060546875;-1.000152587890625;0.01913987286388874;-0.04280312359333038;0.002560629276558757
-0.091094970703125;-0.2030487060546875;-1.000152587890625;0.01913987286388874;-0.04280312359333038;0.002560629276558757
-0.0923004150390625;-0.20367431640625;-1.0021209716796875;0.01913987286388874;-0.04280312359333038;0.002560629276558757
-0.0923004150390625;-0.20367431640625;-1.0021209716796875;0.01913987286388874;-0.04280312359333038;0.002560629276558757
-0.0923004150390625;-0.20367431640625;-1.0021209716796875;0.01913987286388874;-0.04280312359333038;0.002560629276558757
-0.0923004150390625;-0.20367431640625;-1.0021209716796875;0.024768196046352386;-0.035410188138484955;0.00119575927965343
-0.0923004150390625;-0.20367431640625;-1.0021209716796875;0.024768196046352386;-0.035410188138484955;0.00119575927965343
-0.0924224853515625;-0.2054901123046875;-0.99615478515625;0.024768196046352386;-0.035410188138484955;0.00119575927965343
-0.0924224853515625;-0.2054901123046875;-0.99615478515625;0.024768196046352386;-0.035410188138484955;0.00119575927965343
-0.0924224853515625;-0.2054901123046875;-0.99615478515625;0.024768196046352386;-0.035410188138484955;0.00119575927965343
-0.0924224853515625;-0.2054901123046875;-0.99615478515625;0.024515196681022644;-0.010822820477187634;-0.0005182511522434652
-0.0924224853515625;-0.2054901123046875;-0.99615478515625;0.024515196681022644;-0.010822820477187634;-0.0005182511522434652
-0.09375;-0.205963134765625;-0.992950439453125;0.024515196681022644;-0.010822820477187634;-0.0005182511522434652
-0.09375;-0.205963134765625;-0.992950439453125;0.024515196681022644;-0.010822820477187634;-0.0005182511522434652
-0.09375;-0.205963134765625;-0.992950439453125;0.024515196681022644;-0.010822820477187634;-0.0005182511522434652
-0.09375;-0.205963134765625;-0.992950439453125;0.02449788525700569;0.007229150738567114;0.002386725042015314
-0.09375;-0.205963134765625;-0.992950439453125;0.02449788525700569;0.007229150738567114;0.002386725042015314
-0.093780517578125;-0.2063751220703125;-0.992828369140625;0.02449788525700569;0.007229150738567114;0.002386725042015314
-0.093780517578125;-0.2063751220703125;-0.992828369140625;0.02449788525700569;0.007229150738567114;0.002386725042015314
-0.093780517578125;-0.2063751220703125;-0.992828369140625;0.02449788525700569;0.007229150738567114;0.002386725042015314
-0.093780517578125;-0.2063751220703125;-0.992828369140625;0.025663550943136215;0.016711868345737457;0.005672266706824303
-0.093780517578125;-0.2063751220703125;-0.992828369140625;0.025663550943136215;0.016711868345737457;0.005672266706824303
-0.0931854248046875;-0.205596923828125;-0.9962310791015625;0.025663550943136215;0.016711868345737457;0.005672266706824303
-0.0931854248046875;-0.205596923828125;-0.9962310791015625;0.025663550943136215;0.016711868345737457;0.005672266706824303
-0.0931854248046875;-0.205596923828125;-0.9962310791015625;0.025663550943136215;0.016711868345737457;0.005672266706824303
-0.0931854248046875;-0.205596923828125;-0.9962310791015625;0.025078454986214638;0.015469237230718136;0.0078544607385993
-0.0931854248046875;-0.205596923828125;-0.9962310791015625;0.025078454986214638;0.015469237230718136;0.0078544607385993
-0.0938720703125;-0.204803466796875;-0.9988250732421875;0.025078454986214638;0.015469237230718136;0.0078544607385993
-0.0938720703125;-0.204803466796875;-0.9988250732421875;0.025078454986214638;0.015469237230718136;0.0078544607385993
-0.0938720703125;-0.204803466796875;-0.9988250732421875;0.025078454986214638;0.015469237230718136;0.0078544607385993
-0.0938720703125;-0.204803466796875;-0.9988250732421875;0.02804788015782833;0.014328072778880596;0.0051566786132752895
-0.0938720703125;-0.204803466796875;-0.9988250732421875;0.02804788015782833;0.014328072778880596;0.0051566786132752895
-0.0951080322265625;-0.20330810546875;-0.99951171875;0.02804788015782833;0.014328072778880596;0.0051566786132752895
-0.0951080322265625;-0.20330810546875;-0.99951171875;0.02804788015782833;0.014328072778880596;0.0051566786132752895
-0.0951080322265625;-0.20330810546875;-0.99951171875;0.02804788015782833;0.014328072778880596;0.0051566786132752895
-0.0951080322265625;-0.20330810546875;-0.99951171875;0.01667165383696556;0.01764104515314102;0.008431301452219486
-0.0951080322265625;-0.20330810546875;-0.99951171875;0.01667165383696556;0.01764104515314102;0.008431301452219486
-0.09527587890625;-0.2030029296875;-0.9970245361328125;0.01667165383696556;0.01764104515314102;0.008431301452219486
-0.09527587890625;-0.2030029296875;-0.9970245361328125;0.01667165383696556;0.01764104515314102;0.008431301452219486
-0.09527587890625;-0.2030029296875;-0.9970245361328125;0.01667165383696556;0.01764104515314102;0.008431301452219486
-0.09527587890625;-0.2030029296875;-0.9970245361328125;0.0038535939529538155;0.02953978255391121;0.010102435015141964
-0.09527587890625;-0.2030029296875;-0.9970245361328125;0.0038535939529538155;0.02953978255391121;0.010102435015141964
-0.093719482421875;-0.20263671875;-0.9919281005859375;0.0038535939529538155;0.02953978255391121;0.010102435015141964
-0.093719482421875;-0.20263671875;-0.9919281005859375;0.0038535939529538155;0.02953978255391121;0.010102435015141964
-0.093719482421875;-0.20263671875;-0.9919281005859375;0.0038535939529538155;0.02953978255391121;0.010102435015141964
-0.093719482421875;-0.20263671875;-0.9919281005859375;-0.023996679112315178;0.054966047406196594;0.009033708833158016
-0.093719482421875;-0.20263671875;-0.9919281005859375;-0.023996679112315178;0.054966047406196594;0.009033708833158016
-0.09161376953125;-0.203033447265625;-0.9824371337890625;-0.023996679112315178;0.054966047406196594;0.009033708833158016
-0.09161376953125;-0.203033447265625;-0.9824371337890625;-0.023996679112315178;0.054966047406196594;0.009033708833158016
-0.09161376953125;-0.203033447265625;-0.9824371337890625;-0.023996679112315178;0.054966047406196594;0.009033708833158016
-0.09161376953125;-0.203033447265625;-0.9824371337890625;-0.05645235627889633;0.06293874979019165;0.004999019671231508
-0.09161376953125;-0.203033447265625;-0.9824371337890625;-0.05645235627889633;0.06293874979019165;0.004999019671231508
-0.09033203125;-0.2032623291015625;-0.9780426025390625;-0.05645235627889633;0.06293874979019165;0.004999019671231508
-0.09033203125;-0.2032623291015625;-0.9780426025390625;-0.05645235627889633;0.06293874979019165;0.004999019671231508
-0.09033203125;-0.2032623291015625;-0.9780426025390625;-0.05645235627889633;0.06293874979019165;0.004999019671231508
-0.09033203125;-0.2032623291015625;-0.9780426025390625;-0.07088056206703186;0.05331861600279808;0.003958788700401783
-0.09033203125;-0.2032623291015625;-0.9780426025390625;-0.07088056206703186;0.05331861600279808;0.003958788700401783
-0.08880615234375;-0.2021942138671875;-0.9835968017578125;-0.07088056206703186;0.05331861600279808;0.003958788700401783
-0.08880615234375;-0.2021942138671875;-0.9835968017578125;-0.07088056206703186;0.05331861600279808;0.003958788700401783
-0.08880615234375;-0.2021942138671875;-0.9835968017578125;-0.07088056206703186;0.05331861600279808;0.003958788700401783
-0.08880615234375;-0.2021942138671875;-0.9835968017578125;-0.0725434422492981;0.02990037389099598;-3.1957933970261365e-06
-0.08880615234375;-0.2021942138671875;-0.9835968017578125;-0.0725434422492981;0.02990037389099598;-3.1957933970261365e-06
-0.086212158203125;-0.2007904052734375;-0.9939117431640625;-0.0725434422492981;0.02990037389099598;-3.1957933970261365e-06
-0.086212158203125;-0.2007904052734375;-0.9939117431640625;-0.0725434422492981;0.02990037389099598;-3.1957933970261365e-06
-0.086212158203125;-0.2007904052734375;-0.9939117431640625;-0.0725434422492981;0.02990037389099598;-3.1957933970261365e-06
-0.086212158203125;-0.2007904052734375;-0.9939117431640625;-0.05402301996946335;-0.007041397970169783;-0.001969673903658986
-0.086212158203125;-0.2007904052734375;-0.9939117431640625;-0.05402301996946335;-0.007041397970169783;-0.001969673903658986
-0.0840606689453125;-0.1996612548828125;-1.0016021728515625;-0.05402301996946335;-0.007041397970169783;-0.001969673903658986
-0.0840606689453125;-0.1996612548828125;-1.0016021728515625;-0.05402301996946335;-0.007041397970169783;-0.001969673903658986
-0.0840606689453125;-0.1996612548828125;-1.0016021728515625;-0.05402301996946335;-0.007041397970169783;-0.001969673903658986
-0.0840606689453125;-0.1996612548828125;-1.0016021728515625;-0.031369373202323914;-0.03374970704317093;-0.003605121048167348
-0.0840606689453125;-0.1996612548828125;-1.0016021728515625;-0.031369373202323914;-0.03374970704317093;-0.003605121048167348
-0.0843963623046875;-0.2009124755859375;-1.006591796875;-0.031369373202323914;-0.03374970704317093;-0.003605121048167348
-0.0843963623046875;-0.2009124755859375;-1.006591796875;-0.031369373202323914;-0.03374970704317093;-0.003605121048167348
-0.0843963623046875;-0.2009124755859375;-1.006591796875;-0.031369373202323914;-0.03374970704317093;-0.003605121048167348
-0.0843963623046875;-0.2009124755859375;-1.006591796875;-0.0029060414526611567;-0.03917776420712471;-0.008771653287112713
-0.0843963623046875;-0.2009124755859375;-1.006591796875;-0.0029060414526611567;-0.03917776420712471;-0.008771653287112713
-0.08502197265625;-0.2035369873046875;-1.0068206787109375;-0.0029060414526611567;-0.03917776420712471;-0.008771653287112713
-0.08502197265625;-0.2035369873046875;-1.0068206787109375;-0.0029060414526611567;-0.03917776420712471;-0.008771653287112713
-0.08502197265625;-0.2035369873046875;-1.0068206787109375;0.02797730639576912;-0.026013225317001343;-0.0033601103350520134
-0.08502197265625;-0.2035369873046875;-1.0068206787109375;0.02797730639576912;-0.026013225317001343;-0.0033601103350520134
-0.08502197265625;-0.2035369873046875;-1.0068206787109375;0.02797730639576912;-0.026013225317001343;-0.0033601103350520134
-0.0881195068359375;-0.2076873779296875;-1.0044403076171875;0.02797730639576912;-0.026013225317001343;-0.0033601103350520134
-0.0881195068359375;-0.2076873779296875;-1.0044403076171875;0.02797730639576912;-0.026013225317001343;-0.0033601103350520134
-0.0881195068359375;-0.2076873779296875;-1.0044403076171875;0.057922955602407455;-0.005564142484217882;-0.0031055121216923
-0.0881195068359375;-0.2076873779296875;-1.0044403076171875;0.057922955602407455;-0.005564142484217882;-0.0031055121216923
-0.0881195068359375;-0.2076873779296875;-1.0044403076171875;0.057922955602407455;-0.005564142484217882;-0.0031055121216923
-0.0904083251953125;-0.2103424072265625;-1.004119873046875;0.057922955602407455;-0.005564142484217882;-0.0031055121216923
-0.0904083251953125;-0.2103424072265625;-1.004119873046875;0.057922955602407455;-0.005564142484217882;-0.0031055121216923
-0.0904083251953125;-0.2103424072265625;-1.004119873046875;0.0781983956694603;0.02256043627858162;-0.005560413934290409
-0.0904083251953125;-0.2103424072265625;-1.004119873046875;0.0781983956694603;0.02256043627858162;-0.005560413934290409
-0.0904083251953125;-0.2103424072265625;-1.004119873046875;0.0781983956694603;0.02256043627858162;-0.005560413934290409
-0.0914306640625;-0.21136474609375;-1.0048675537109375;0.0781983956694603;0.02256043627858162;-0.005560413934290409
-0.0914306640625;-0.21136474609375;-1.0048675537109375;0.0781983956694603;0.02256043627858162;-0.005560413934290409
-0.0914306640625;-0.21136474609375;-1.0048675537109375;0.09391424804925919;0.04441620036959648;-0.003908189013600349
-0.0914306640625;-0.21136474609375;-1.0048675537109375;0.09391424804925919;0.04441620036959648;-0.003908189013600349
-0.0914306640625;-0.21136474609375;-1.0048675537109375;0.09391424804925919;0.04441620036959648;-0.003908189013600349
-0.092193603515625;-0.21282958984375;-1.006591796875;0.09391424804925919;0.04441620036959648;-0.003908189013600349
-0.092193603515625;-0.21282958984375;-1.006591796875;0.09391424804925919;0.04441620036959648;-0.003908189013600349
-0.092193603515625;-0.21282958984375;-1.006591796875;0.09700963646173477;0.06550470739603043;0.0016508935950696468
-0.092193603515625;-0.21282958984375;-1.006591796875;0.09700963646173477;0.06550470739603043;0.0016508935950696468
-0.092193603515625;-0.21282958984375;-1.006591796875;0.09700963646173477;0.06550470739603043;0.0016508935950696468
-0.0927581787109375;-0.213165283203125;-1.0045928955078125;0.09700963646173477;0.06550470739603043;0.0016508935950696468
-0.0927581787109375;-0.213165283203125;-1.0045928955078125;0.09700963646173477;0.06550470739603043;0.0016508935950696468
-0.0927581787109375;-0.213165283203125;-1.0045928955078125;0.08602835983037949;0.07321961969137192;0.004930043593049049
-0.0927581787109375;-0.213165283203125;-1.0045928955078125;0.08602835983037949;0.07321961969137192;0.004930043593049049
-0.0927581787109375;-0.213165283203125;-1.0045928955078125;0.08602835983037949;0.07321961969137192;0.004930043593049049
-0.0942230224609375;-0.2122650146484375;-1.001373291015625;0.08602835983037949;0.07321961969137192;0.004930043593049049
-0.0942230224609375;-0.2122650146484375;-1.001373291015625;0.08602835983037949;0.07321961969137192;0.004930043593049049
-0.0942230224609375;-0.2122650146484375;-1.001373291015625;0.06362930685281754;0.07976939529180527;0.008285893127322197
-0.0942230224609375;-0.2122650146484375;-1.001373291015625;0.06362930685281754;0.07976939529180527;0.008285893127322197
-0.0942230224609375;-0.2122650146484375;-1.001373291015625;0.06362930685281754;0.07976939529180527;0.008285893127322197
-0.093017578125;-0.2109375;-0.9970245361328125;0.06362930685281754;0.07976939529180527;0.008285893127322197
-0.093017578125;-0.2109375;-0.9970245361328125;0.06362930685281754;0.07976939529180527;0.008285893127322197
-0.093017578125;-0.2109375;-0.9970245361328125;0.031136346980929375;0.07987938821315765;0.009438775479793549
-0.093017578125;-0.2109375;-0.9970245361328125;0.031136346980929375;0.07987938821315765;0.009438775479793549
-0.093017578125;-0.2109375;-0.9970245361328125;0.031136346980929375;0.07987938821315765;0.009438775479793549
-0.0923004150390625;-0.209564208984375;-0.9924468994140625;0.031136346980929375;0.07987938821315765;0.009438775479793549
-0.0923004150390625;-0.209564208984375;-0.9924468994140625;0.031136346980929375;0.07987938821315765;0.009438775479793549
-0.0923004150390625;-0.209564208984375;-0.9924468994140625;-0.0023872575256973505;0.07335570454597473;0.012223909609019756
-0.0923004150390625;-0.209564208984375;-0.9924468994140625;-0.0023872575256973505;0.07335570454597473;0.012223909609019756
-0.0923004150390625;-0.209564208984375;-0.9924468994140625;-0.0023872575256973505;0.07335570454597473;0.012223909609019756
-0.0904388427734375;-0.2057037353515625;-0.9899444580078125;-0.0023872575256973505;0.07335570454597473;0.012223909609019756
-0.0904388427734375;-0.2057037353515625;-0.9899444580078125;-0.0023872575256973505;0.07335570454597473;0.012223909609019756
-0.0904388427734375;-0.2057037353515625;-0.9899444580078125;-0.037691984325647354;0.06277310103178024;0.010039051994681358
-0.0904388427734375;-0.2057037353515625;-0.9899444580078125;-0.037691984325647354;0.06277310103178024;0.010039051994681358
-0.0904388427734375;-0.2057037353515625;-0.9899444580078125;-0.037691984325647354;0.06277310103178024;0.010039051994681358
-0.0867462158203125;-0.2020416259765625;-0.98858642578125;-0.037691984325647354;0.06277310103178024;0.010039051994681358
-0.0867462158203125;-0.2020416259765625;-0.98858642578125;-0.037691984325647354;0.06277310103178024;0.010039051994681358
-0.0867462158203125;-0.2020416259765625;-0.98858642578125;-0.06979319453239441;0.046784814447164536;0.012622584588825703
-0.0867462158203125;-0.2020416259765625;-0.98858642578125;-0.06979319453239441;0.046784814447164536;0.012622584588825703
-0.0867462158203125;-0.2020416259765625;-0.98858642578125;-0.06979319453239441;0.046784814447164536;0.012622584588825703
-0.083953857421875;-0.197296142578125;-0.988616943359375;-0.06979319453239441;0.046784814447164536;0.012622584588825703
-0.083953857421875;-0.197296142578125;-0.988616943359375;-0.06979319453239441;0.046784814447164536;0.012622584588825703
-0.083953857421875;-0.197296142578125;-0.988616943359375;-0.09097971022129059;0.03200720250606537;0.012028699740767479
-0.083953857421875;-0.197296142578125;-0.988616943359375;-0.09097971022129059;0.03200720250606537;0.012028699740767479
-0.083953857421875;-0.197296142578125;-0.988616943359375;-0.09097971022129059;0.03200720250606537;0.012028699740767479
-0.081390380859375;-0.1951751708984375;-0.9893951416015625;-0.09097971022129059;0.03200720250606537;0.012028699740767479
-0.081390380859375;-0.1951751708984375;-0.9893951416015625;-0.09097971022129059;0.03200720250606537;0.012028699740767479
-0.081390380859375;-0.1951751708984375;-0.9893951416015625;-0.10726840049028397;0.021228855475783348;0.011378888040781021
-0.081390380859375;-0.1951751708984375;-0.9893951416015625;-0.10726840049028397;0.021228855475783348;0.011378888040781021
-0.081390380859375;-0.1951751708984375;-0.9893951416015625;-0.10726840049028397;0.021228855475783348;0.011378888040781021
-0.081451416015625;-0.19537353515625;-0.99066162109375;-0.10726840049028397;0.021228855475783348;0.011378888040781021
-0.081451416015625;-0.19537353515625;-0.99066162109375;-0.10726840049028397;0.021228855475783348;0.011378888040781021
-0.081451416015625;-0.19537353515625;-0.99066162109375;-0.11448103934526443;0.007801996544003487;0.00863023940473795
-0.081451416015625;-0.19537353515625;-0.99066162109375;-0.11448103934526443;0.007801996544003487;0.00863023940473795
-0.081451416015625;-0.19537353515625;-0.99066162109375;-0.11448103934526443;0.007801996544003487;0.00863023940473795
-0.080230712890625;-0.1938934326171875;-0.9917755126953125;-0.11448103934526443;0.007801996544003487;0.00863023940473795
-0.080230712890625;-0.1938934326171875;-0.9917755126953125;-0.11448103934526443;0.007801996544003487;0.00863023940473795
-0.080230712890625;-0.1938934326171875;-0.9917755126953125;-0.11116833239793777;0.006772951222956181;0.007517304737120867
-0.080230712890625;-0.1938934326171875;-0.9917755126953125;-0.11116833239793777;0.006772951222956181;0.007517304737120867
-0.080230712890625;-0.1938934326171875;-0.9917755126953125;-0.11116833239793777;0.006772951222956181;0.007517304737120867
-0.0803070068359375;-0.194549560546875;-0.993011474609375;-0.11116833239793777;0.006772951222956181;0.007517304737120867
-0.0803070068359375;-0.194549560546875;-0.993011474609375;-0.11116833239793777;0.006772951222956181;0.007517304737120867
-0.0803070068359375;-0.194549560546875;-0.993011474609375;-0.10273277014493942;0.002965962514281273;0.004999818746000528
-0.0803070068359375;-0.194549560546875;-0.993011474609375;-0.10273277014493942;0.002965962514281273;0.004999818746000528
-0.0803070068359375;-0.194549560546875;-0.993011474609375;-0.10273277014493942;0.002965962514281273;0.004999818746000528
-0.081207275390625;-0.1950531005859375;-0.996612548828125;-0.10273277014493942;0.002965962514281273;0.004999818746000528
-0.081207275390625;-0.1950531005859375;-0.996612548828125;-0.10273277014493942;0.002965962514281273;0.004999818746000528
-0.081207275390625;-0.1950531005859375;-0.996612548828125;-0.08863160014152527;0.007811850402504206;0.003681021276861429
-0.081207275390625;-0.1950531005859375;-0.996612548828125;-0.08863160014152527;0.007811850402504206;0.003681021276861429
-0.081207275390625;-0.1950531005859375;-0.996612548828125;-0.08863160014152527;0.007811850402504206;0.003681021276861429
-0.082000732421875;-0.19696044921875;-0.996337890625;-0.08863160014152527;0.007811850402504206;0.003681021276861429
-0.082000732421875;-0.19696044921875;-0.996337890625;-0.08863160014152527;0.007811850402504206;0.003681021276861429
-0.082000732421875;-0.19696044921875;-0.996337890625;-0.07412322610616684;0.0167347714304924;0.004078897647559643
-0.082000732421875;-0.19696044921875;-0.996337890625;-0.07412322610616684;0.0167347714304924;0.004078897647559643
-0.082000732421875;-0.19696044921875;-0.996337890625;-0.07412322610616684;0.0167347714304924;0.004078897647559643
-0.0832061767578125;-0.1963043212890625;-0.9943389892578125;-0.07412322610616684;0.0167347714304924;0.004078897647559643
-0.0832061767578125;-0.1963043212890625;-0.9943389892578125;-0.07412322610616684;0.0167347714304924;0.004078897647559643
-0.0832061767578125;-0.1963043212890625;-0.9943389892578125;-0.06616437435150146;0.0308748260140419;0.004496747627854347
-0.0832061767578125;-0.1963043212890625;-0.9943389892578125;-0.06616437435150146;0.0308748260140419;0.004496747627854347
-0.0832061767578125;-0.1963043212890625;-0.9943389892578125;-0.06616437435150146;0.0308748260140419;0.004496747627854347
-0.0835723876953125;-0.198516845703125;-0.9900054931640625;-0.06616437435150146;0.0308748260140419;0.004496747627854347
-0.0835723876953125;-0.198516845703125;-0.9900054931640625;-0.06616437435150146;0.0308748260140419;0.004496747627854347
-0.0835723876953125;-0.198516845703125;-0.9900054931640625;-0.05735170468688011;0.04493977874517441;0.005820871330797672
-0.0835723876953125;-0.198516845703125;-0.9900054931640625;-0.05735170468688011;0.04493977874517441;0.005820871330797672
-0.0835723876953125;-0.198516845703125;-0.9900054931640625;-0.05735170468688011;0.04493977874517441;0.005820871330797672
-0.084381103515625;-0.2001800537109375;-0.9881134033203125;-0.05735170468688011;0.04493977874517441;0.005820871330797672
-0.084381103515625;-0.2001800537109375;-0.9881134033203125;-0.05735170468688011;0.04493977874517441;0.005820871330797672
-0.084381103515625;-0.2001800537109375;-0.9881134033203125;-0.04945463314652443;0.05181312933564186;0.004786765668541193
-0.084381103515625;-0.2001800537109375;-0.9881134033203125;-0.04945463314652443;0.05181312933564186;0.004786765668541193
-0.084381103515625;-0.2001800537109375;-0.9881134033203125;-0.04945463314652443;0.05181312933564186;0.004786765668541193
-0.0848846435546875;-0.20062255859375;-0.9883270263671875;-0.04945463314652443;0.05181312933564186;0.004786765668541193
-0.0848846435546875;-0.20062255859375;-0.9883270263671875;-0.04945463314652443;0.05181312933564186;0.004786765668541193
-0.0848846435546875;-0.20062255859375;-0.9883270263671875;-0.047336090356111526;0.0539947934448719;0.004288754425942898
-0.0848846435546875;-0.20062255859375;-0.9883270263671875;-0.047336090356111526;0.0539947934448719;0.004288754425942898
-0.08367919921875;-0.20220947265625;-0.990966796875;-0.047336090356111526;0.0539947934448719;0.004288754425942898
-0.08367919921875;-0.20220947265625;-0.990966796875;-0.047336090356111526;0.0539947934448719;0.004288754425942898
-0.08367919921875;-0.20220947265625;-0.990966796875;-0.047336090356111526;0.0539947934448719;0.004288754425942898
-0.08367919921875;-0.20220947265625;-0.990966796875;-0.04983360320329666;0.0530693419277668;0.004590224474668503
-0.08367919921875;-0.20220947265625;-0.990966796875;-0.04983360320329666;0.0530693419277668;0.004590224474668503
-0.083709716796875;-0.2023162841796875;-0.9923095703125;-0.04983360320329666;0.0530693419277668;0.004590224474668503
-0.083709716796875;-0.2023162841796875;-0.9923095703125;-0.04983360320329666;0.0530693419277668;0.004590224474668503
-0.083709716796875;-0.2023162841796875;-0.9923095703125;-0.04983360320329666;0.0530693419277668;0.004590224474668503
-0.083709716796875;-0.2023162841796875;-0.9923095703125;-0.047443680465221405;0.04607801139354706;0.0015401060227304697
-0.083709716796875;-0.2023162841796875;-0.9923095703125;-0.047443680465221405;0.04607801139354706;0.0015401060227304697
-0.082244873046875;-0.20147705078125;-0.992340087890625;-0.047443680465221405;0.04607801139354706;0.0015401060227304697
-0.082244873046875;-0.20147705078125;-0.992340087890625;-0.047443680465221405;0.04607801139354706;0.0015401060227304697
-0.082244873046875;-0.20147705078125;-0.992340087890625;-0.047443680465221405;0.04607801139354706;0.0015401060227304697
-0.082244873046875;-0.20147705078125;-0.992340087890625;-0.051681037992239;0.04220204800367355;0.004233893472701311
-0.082244873046875;-0.20147705078125;-0.992340087890625;-0.051681037992239;0.04220204800367355;0.004233893472701311
-0.08099365234375;-0.2015838623046875;-0.9921875;-0.051681037992239;0.04220204800367355;0.004233893472701311
-0.08099365234375;-0.2015838623046875;-0.9921875;-0.051681037992239;0.04220204800367355;0.004233893472701311
-0.08099365234375;-0.2015838623046875;-0.9921875;-0.051681037992239;0.04220204800367355;0.004233893472701311
-0.08099365234375;-0.2015838623046875;-0.9921875;-0.054313305765390396;0.03647492080926895;0.004141747951507568
-0.08099365234375;-0.2015838623046875;-0.9921875;-0.054313305765390396;0.03647492080926895;0.004141747951507568
-0.0798797607421875;-0.20147705078125;-0.991485595703125;-0.054313305765390396;0.03647492080926895;0.004141747951507568
-0.0798797607421875;-0.20147705078125;-0.991485595703125;-0.054313305765390396;0.03647492080926895;0.004141747951507568
-0.0798797607421875;-0.20147705078125;-0.991485595703125;-0.054313305765390396;0.03647492080926895;0.004141747951507568
-0.0798797607421875;-0.20147705078125;-0.991485595703125;-0.06463918089866638;0.03128308802843094;0.0021028320770710707
-0.0798797607421875;-0.20147705078125;-0.991485595703125;-0.06463918089866638;0.03128308802843094;0.0021028320770710707
-0.07965087890625;-0.19940185546875;-0.9924163818359375;-0.06463918089866638;0.03128308802843094;0.0021028320770710707
-0.07965087890625;-0.19940185546875;-0.9924163818359375;-0.06463918089866638;0.03128308802843094;0.0021028320770710707
-0.07965087890625;-0.19940185546875;-0.9924163818359375;-0.06463918089866638;0.03128308802843094;0.0021028320770710707
-0.07965087890625;-0.19940185546875;-0.9924163818359375;-0.06811327487230301;0.026083266362547874;0.004926049150526524
-0.07965087890625;-0.19940185546875;-0.9924163818359375;-0.06811327487230301;0.026083266362547874;0.004926049150526524
-0.078826904296875;-0.1967315673828125;-0.9945068359375;-0.06811327487230301;0.026083266362547874;0.004926049150526524
-0.078826904296875;-0.1967315673828125;-0.9945068359375;-0.06811327487230301;0.026083266362547874;0.004926049150526524
-0.078826904296875;-0.1967315673828125;-0.9945068359375;-0.06811327487230301;0.026083266362547874;0.004926049150526524
-0.078826904296875;-0.1967315673828125;-0.9945068359375;-0.0667571946978569;0.021816881373524666;0.002822950715199113
-0.078826904296875;-0.1967315673828125;-0.9945068359375;-0.0667571946978569;0.021816881373524666;0.002822950715199113
-0.07965087890625;-0.19537353515625;-0.99407958984375;-0.0667571946978569;0.021816881373524666;0.002822950715199113
-0.07965087890625;-0.19537353515625;-0.99407958984375;-0.0667571946978569;0.021816881373524666;0.002822950715199113
-0.07965087890625;-0.19537353515625;-0.99407958984375;-0.0667571946978569;0.021816881373524666;0.002822950715199113
-0.07965087890625;-0.19537353515625;-0.99407958984375;-0.06355474144220352;0.018570754677057266;0.0008815063047222793
-0.07965087890625;-0.19537353515625;-0.99407958984375;-0.06355474144220352;0.018570754677057266;0.0008815063047222793
-0.0788116455078125;-0.1929931640625;-0.993743896484375;-0.06355474144220352;0.018570754677057266;0.0008815063047222793
-0.0788116455078125;-0.1929931640625;-0.993743896484375;-0.06355474144220352;0.018570754677057266;0.0008815063047222793
-0.0788116455078125;-0.1929931640625;-0.993743896484375;-0.06355474144220352;0.018570754677057266;0.0008815063047222793
-0.0788116455078125;-0.1929931640625;-0.993743896484375;-0.06317523866891861;0.01818060129880905;0.0025422535836696625
-0.0788116455078125;-0.1929931640625;-0.993743896484375;-0.06317523866891861;0.01818060129880905;0.0025422535836696625
-0.078460693359375;-0.19293212890625;-0.9927978515625;-0.06317523866891861;0.01818060129880905;0.0025422535836696625
-0.078460693359375;-0.19293212890625;-0.9927978515625;-0.06317523866891861;0.01818060129880905;0.0025422535836696625
-0.078460693359375;-0.19293212890625;-0.9927978515625;-0.06317523866891861;0.01818060129880905;0.0025422535836696625
-0.078460693359375;-0.19293212890625;-0.9927978515625;-0.05961539223790169;0.015247396193444729;0.0054791877046227455
-0.078460693359375;-0.19293212890625;-0.9927978515625;-0.05961539223790169;0.015247396193444729;0.0054791877046227455
-0.078460693359375;-0.191650390625;-0.9925689697265625;-0.05961539223790169;0.015247396193444729;0.0054791877046227455
-0.078460693359375;-0.191650390625;-0.9925689697265625;-0.05961539223790169;0.015247396193444729;0.0054791877046227455
-0.078460693359375;-0.191650390625;-0.9925689697265625;-0.05961539223790169;0.015247396193444729;0.0054791877046227455
-0.078460693359375;-0.191650390625;-0.9925689697265625;-0.053289320319890976;0.011872371658682823;0.0022357236593961716
-0.078460693359375;-0.191650390625;-0.9925689697265625;-0.053289320319890976;0.011872371658682823;0.0022357236593961716
-0.0788421630859375;-0.1895904541015625;-0.99603271484375;-0.053289320319890976;0.011872371658682823;0.0022357236593961716
-0.0788421630859375;-0.1895904541015625;-0.99603271484375;-0.053289320319890976;0.011872371658682823;0.0022357236593961716
-0.0788421630859375;-0.1895904541015625;-0.99603271484375;-0.053289320319890976;0.011872371658682823;0.0022357236593961716
-0.0788421630859375;-0.1895904541015625;-0.99603271484375;-0.04225744307041168;0.003829359309747815;0.002936934120953083
-0.0788421630859375;-0.1895904541015625;-0.99603271484375;-0.04225744307041168;0.003829359309747815;0.002936934120953083
-0.0780181884765625;-0.188446044921875;-0.999267578125;-0.04225744307041168;0.003829359309747815;0.002936934120953083
-0.0780181884765625;-0.188446044921875;-0.999267578125;-0.04225744307041168;0.003829359309747815;0.002936934120953083
-0.0780181884765625;-0.188446044921875;-0.999267578125;-0.04225744307041168;0.003829359309747815;0.002936934120953083
-0.0780181884765625;-0.188446044921875;-0.999267578125;-0.028389031067490578;-5.326322207110934e-05;0.002246909076347947
-0.0780181884765625;-0.188446044921875;-0.999267578125;-0.028389031067490578;-5.326322207110934e-05;0.002246909076347947
-0.0780181884765625;-0.188446044921875;-0.999267578125;-0.028389031067490578;-5.326322207110934e-05;0.002246909076347947
-0.0781707763671875;-0.1866912841796875;-1.0013580322265625;-0.028389031067490578;-5.326322207110934e-05;0.002246909076347947
-0.0781707763671875;-0.1866912841796875;-1.0013580322265625;-0.028389031067490578;-5.326322207110934e-05;0.002246909076347947
-0.0781707763671875;-0.1866912841796875;-1.0013580322265625;-0.013553093187510967;0.0022005699574947357;0.0002878876985050738
-0.0781707763671875;-0.1866912841796875;-1.0013580322265625;-0.013553093187510967;0.0022005699574947357;0.0002878876985050738
-0.0791473388671875;-0.1854248046875;-1.001007080078125;-0.013553093187510967;0.0022005699574947357;0.0002878876985050738
-0.0791473388671875;-0.1854248046875;-1.001007080078125;-0.013553093187510967;0.0022005699574947357;0.0002878876985050738
-0.0791473388671875;-0.1854248046875;-1.001007080078125;-0.013553093187510967;0.0022005699574947357;0.0002878876985050738
-0.0791473388671875;-0.1854248046875;-1.001007080078125;-0.0006468818173743784;0.005351355765014887;-0.0027869981713593006
-0.0791473388671875;-0.1854248046875;-1.001007080078125;-0.0006468818173743784;0.005351355765014887;-0.0027869981713593006
-0.0778656005859375;-0.185028076171875;-1.00164794921875;-0.0006468818173743784;0.005351355765014887;-0.0027869981713593006
-0.0778656005859375;-0.185028076171875;-1.00164794921875;-0.0006468818173743784;0.005351355765014887;-0.0027869981713593006
-0.0778656005859375;-0.185028076171875;-1.00164794921875;0.009213738143444061;0.011266502551734447;-0.00541473925113678
-0.0778656005859375;-0.185028076171875;-1.00164794921875;0.009213738143444061;0.011266502551734447;-0.00541473925113678
-0.0778656005859375;-0.185028076171875;-1.00164794921875;0.009213738143444061;0.011266502551734447;-0.00541473925113678
-0.0780181884765625;-0.1850433349609375;-1.0013275146484375;0.009213738143444061;0.011266502551734447;-0.00541473925113678
-0.0780181884765625;-0.1850433349609375;-1.0013275146484375;0.009213738143444061;0.011266502551734447;-0.00541473925113678
-0.0780181884765625;-0.1850433349609375;-1.0013275146484375;0.01569693721830845;0.022299446165561676;-0.0030743530951440334
-0.0780181884765625;-0.1850433349609375;-1.0013275146484375;0.01569693721830845;0.022299446165561676;-0.0030743530951440334
-0.0780181884765625;-0.1850433349609375;-1.0013275146484375;0.01569693721830845;0.022299446165561676;-0.0030743530951440334
-0.0772552490234375;-0.1849365234375;-0.999786376953125;0.01569693721830845;0.022299446165561676;-0.0030743530951440334
-0.0772552490234375;-0.1849365234375;-0.999786376953125;0.01569693721830845;0.022299446165561676;-0.0030743530951440334
-0.0772552490234375;-0.1849365234375;-0.999786376953125;0.01569693721830845;0.022299446165561676;-0.0030743530951440334
-0.0772552490234375;-0.1849365234375;-0.999786376953125;0.015312377363443375;0.02287096157670021;-0.0033984598703682423
-0.0772552490234375;-0.1849365234375;-0.999786376953125;0.015312377363443375;0.02287096157670021;-0.0033984598703682423
-0.07537841796875;-0.185302734375;-0.99798583984375;0.015312377363443375;0.02287096157670021;-0.0033984598703682423
-0.07537841796875;-0.185302734375;-0.99798583984375;0.015312377363443375;0.02287096157670021;-0.0033984598703682423
-0.07537841796875;-0.185302734375;-0.99798583984375;0.01187876332551241;0.02913178689777851;-0.0031284152064472437
-0.07537841796875;-0.185302734375;-0.99798583984375;0.01187876332551241;0.02913178689777851;-0.0031284152064472437
-0.07537841796875;-0.185302734375;-0.99798583984375;0.01187876332551241;0.02913178689777851;-0.0031284152064472437
-0.0749053955078125;-0.1855621337890625;-0.9947052001953125;0.01187876332551241;0.02913178689777851;-0.0031284152064472437
-0.0749053955078125;-0.1855621337890625;-0.9947052001953125;0.01187876332551241;0.02913178689777851;-0.0031284152064472437
-0.0749053955078125;-0.1855621337890625;-0.9947052001953125;0.0033688987605273724;0.031026359647512436;-0.0018495653057470918
-0.0749053955078125;-0.1855621337890625;-0.9947052001953125;0.0033688987605273724;0.031026359647512436;-0.0018495653057470918
-0.0749053955078125;-0.1855621337890625;-0.9947052001953125;0.0033688987605273724;0.031026359647512436;-0.0018495653057470918
-0.0730743408203125;-0.1866607666015625;-0.9919281005859375;0.0033688987605273724;0.031026359647512436;-0.0018495653057470918
-0.0730743408203125;-0.1866607666015625;-0.9919281005859375;0.0033688987605273724;0.031026359647512436;-0.0018495653057470918
-0.0730743408203125;-0.1866607666015625;-0.9919281005859375;-0.009454754181206226;0.03093740902841091;-0.002514290390536189
-0.0730743408203125;-0.1866607666015625;-0.9919281005859375;-0.009454754181206226;0.03093740902841091;-0.002514290390536189
-0.0730743408203125;-0.1866607666015625;-0.9919281005859375;-0.009454754181206226;0.03093740902841091;-0.002514290390536189
-0.0727081298828125;-0.1887359619140625;-0.9903106689453125;-0.009454754181206226;0.03093740902841091;-0.002514290390536189
-0.0727081298828125;-0.1887359619140625;-0.9903106689453125;-0.009454754181206226;0.03093740902841091;-0.002514290390536189
-0.0727081298828125;-0.1887359619140625;-0.9903106689453125;-0.023072563111782074;0.02468164451420307;-0.0009299758239649236
-0.0727081298828125;-0.1887359619140625;-0.9903106689453125;-0.023072563111782074;0.02468164451420307;-0.0009299758239649236
-0.0727081298828125;-0.1887359619140625;-0.9903106689453125;-0.023072563111782074;0.02468164451420307;-0.0009299758239649236
-0.0736236572265625;-0.187896728515625;-0.989471435546875;-0.023072563111782074;0.02468164451420307;-0.0009299758239649236
-0.0736236572265625;-0.187896728515625;-0.989471435546875;-0.023072563111782074;0.02468164451420307;-0.0009299758239649236
-0.0736236572265625;-0.187896728515625;-0.989471435546875;-0.03340456262230873;0.018985409289598465;0.0026959178503602743
-0.0736236572265625;-0.187896728515625;-0.989471435546875;-0.03340456262230873;0.018985409289598465;0.0026959178503602743
-0.0736236572265625;-0.187896728515625;-0.989471435546875;-0.03340456262230873;0.018985409289598465;0.0026959178503602743
-0.074554443359375;-0.189208984375;-0.991424560546875;-0.03340456262230873;0.018985409289598465;0.0026959178503602743
-0.074554443359375;-0.189208984375;-0.991424560546875;-0.03340456262230873;0.018985409289598465;0.0026959178503602743
-0.074554443359375;-0.189208984375;-0.991424560546875;-0.035595811903476715;0.0027260116767138243;0.000919323181733489
-0.074554443359375;-0.189208984375;-0.991424560546875;-0.035595811903476715;0.0027260116767138243;0.000919323181733489
-0.074554443359375;-0.189208984375;-0.991424560546875;-0.035595811903476715;0.0027260116767138243;0.000919323181733489
-0.0745086669921875;-0.19036865234375;-0.9971466064453125;-0.035595811903476715;0.0027260116767138243;0.000919323181733489
-0.0745086669921875;-0.19036865234375;-0.9971466064453125;-0.035595811903476715;0.0027260116767138243;0.000919323181733489
-0.0745086669921875;-0.19036865234375;-0.9971466064453125;-0.030919566750526428;-0.01133787538856268;0.0005635248962789774
-0.0745086669921875;-0.19036865234375;-0.9971466064453125;-0.030919566750526428;-0.01133787538856268;0.0005635248962789774
-0.0745086669921875;-0.19036865234375;-0.9971466064453125;-0.030919566750526428;-0.01133787538856268;0.0005635248962789774
-0.073577880859375;-0.19036865234375;-1.0040435791015625;-0.030919566750526428;-0.01133787538856268;0.0005635248962789774
-0.073577880859375;-0.19036865234375;-1.0040435791015625;-0.030919566750526428;-0.01133787538856268;0.0005635248962789774
-0.073577880859375;-0.19036865234375;-1.0040435791015625;-0.022054435685276985;-0.01501277182251215;0.0009294432238675654
-0.073577880859375;-0.19036865234375;-1.0040435791015625;-0.022054435685276985;-0.01501277182251215;0.0009294432238675654
-0.073577880859375;-0.19036865234375;-1.0040435791015625;-0.022054435685276985;-0.01501277182251215;0.0009294432238675654
-0.0721893310546875;-0.19049072265625;-1.006561279296875;-0.022054435685276985;-0.01501277182251215;0.0009294432238675654
-0.0721893310546875;-0.19049072265625;-1.006561279296875;-0.022054435685276985;-0.01501277182251215;0.0009294432238675654
-0.0721893310546875;-0.19049072265625;-1.006561279296875;-0.015398929826915264;-0.007932225242257118;0.004287689458578825
-0.0721893310546875;-0.19049072265625;-1.006561279296875;-0.015398929826915264;-0.007932225242257118;0.004287689458578825
-0.0721893310546875;-0.19049072265625;-1.006561279296875;-0.015398929826915264;-0.007932225242257118;0.004287689458578825
-0.0732421875;-0.1915283203125;-1.0033111572265625;-0.015398929826915264;-0.007932225242257118;0.004287689458578825
-0.0732421875;-0.1915283203125;-1.0033111572265625;-0.015398929826915264;-0.007932225242257118;0.004287689458578825
-0.0732421875;-0.1915283203125;-1.0033111572265625;-0.008709069341421127;0.015619440004229546;0.005613943561911583
-0.0732421875;-0.1915283203125;-1.0033111572265625;-0.008709069341421127;0.015619440004229546;0.005613943561911583
-0.0732421875;-0.1915283203125;-1.0033111572265625;-0.008709069341421127;0.015619440004229546;0.005613943561911583
-0.0736083984375;-0.1914520263671875;-0.998382568359375;-0.008709069341421127;0.015619440004229546;0.005613943561911583
-0.0736083984375;-0.1914520263671875;-0.998382568359375;-0.008709069341421127;0.015619440004229546;0.005613943561911583
-0.0736083984375;-0.1914520263671875;-0.998382568359375;-0.010186324827373028;0.037399835884571075;0.00908590666949749
-0.0736083984375;-0.1914520263671875;-0.998382568359375;-0.010186324827373028;0.037399835884571075;0.00908590666949749
-0.0736083984375;-0.1914520263671875;-0.998382568359375;-0.010186324827373028;0.037399835884571075;0.00908590666949749
-0.074462890625;-0.191497802734375;-0.9922027587890625;-0.010186324827373028;0.037399835884571075;0.00908590666949749
-0.074462890625;-0.191497802734375;-0.9922027587890625;-0.010186324827373028;0.037399835884571075;0.00908590666949749
-0.074462890625;-0.191497802734375;-0.9922027587890625;-0.015269233845174313;0.051239218562841415;0.006810235325247049
-0.074462890625;-0.191497802734375;-0.9922027587890625;-0.015269233845174313;0.051239218562841415;0.006810235325247049
-0.074462890625;-0.191497802734375;-0.9922027587890625;-0.015269233845174313;0.051239218562841415;0.006810235325247049
-0.0755767822265625;-0.1894683837890625;-0.99017333984375;-0.015269233845174313;0.051239218562841415;0.006810235325247049
-0.0755767822265625;-0.1894683837890625;-0.99017333984375;-0.015269233845174313;0.051239218562841415;0.006810235325247049
-0.0755767822265625;-0.1894683837890625;-0.99017333984375;-0.030961643904447556;0.04983493313193321;0.009601494297385216
-0.0755767822265625;-0.1894683837890625;-0.99017333984375;-0.030961643904447556;0.04983493313193321;0.009601494297385216
-0.0755767822265625;-0.1894683837890625;-0.99017333984375;-0.030961643904447556;0.04983493313193321;0.009601494297385216
-0.07568359375;-0.1865997314453125;-0.9888763427734375;-0.030961643904447556;0.04983493313193321;0.009601494297385216
-0.07568359375;-0.1865997314453125;-0.9888763427734375;-0.030961643904447556;0.04983493313193321;0.009601494297385216
-0.07568359375;-0.1865997314453125;-0.9888763427734375;-0.04315439611673355;0.044627122581005096;0.010497115552425385
-0.07568359375;-0.1865997314453125;-0.9888763427734375;-0.04315439611673355;0.044627122581005096;0.010497115552425385
-0.07568359375;-0.1865997314453125;-0.9888763427734375;-0.04315439611673355;0.044627122581005096;0.010497115552425385
-0.0735931396484375;-0.183990478515625;-0.990631103515625;-0.04315439611673355;0.044627122581005096;0.010497115552425385
-0.0735931396484375;-0.183990478515625;-0.990631103515625;-0.04767164960503578;0.03500325605273247;0.009984723292291164
-0.0735931396484375;-0.183990478515625;-0.990631103515625;-0.04767164960503578;0.03500325605273247;0.009984723292291164
-0.0735931396484375;-0.183990478515625;-0.990631103515625;-0.04767164960503578;0.03500325605273247;0.009984723292291164
-0.0735321044921875;-0.1823577880859375;-0.9946746826171875;-0.04767164960503578;0.03500325605273247;0.009984723292291164
-0.0735321044921875;-0.1823577880859375;-0.9946746826171875;-0.04767164960503578;0.03500325605273247;0.009984723292291164
-0.0735321044921875;-0.1823577880859375;-0.9946746826171875;-0.05711068958044052;0.03515638783574104;0.005609150044620037
-0.0735321044921875;-0.1823577880859375;-0.9946746826171875;-0.05711068958044052;0.03515638783574104;0.005609150044620037
-0.0735321044921875;-0.1823577880859375;-0.9946746826171875;-0.05711068958044052;0.03515638783574104;0.005609150044620037
-0.0747833251953125;-0.1822509765625;-0.9970550537109375;-0.05711068958044052;0.03515638783574104;0.005609150044620037
-0.0747833251953125;-0.1822509765625;-0.9970550537109375;-0.05711068958044052;0.03515638783574104;0.005609150044620037
-0.0747833251953125;-0.1822509765625;-0.9970550537109375;-0.06815242022275925;0.04392218217253685;0.006370547693222761
-0.0747833251953125;-0.1822509765625;-0.9970550537109375;-0.06815242022275925;0.04392218217253685;0.006370547693222761
