Acell X;Acell Y;Acell Z;Gyro X;Gyro Y;Gyro Z

-0.033843994140625;-0.08868408203125;-1.0438079833984375;-0.07074713706970215;0.16612745821475983;-0.0011579424608498812
-0.04571533203125;-0.0996246337890625;-0.9718475341796875;-0.13915495574474335;0.13617940247058868;0.002775280037894845
-0.04571533203125;-0.0996246337890625;-0.9718475341796875;-0.13915495574474335;0.13617940247058868;0.002775280037894845
-0.04571533203125;-0.0996246337890625;-0.9718475341796875;-0.13915495574474335;0.13617940247058868;0.002775280037894845
-0.04571533203125;-0.0996246337890625;-0.9718475341796875;-0.13915495574474335;0.13617940247058868;0.002775280037894845
-0.04571533203125;-0.0996246337890625;-0.9718475341796875;-0.13915495574474335;0.13617940247058868;0.002775280037894845
-0.0185394287109375;-0.099090576171875;-0.94781494140625;-0.16916878521442413;0.05479693412780762;0.011501393280923367
-0.0185394287109375;-0.099090576171875;-0.94781494140625;-0.16916878521442413;0.05479693412780762;0.011501393280923367
-0.0185394287109375;-0.099090576171875;-0.94781494140625;-0.16916878521442413;0.05479693412780762;0.011501393280923367
-0.0185394287109375;-0.099090576171875;-0.94781494140625;-0.16916878521442413;0.05479693412780762;0.011501393280923367
-0.0185394287109375;-0.099090576171875;-0.94781494140625;-0.16916878521442413;0.05479693412780762;0.011501393280923367
-0.013031005859375;-0.0939788818359375;-0.98565673828125;-0.14261893928050995;-0.0375971756875515;0.016093483194708824
-0.013031005859375;-0.0939788818359375;-0.98565673828125;-0.14261893928050995;-0.0375971756875515;0.016093483194708824
-0.013031005859375;-0.0939788818359375;-0.98565673828125;-0.14261893928050995;-0.0375971756875515;0.016093483194708824
-0.013031005859375;-0.0939788818359375;-0.98565673828125;-0.14261893928050995;-0.0375971756875515;0.016093483194708824
-0.013031005859375;-0.0939788818359375;-0.98565673828125;-0.14261893928050995;-0.0375971756875515;0.016093483194708824
-0.020782470703125;-0.0869903564453125;-1.0223846435546875;-0.08647150546312332;-0.07258845120668411;0.010632936842739582
-0.020782470703125;-0.0869903564453125;-1.0223846435546875;-0.08647150546312332;-0.07258845120668411;0.010632936842739582
-0.020782470703125;-0.0869903564453125;-1.0223846435546875;-0.08647150546312332;-0.07258845120668411;0.010632936842739582
-0.020782470703125;-0.0869903564453125;-1.0223846435546875;-0.08647150546312332;-0.07258845120668411;0.010632936842739582
-0.020782470703125;-0.0869903564453125;-1.0223846435546875;-0.08647150546312332;-0.07258845120668411;0.010632936842739582
-0.0259857177734375;-0.0823974609375;-1.03558349609375;-0.019360914826393127;-0.03834099695086479;0.010403372347354889
-0.0259857177734375;-0.0823974609375;-1.03558349609375;-0.019360914826393127;-0.03834099695086479;0.010403372347354889
-0.0259857177734375;-0.0823974609375;-1.03558349609375;-0.019360914826393127;-0.03834099695086479;0.010403372347354889
-0.0259857177734375;-0.0823974609375;-1.03558349609375;-0.019360914826393127;-0.03834099695086479;0.010403372347354889
-0.0259857177734375;-0.0823974609375;-1.03558349609375;-0.019360914826393127;-0.03834099695086479;0.010403372347354889
-0.0277557373046875;-0.08349609375;-1.026092529296875;0.029045766219496727;0.025545306503772736;0.007248059380799532
-0.0277557373046875;-0.08349609375;-1.026092529296875;0.029045766219496727;0.025545306503772736;0.007248059380799532
-0.0277557373046875;-0.08349609375;-1.026092529296875;0.029045766219496727;0.025545306503772736;0.007248059380799532
-0.0277557373046875;-0.08349609375;-1.026092529296875;0.029045766219496727;0.025545306503772736;0.007248059380799532
-0.0277557373046875;-0.08349609375;-1.026092529296875;0.029045766219496727;0.025545306503772736;0.007248059380799532
-0.027587890625;-0.0870819091796875;-1.0121002197265625;0.03919320926070213;0.07389020174741745;0.010042780078947544
-0.027587890625;-0.0870819091796875;-1.0121002197265625;0.03919320926070213;0.07389020174741745;0.010042780078947544
-0.027587890625;-0.0870819091796875;-1.0121002197265625;0.03919320926070213;0.07389020174741745;0.010042780078947544
-0.027587890625;-0.0870819091796875;-1.0121002197265625;0.03919320926070213;0.07389020174741745;0.010042780078947544
-0.027587890625;-0.0870819091796875;-1.0121002197265625;0.03919320926070213;0.07389020174741745;0.010042780078947544
-0.024078369140625;-0.0908355712890625;-1.0028533935546875;0.022167086601257324;0.07976513355970383;0.009582852013409138
-0.024078369140625;-0.0908355712890625;-1.0028533935546875;0.022167086601257324;0.07976513355970383;0.009582852013409138
-0.024078369140625;-0.0908355712890625;-1.0028533935546875;0.022167086601257324;0.07976513355970383;0.009582852013409138
-0.024078369140625;-0.0908355712890625;-1.0028533935546875;0.022167086601257324;0.07976513355970383;0.009582852013409138
-0.024078369140625;-0.0908355712890625;-1.0028533935546875;0.022167086601257324;0.07976513355970383;0.009582852013409138
-0.0209503173828125;-0.0951690673828125;-1.0015869140625;-0.004031493328511715;0.048239436000585556;0.009486179798841476
-0.0209503173828125;-0.0951690673828125;-1.0015869140625;-0.004031493328511715;0.048239436000585556;0.009486179798841476
-0.0209503173828125;-0.0951690673828125;-1.0015869140625;-0.004031493328511715;0.048239436000585556;0.009486179798841476
-0.0209503173828125;-0.0951690673828125;-1.0015869140625;-0.004031493328511715;0.048239436000585556;0.009486179798841476
-0.0209503173828125;-0.0951690673828125;-1.0015869140625;-0.004031493328511715;0.048239436000585556;0.009486179798841476
-0.02069091796875;-0.1001129150390625;-1.008453369140625;-0.03766242414712906;0.00649704784154892;0.005878129042685032
-0.02069091796875;-0.1001129150390625;-1.008453369140625;-0.03766242414712906;0.00649704784154892;0.005878129042685032
-0.02069091796875;-0.1001129150390625;-1.008453369140625;-0.03766242414712906;0.00649704784154892;0.005878129042685032
-0.02069091796875;-0.1001129150390625;-1.008453369140625;-0.03766242414712906;0.00649704784154892;0.005878129042685032
-0.02069091796875;-0.1001129150390625;-1.008453369140625;-0.03766242414712906;0.00649704784154892;0.005878129042685032
-0.02069091796875;-0.1001129150390625;-1.008453369140625;-0.03766242414712906;0.00649704784154892;0.005878129042685032
-0.0195159912109375;-0.0980682373046875;-1.0085296630859375;-0.06529378890991211;-0.010275807231664658;0.005224855616688728
-0.0195159912109375;-0.0980682373046875;-1.0085296630859375;-0.06529378890991211;-0.010275807231664658;0.005224855616688728
-0.0195159912109375;-0.0980682373046875;-1.0085296630859375;-0.06529378890991211;-0.010275807231664658;0.005224855616688728
-0.0195159912109375;-0.0980682373046875;-1.0085296630859375;-0.06529378890991211;-0.010275807231664658;0.005224855616688728
-0.019744873046875;-0.0941619873046875;-1.004638671875;-0.08152948319911957;-0.006954045966267586;0.005209143273532391
-0.019744873046875;-0.0941619873046875;-1.004638671875;-0.08152948319911957;-0.006954045966267586;0.005209143273532391
-0.019744873046875;-0.0941619873046875;-1.004638671875;-0.08152948319911957;-0.006954045966267586;0.005209143273532391
-0.019744873046875;-0.0941619873046875;-1.004638671875;-0.08152948319911957;-0.006954045966267586;0.005209143273532391
-0.019744873046875;-0.0941619873046875;-1.004638671875;-0.08152948319911957;-0.006954045966267586;0.005209143273532391
-0.0215301513671875;-0.08819580078125;-1.005767822265625;-0.08134651929140091;0.00788508728146553;0.006081061903387308
-0.0215301513671875;-0.08819580078125;-1.005767822265625;-0.08134651929140091;0.00788508728146553;0.006081061903387308
-0.0215301513671875;-0.08819580078125;-1.005767822265625;-0.08134651929140091;0.00788508728146553;0.006081061903387308
-0.0215301513671875;-0.08819580078125;-1.005767822265625;-0.08134651929140091;0.00788508728146553;0.006081061903387308
-0.0215301513671875;-0.08819580078125;-1.005767822265625;-0.08134651929140091;0.00788508728146553;0.006081061903387308
-0.0206298828125;-0.0823516845703125;-1.0108795166015625;-0.06786453723907471;0.015139804221689701;0.0076158419251441956
-0.0206298828125;-0.0823516845703125;-1.0108795166015625;-0.06786453723907471;0.015139804221689701;0.0076158419251441956
-0.0206298828125;-0.0823516845703125;-1.0108795166015625;-0.06786453723907471;0.015139804221689701;0.0076158419251441956
-0.0206298828125;-0.0823516845703125;-1.0108795166015625;-0.06786453723907471;0.015139804221689701;0.0076158419251441956
-0.0206298828125;-0.0823516845703125;-1.0108795166015625;-0.06786453723907471;0.015139804221689701;0.0076158419251441956
-0.020782470703125;-0.077880859375;-1.016082763671875;-0.0513840951025486;0.008866461925208569;0.00845793355256319
-0.020782470703125;-0.077880859375;-1.016082763671875;-0.0513840951025486;0.008866461925208569;0.00845793355256319
-0.020782470703125;-0.077880859375;-1.016082763671875;-0.0513840951025486;0.008866461925208569;0.00845793355256319
-0.020782470703125;-0.077880859375;-1.016082763671875;-0.0513840951025486;0.008866461925208569;0.00845793355256319
-0.020782470703125;-0.077880859375;-1.016082763671875;-0.0513840951025486;0.008866461925208569;0.00845793355256319
-0.0220794677734375;-0.0726165771484375;-1.0207366943359375;-0.028902754187583923;0.0004498079069890082;0.007786816451698542
-0.0220794677734375;-0.0726165771484375;-1.0207366943359375;-0.028902754187583923;0.0004498079069890082;0.007786816451698542
-0.0220794677734375;-0.0726165771484375;-1.0207366943359375;-0.028902754187583923;0.0004498079069890082;0.007786816451698542
-0.0220794677734375;-0.0726165771484375;-1.0207366943359375;-0.028902754187583923;0.0004498079069890082;0.007786816451698542
-0.0220794677734375;-0.0726165771484375;-1.0207366943359375;-0.028902754187583923;0.0004498079069890082;0.007786816451698542
-0.021392822265625;-0.0692138671875;-1.02099609375;-0.005007009021937847;-0.0035659726709127426;0.010310694575309753
-0.021392822265625;-0.0692138671875;-1.02099609375;-0.005007009021937847;-0.0035659726709127426;0.010310694575309753
-0.021392822265625;-0.0692138671875;-1.02099609375;-0.005007009021937847;-0.0035659726709127426;0.010310694575309753
-0.021392822265625;-0.0692138671875;-1.02099609375;-0.005007009021937847;-0.0035659726709127426;0.010310694575309753
-0.021392822265625;-0.0692138671875;-1.02099609375;-0.005007009021937847;-0.0035659726709127426;0.010310694575309753
-0.0227813720703125;-0.070068359375;-1.020172119140625;0.013787451200187206;-0.0034053840208798647;0.010101635940372944
-0.0227813720703125;-0.070068359375;-1.020172119140625;0.013787451200187206;-0.0034053840208798647;0.010101635940372944
-0.0227813720703125;-0.070068359375;-1.020172119140625;0.013787451200187206;-0.0034053840208798647;0.010101635940372944
-0.0227813720703125;-0.070068359375;-1.020172119140625;0.013787451200187206;-0.0034053840208798647;0.010101635940372944
-0.0227813720703125;-0.070068359375;-1.020172119140625;0.013787451200187206;-0.0034053840208798647;0.010101635940372944
-0.0245513916015625;-0.06829833984375;-1.0193023681640625;0.02821272984147072;-0.0010255833622068167;0.011237740516662598
-0.0245513916015625;-0.06829833984375;-1.0193023681640625;0.02821272984147072;-0.0010255833622068167;0.011237740516662598
-0.0245513916015625;-0.06829833984375;-1.0193023681640625;0.02821272984147072;-0.0010255833622068167;0.011237740516662598
-0.0245513916015625;-0.06829833984375;-1.0193023681640625;0.02821272984147072;-0.0010255833622068167;0.011237740516662598
-0.0245513916015625;-0.06829833984375;-1.0193023681640625;0.02821272984147072;-0.0010255833622068167;0.011237740516662598
-0.0244598388671875;-0.0687713623046875;-1.0168914794921875;0.03911890834569931;0.0011653993278741837;0.010659302584826946
-0.0244598388671875;-0.0687713623046875;-1.0168914794921875;0.03911890834569931;0.0011653993278741837;0.010659302584826946
-0.0244598388671875;-0.0687713623046875;-1.0168914794921875;0.03911890834569931;0.0011653993278741837;0.010659302584826946
-0.0244598388671875;-0.0687713623046875;-1.0168914794921875;0.03911890834569931;0.0011653993278741837;0.010659302584826946
-0.0244598388671875;-0.0687713623046875;-1.0168914794921875;0.03911890834569931;0.0011653993278741837;0.010659302584826946
-0.0244598388671875;-0.070281982421875;-1.0160980224609375;0.041723478585481644;-0.0003784351865760982;0.009139169938862324
-0.0244598388671875;-0.070281982421875;-1.0160980224609375;0.041723478585481644;-0.0003784351865760982;0.009139169938862324
-0.0244598388671875;-0.070281982421875;-1.0160980224609375;0.041723478585481644;-0.0003784351865760982;0.009139169938862324
-0.0244598388671875;-0.070281982421875;-1.0160980224609375;0.041723478585481644;-0.0003784351865760982;0.009139169938862324
-0.0244598388671875;-0.070281982421875;-1.0160980224609375;0.041723478585481644;-0.0003784351865760982;0.009139169938862324
-0.0230712890625;-0.07366943359375;-1.0146636962890625;0.04405108094215393;-0.0027025758754462004;0.010302438400685787
-0.0230712890625;-0.07366943359375;-1.0146636962890625;0.04405108094215393;-0.0027025758754462004;0.010302438400685787
-0.0230712890625;-0.07366943359375;-1.0146636962890625;0.04405108094215393;-0.0027025758754462004;0.010302438400685787
-0.0230712890625;-0.07366943359375;-1.0146636962890625;0.04405108094215393;-0.0027025758754462004;0.010302438400685787
-0.0230712890625;-0.07366943359375;-1.0146636962890625;0.04405108094215393;-0.0027025758754462004;0.010302438400685787
-0.0231475830078125;-0.077880859375;-1.0144500732421875;0.04264732822775841;-0.006844324059784412;0.01010696217417717
-0.0231475830078125;-0.077880859375;-1.0144500732421875;0.04264732822775841;-0.006844324059784412;0.01010696217417717
-0.0231475830078125;-0.077880859375;-1.0144500732421875;0.04264732822775841;-0.006844324059784412;0.01010696217417717
-0.0231475830078125;-0.077880859375;-1.0144500732421875;0.04264732822775841;-0.006844324059784412;0.01010696217417717
-0.0231475830078125;-0.077880859375;-1.0144500732421875;0.04264732822775841;-0.006844324059784412;0.01010696217417717
-0.0237579345703125;-0.0816650390625;-1.0149993896484375;0.03903261944651604;-0.004261590540409088;0.01384098082780838
-0.0237579345703125;-0.0816650390625;-1.0149993896484375;0.03903261944651604;-0.004261590540409088;0.01384098082780838
-0.0237579345703125;-0.0816650390625;-1.0149993896484375;0.03903261944651604;-0.004261590540409088;0.01384098082780838
-0.0237579345703125;-0.0816650390625;-1.0149993896484375;0.03903261944651604;-0.004261590540409088;0.01384098082780838
-0.0237579345703125;-0.0816650390625;-1.0149993896484375;0.03903261944651604;-0.004261590540409088;0.01384098082780838
-0.0216217041015625;-0.084320068359375;-1.01458740234375;0.028027374297380447;-0.0010072075529024005;0.012988236732780933
-0.0216217041015625;-0.084320068359375;-1.01458740234375;0.028027374297380447;-0.0010072075529024005;0.012988236732780933
-0.0216217041015625;-0.084320068359375;-1.01458740234375;0.028027374297380447;-0.0010072075529024005;0.012988236732780933
-0.0216217041015625;-0.084320068359375;-1.01458740234375;0.028027374297380447;-0.0010072075529024005;0.012988236732780933
-0.0216217041015625;-0.084320068359375;-1.01458740234375;0.028027374297380447;-0.0010072075529024005;0.012988236732780933
-0.0204010009765625;-0.0865936279296875;-1.0082855224609375;0.015427958220243454;0.006820089183747768;0.013154684565961361
-0.0204010009765625;-0.0865936279296875;-1.0082855224609375;0.015427958220243454;0.006820089183747768;0.013154684565961361
-0.0204010009765625;-0.0865936279296875;-1.0082855224609375;0.015427958220243454;0.006820089183747768;0.013154684565961361
-0.0204010009765625;-0.0865936279296875;-1.0082855224609375;0.015427958220243454;0.006820089183747768;0.013154684565961361
-0.0204010009765625;-0.0865936279296875;-1.0082855224609375;0.015427958220243454;0.006820089183747768;0.013154684565961361
-0.0219879150390625;-0.0893096923828125;-1.0056610107421875;-0.0038924762047827244;0.01612810418009758;0.017243169248104095
-0.0219879150390625;-0.0893096923828125;-1.0056610107421875;-0.0038924762047827244;0.01612810418009758;0.017243169248104095
-0.0219879150390625;-0.0893096923828125;-1.0056610107421875;-0.0038924762047827244;0.01612810418009758;0.017243169248104095
-0.0219879150390625;-0.0893096923828125;-1.0056610107421875;-0.0038924762047827244;0.01612810418009758;0.017243169248104095
-0.0219879150390625;-0.0893096923828125;-1.0056610107421875;-0.0038924762047827244;0.01612810418009758;0.017243169248104095
-0.02227783203125;-0.0932464599609375;-1.0044708251953125;-0.02611575648188591;0.010645720176398754;0.018017349764704704
-0.02227783203125;-0.0932464599609375;-1.0044708251953125;-0.02611575648188591;0.010645720176398754;0.018017349764704704
-0.02227783203125;-0.0932464599609375;-1.0044708251953125;-0.02611575648188591;0.010645720176398754;0.018017349764704704
-0.02227783203125;-0.0932464599609375;-1.0044708251953125;-0.02611575648188591;0.010645720176398754;0.018017349764704704
-0.02227783203125;-0.0932464599609375;-1.0044708251953125;-0.02611575648188591;0.010645720176398754;0.018017349764704704
-0.0218658447265625;-0.094635009765625;-1.0072784423828125;-0.04645218700170517;0.007406783755868673;0.015146994963288307
-0.0218658447265625;-0.094635009765625;-1.0072784423828125;-0.04645218700170517;0.007406783755868673;0.015146994963288307
-0.0218658447265625;-0.094635009765625;-1.0072784423828125;-0.04645218700170517;0.007406783755868673;0.015146994963288307
-0.0218658447265625;-0.094635009765625;-1.0072784423828125;-0.04645218700170517;0.007406783755868673;0.015146994963288307
-0.0218658447265625;-0.094635009765625;-1.0072784423828125;-0.04645218700170517;0.007406783755868673;0.015146994963288307
-0.022430419921875;-0.0958099365234375;-1.0096588134765625;-0.06544505059719086;0.0034075146540999413;0.018126273527741432
-0.022430419921875;-0.0958099365234375;-1.0096588134765625;-0.06544505059719086;0.0034075146540999413;0.018126273527741432
-0.022430419921875;-0.0958099365234375;-1.0096588134765625;-0.06544505059719086;0.0034075146540999413;0.018126273527741432
-0.022430419921875;-0.0958099365234375;-1.0096588134765625;-0.06544505059719086;0.0034075146540999413;0.018126273527741432
-0.022430419921875;-0.0958099365234375;-1.0096588134765625;-0.06544505059719086;0.0034075146540999413;0.018126273527741432
-0.0232696533203125;-0.097869873046875;-1.0093841552734375;-0.08656418323516846;-0.004071440547704697;0.016646621748805046
-0.0232696533203125;-0.097869873046875;-1.0093841552734375;-0.08656418323516846;-0.004071440547704697;0.016646621748805046
-0.0232696533203125;-0.097869873046875;-1.0093841552734375;-0.08656418323516846;-0.004071440547704697;0.016646621748805046
-0.0232696533203125;-0.097869873046875;-1.0093841552734375;-0.08656418323516846;-0.004071440547704697;0.016646621748805046
-0.0232696533203125;-0.097869873046875;-1.0093841552734375;-0.08656418323516846;-0.004071440547704697;0.016646621748805046
-0.024078369140625;-0.0969696044921875;-1.00457763671875;-0.10807746648788452;0.006048038601875305;0.015670040622353554
-0.024078369140625;-0.0969696044921875;-1.00457763671875;-0.10807746648788452;0.006048038601875305;0.015670040622353554
-0.024078369140625;-0.0969696044921875;-1.00457763671875;-0.10807746648788452;0.006048038601875305;0.015670040622353554
-0.024078369140625;-0.0969696044921875;-1.00457763671875;-0.10807746648788452;0.006048038601875305;0.015670040622353554
-0.024078369140625;-0.0969696044921875;-1.00457763671875;-0.11698494106531143;0.009247560054063797;0.017235977575182915
-0.022674560546875;-0.0942840576171875;-1.0032501220703125;-0.11698494106531143;0.009247560054063797;0.017235977575182915
-0.022674560546875;-0.0942840576171875;-1.0032501220703125;-0.11698494106531143;0.009247560054063797;0.017235977575182915
-0.022674560546875;-0.0942840576171875;-1.0032501220703125;-0.11698494106531143;0.009247560054063797;0.017235977575182915
-0.022674560546875;-0.0942840576171875;-1.0032501220703125;-0.11698494106531143;0.009247560054063797;0.017235977575182915
-0.022674560546875;-0.0942840576171875;-1.0032501220703125;-0.1035037562251091;0.006231264211237431;0.02255803905427456
-0.0231781005859375;-0.0876922607421875;-1.0095367431640625;-0.1035037562251091;0.006231264211237431;0.02255803905427456
-0.0231781005859375;-0.0876922607421875;-1.0095367431640625;-0.1035037562251091;0.006231264211237431;0.02255803905427456
-0.0231781005859375;-0.0876922607421875;-1.0095367431640625;-0.1035037562251091;0.006231264211237431;0.02255803905427456
-0.0231781005859375;-0.0876922607421875;-1.0095367431640625;-0.1035037562251091;0.006231264211237431;0.02255803905427456
-0.0231781005859375;-0.0876922607421875;-1.0095367431640625;-0.07189682871103287;-0.00771863991394639;0.02315884828567505
-0.0230865478515625;-0.079132080078125;-1.01690673828125;-0.07189682871103287;-0.00771863991394639;0.02315884828567505
-0.0230865478515625;-0.079132080078125;-1.01690673828125;-0.07189682871103287;-0.00771863991394639;0.02315884828567505
-0.0230865478515625;-0.079132080078125;-1.01690673828125;-0.07189682871103287;-0.00771863991394639;0.02315884828567505
-0.0230865478515625;-0.079132080078125;-1.01690673828125;-0.07189682871103287;-0.00771863991394639;0.02315884828567505
-0.0230865478515625;-0.079132080078125;-1.01690673828125;-0.07189682871103287;-0.00771863991394639;0.02315884828567505
-0.0241546630859375;-0.0716400146484375;-1.0209503173828125;-0.030282005667686462;-0.014937936328351498;0.02810513786971569
-0.0241546630859375;-0.0716400146484375;-1.0209503173828125;-0.030282005667686462;-0.014937936328351498;0.02810513786971569
-0.0241546630859375;-0.0716400146484375;-1.0209503173828125;-0.030282005667686462;-0.014937936328351498;0.02810513786971569
-0.0241546630859375;-0.0716400146484375;-1.0209503173828125;-0.030282005667686462;-0.014937936328351498;0.02810513786971569
-0.0262603759765625;-0.0683746337890625;-1.0209808349609375;0.010212424211204052;-0.018556373193860054;0.026151975616812706
-0.0262603759765625;-0.0683746337890625;-1.0209808349609375;0.010212424211204052;-0.018556373193860054;0.026151975616812706
-0.0262603759765625;-0.0683746337890625;-1.0209808349609375;0.010212424211204052;-0.018556373193860054;0.026151975616812706
-0.0262603759765625;-0.0683746337890625;-1.0209808349609375;0.010212424211204052;-0.018556373193860054;0.026151975616812706
-0.0262603759765625;-0.0683746337890625;-1.0209808349609375;0.010212424211204052;-0.018556373193860054;0.026151975616812706
-0.0283660888671875;-0.063568115234375;-1.01727294921875;0.040763676166534424;-0.013819409534335136;0.027814587578177452
-0.0283660888671875;-0.063568115234375;-1.01727294921875;0.040763676166534424;-0.013819409534335136;0.027814587578177452
-0.0283660888671875;-0.063568115234375;-1.01727294921875;0.040763676166534424;-0.013819409534335136;0.027814587578177452
-0.0283660888671875;-0.063568115234375;-1.01727294921875;0.040763676166534424;-0.013819409534335136;0.027814587578177452
-0.0283660888671875;-0.063568115234375;-1.01727294921875;0.040763676166534424;-0.013819409534335136;0.027814587578177452
-0.029052734375;-0.0633697509765625;-1.013153076171875;0.0652807354927063;-0.0025214808993041515;0.025662485510110855
-0.029052734375;-0.0633697509765625;-1.013153076171875;0.0652807354927063;-0.0025214808993041515;0.025662485510110855
-0.029052734375;-0.0633697509765625;-1.013153076171875;0.0652807354927063;-0.0025214808993041515;0.025662485510110855
-0.029052734375;-0.0633697509765625;-1.013153076171875;0.0652807354927063;-0.0025214808993041515;0.025662485510110855
-0.029052734375;-0.0633697509765625;-1.013153076171875;0.0652807354927063;-0.0025214808993041515;0.025662485510110855
-0.0286865234375;-0.0648193359375;-1.012176513671875;0.07029706239700317;0.01173575222492218;0.020020846277475357
-0.0286865234375;-0.0648193359375;-1.012176513671875;0.07029706239700317;0.01173575222492218;0.020020846277475357
-0.0286865234375;-0.0648193359375;-1.012176513671875;0.07029706239700317;0.01173575222492218;0.020020846277475357
-0.0286865234375;-0.0648193359375;-1.012176513671875;0.07029706239700317;0.01173575222492218;0.020020846277475357
-0.0286865234375;-0.0648193359375;-1.012176513671875;0.07029706239700317;0.01173575222492218;0.020020846277475357
-0.0259552001953125;-0.0663909912109375;-1.0120086669921875;0.07686734944581985;0.01798805594444275;0.015742743387818336
-0.0259552001953125;-0.0663909912109375;-1.0120086669921875;0.07686734944581985;0.01798805594444275;0.015742743387818336
-0.0259552001953125;-0.0663909912109375;-1.0120086669921875;0.07686734944581985;0.01798805594444275;0.015742743387818336
-0.0259552001953125;-0.0663909912109375;-1.0120086669921875;0.07686734944581985;0.01798805594444275;0.015742743387818336
-0.0259552001953125;-0.0663909912109375;-1.0120086669921875;0.07686734944581985;0.01798805594444275;0.015742743387818336
-0.0234375;-0.06939697265625;-1.013153076171875;0.07236500829458237;0.022544989362359047;0.007619037292897701
-0.0234375;-0.06939697265625;-1.013153076171875;0.07236500829458237;0.022544989362359047;0.007619037292897701
-0.0234375;-0.06939697265625;-1.013153076171875;0.07236500829458237;0.022544989362359047;0.007619037292897701
-0.0234375;-0.06939697265625;-1.013153076171875;0.07236500829458237;0.022544989362359047;0.007619037292897701
-0.0234375;-0.06939697265625;-1.013153076171875;0.07236500829458237;0.022544989362359047;0.007619037292897701
-0.0213623046875;-0.073944091796875;-1.013702392578125;0.06353503465652466;0.01871296763420105;0.004001133143901825
-0.0213623046875;-0.073944091796875;-1.013702392578125;0.06353503465652466;0.01871296763420105;0.004001133143901825
-0.0213623046875;-0.073944091796875;-1.013702392578125;0.06353503465652466;0.01871296763420105;0.004001133143901825
-0.0213623046875;-0.073944091796875;-1.013702392578125;0.06353503465652466;0.01871296763420105;0.004001133143901825
-0.0213623046875;-0.073944091796875;-1.013702392578125;0.06353503465652466;0.01871296763420105;0.004001133143901825
-0.0182342529296875;-0.0780487060546875;-1.0111846923828125;0.049735862761735916;0.02129303850233555;0.004482632502913475
-0.0182342529296875;-0.0780487060546875;-1.0111846923828125;0.049735862761735916;0.02129303850233555;0.004482632502913475
-0.0182342529296875;-0.0780487060546875;-1.0111846923828125;0.049735862761735916;0.02129303850233555;0.004482632502913475
-0.0182342529296875;-0.0780487060546875;-1.0111846923828125;0.049735862761735916;0.02129303850233555;0.004482632502913475
-0.0182342529296875;-0.0780487060546875;-1.0111846923828125;0.049735862761735916;0.02129303850233555;0.004482632502913475
-0.017578125;-0.0828399658203125;-1.0070037841796875;0.029887590557336807;0.024387098848819733;0.0019030949333682656
-0.017578125;-0.0828399658203125;-1.0070037841796875;0.029887590557336807;0.024387098848819733;0.0019030949333682656
-0.017578125;-0.0828399658203125;-1.0070037841796875;0.029887590557336807;0.024387098848819733;0.0019030949333682656
-0.017578125;-0.0828399658203125;-1.0070037841796875;0.029887590557336807;0.024387098848819733;0.0019030949333682656
-0.017578125;-0.0828399658203125;-1.0070037841796875;0.029887590557336807;0.024387098848819733;0.0019030949333682656
-0.0189056396484375;-0.0861358642578125;-1.00469970703125;0.0091130705550313;0.018492724746465683;-0.00040266994619742036
-0.0189056396484375;-0.0861358642578125;-1.00469970703125;0.0091130705550313;0.018492724746465683;-0.00040266994619742036
-0.0189056396484375;-0.0861358642578125;-1.00469970703125;0.0091130705550313;0.018492724746465683;-0.00040266994619742036
-0.0189056396484375;-0.0861358642578125;-1.00469970703125;0.0091130705550313;0.018492724746465683;-0.00040266994619742036
-0.0189056396484375;-0.0861358642578125;-1.00469970703125;0.0091130705550313;0.018492724746465683;-0.00040266994619742036
-0.0172882080078125;-0.088470458984375;-1.0037994384765625;-0.00812130980193615;0.01677844673395157;-0.0012540825409814715
-0.0172882080078125;-0.088470458984375;-1.0037994384765625;-0.00812130980193615;0.01677844673395157;-0.0012540825409814715
-0.0172882080078125;-0.088470458984375;-1.0037994384765625;-0.00812130980193615;0.01677844673395157;-0.0012540825409814715
-0.0172882080078125;-0.088470458984375;-1.0037994384765625;-0.00812130980193615;0.01677844673395157;-0.0012540825409814715
-0.0172882080078125;-0.088470458984375;-1.0037994384765625;-0.00812130980193615;0.01677844673395157;-0.0012540825409814715
-0.0166015625;-0.0900115966796875;-1.0012664794921875;-0.027884362265467644;0.011817244812846184;-0.0008711199625395238
-0.0166015625;-0.0900115966796875;-1.0012664794921875;-0.027884362265467644;0.011817244812846184;-0.0008711199625395238
-0.0166015625;-0.0900115966796875;-1.0012664794921875;-0.027884362265467644;0.011817244812846184;-0.0008711199625395238
-0.0166015625;-0.0900115966796875;-1.0012664794921875;-0.027884362265467644;0.011817244812846184;-0.0008711199625395238
-0.0166015625;-0.0900115966796875;-1.0012664794921875;-0.027884362265467644;0.011817244812846184;-0.0008711199625395238
-0.0171356201171875;-0.09185791015625;-0.99981689453125;-0.04301777482032776;0.004471980035305023;0.002737196860834956
-0.0171356201171875;-0.09185791015625;-0.99981689453125;-0.04301777482032776;0.004471980035305023;0.002737196860834956
-0.0171356201171875;-0.09185791015625;-0.99981689453125;-0.04301777482032776;0.004471980035305023;0.002737196860834956
-0.0171356201171875;-0.09185791015625;-0.99981689453125;-0.04301777482032776;0.004471980035305023;0.002737196860834956
-0.0171356201171875;-0.09185791015625;-0.99981689453125;-0.04301777482032776;0.004471980035305023;0.002737196860834956
-0.0173187255859375;-0.092529296875;-1.00091552734375;-0.05859806388616562;-0.003976631909608841;0.0027832696214318275
-0.0173187255859375;-0.092529296875;-1.00091552734375;-0.05859806388616562;-0.003976631909608841;0.0027832696214318275
-0.0173187255859375;-0.092529296875;-1.00091552734375;-0.05859806388616562;-0.003976631909608841;0.0027832696214318275
-0.0173187255859375;-0.092529296875;-1.00091552734375;-0.05859806388616562;-0.003976631909608841;0.0027832696214318275
-0.0173187255859375;-0.092529296875;-1.00091552734375;-0.05859806388616562;-0.003976631909608841;0.0027832696214318275
-0.0162506103515625;-0.0903778076171875;-1.0027923583984375;-0.06527727097272873;-0.00384453940205276;0.008774316869676113
-0.0162506103515625;-0.0903778076171875;-1.0027923583984375;-0.06527727097272873;-0.00384453940205276;0.008774316869676113
-0.0162506103515625;-0.0903778076171875;-1.0027923583984375;-0.06527727097272873;-0.00384453940205276;0.008774316869676113
-0.0162506103515625;-0.0903778076171875;-1.0027923583984375;-0.06527727097272873;-0.00384453940205276;0.008774316869676113
-0.0162506103515625;-0.0903778076171875;-1.0027923583984375;-0.06527727097272873;-0.00384453940205276;0.008774316869676113
-0.0166015625;-0.0877532958984375;-1.005218505859375;-0.06577102094888687;-0.0011563445441424847;0.006843524985015392
-0.0166015625;-0.0877532958984375;-1.005218505859375;-0.06577102094888687;-0.0011563445441424847;0.006843524985015392
-0.0166015625;-0.0877532958984375;-1.005218505859375;-0.06577102094888687;-0.0011563445441424847;0.006843524985015392
-0.0166015625;-0.0877532958984375;-1.005218505859375;-0.06577102094888687;-0.0011563445441424847;0.006843524985015392
-0.0166015625;-0.0877532958984375;-1.005218505859375;-0.06577102094888687;-0.0011563445441424847;0.006843524985015392
-0.018463134765625;-0.084320068359375;-1.0092620849609375;-0.059538427740335464;-0.000892691605258733;0.00481259822845459
-0.018463134765625;-0.084320068359375;-1.0092620849609375;-0.059538427740335464;-0.000892691605258733;0.00481259822845459
-0.018463134765625;-0.084320068359375;-1.0092620849609375;-0.059538427740335464;-0.000892691605258733;0.00481259822845459
-0.018463134765625;-0.084320068359375;-1.0092620849609375;-0.059538427740335464;-0.000892691605258733;0.00481259822845459
-0.018463134765625;-0.084320068359375;-1.0092620849609375;-0.059538427740335464;-0.000892691605258733;0.00481259822845459
-0.019744873046875;-0.0807342529296875;-1.015411376953125;-0.04704207554459572;-0.009118929505348206;0.008566323667764664
-0.019744873046875;-0.0807342529296875;-1.015411376953125;-0.04704207554459572;-0.009118929505348206;0.008566323667764664
-0.019744873046875;-0.0807342529296875;-1.015411376953125;-0.04704207554459572;-0.009118929505348206;0.008566323667764664
-0.019744873046875;-0.0807342529296875;-1.015411376953125;-0.04704207554459572;-0.009118929505348206;0.008566323667764664
-0.019744873046875;-0.0807342529296875;-1.015411376953125;-0.04704207554459572;-0.009118929505348206;0.008566323667764664
-0.0203857421875;-0.0766448974609375;-1.017486572265625;-0.035420842468738556;-0.008497348055243492;0.009491239674389362
-0.0203857421875;-0.0766448974609375;-1.017486572265625;-0.035420842468738556;-0.008497348055243492;0.009491239674389362
-0.0203857421875;-0.0766448974609375;-1.017486572265625;-0.035420842468738556;-0.008497348055243492;0.009491239674389362
-0.0203857421875;-0.0766448974609375;-1.017486572265625;-0.035420842468738556;-0.008497348055243492;0.009491239674389362
-0.0203857421875;-0.0766448974609375;-1.017486572265625;-0.035420842468738556;-0.008497348055243492;0.009491239674389362
-0.022003173828125;-0.0751800537109375;-1.0186004638671875;-0.024877918884158134;-0.006688795518130064;0.009830792434513569
-0.022003173828125;-0.0751800537109375;-1.0186004638671875;-0.024877918884158134;-0.006688795518130064;0.009830792434513569
-0.022003173828125;-0.0751800537109375;-1.0186004638671875;-0.024877918884158134;-0.006688795518130064;0.009830792434513569
-0.022003173828125;-0.0751800537109375;-1.0186004638671875;-0.024877918884158134;-0.006688795518130064;0.009830792434513569
-0.022003173828125;-0.0751800537109375;-1.0186004638671875;-0.024877918884158134;-0.006688795518130064;0.009830792434513569
-0.02227783203125;-0.075042724609375;-1.0186614990234375;-0.018787004053592682;-0.0010455570882186294;0.011804461479187012
-0.02227783203125;-0.075042724609375;-1.0186614990234375;-0.018787004053592682;-0.0010455570882186294;0.011804461479187012
-0.02227783203125;-0.075042724609375;-1.0186614990234375;-0.018787004053592682;-0.0010455570882186294;0.011804461479187012
-0.02227783203125;-0.075042724609375;-1.0186614990234375;-0.018787004053592682;-0.0010455570882186294;0.011804461479187012
-0.02227783203125;-0.075042724609375;-1.0186614990234375;-0.018787004053592682;-0.0010455570882186294;0.011804461479187012
-0.02288818359375;-0.0725555419921875;-1.015716552734375;-0.017241837456822395;0.004341751337051392;0.01503913663327694
-0.02288818359375;-0.0725555419921875;-1.015716552734375;-0.017241837456822395;0.004341751337051392;0.01503913663327694
-0.02288818359375;-0.0725555419921875;-1.015716552734375;-0.017241837456822395;0.004341751337051392;0.01503913663327694
-0.02288818359375;-0.0725555419921875;-1.015716552734375;-0.017241837456822395;0.004341751337051392;0.01503913663327694
-0.02288818359375;-0.0725555419921875;-1.015716552734375;-0.017241837456822395;0.004341751337051392;0.01503913663327694
-0.021697998046875;-0.07171630859375;-1.0134735107421875;-0.01509985700249672;0.0024642229545861483;0.0113413380458951
-0.021697998046875;-0.07171630859375;-1.0134735107421875;-0.01509985700249672;0.0024642229545861483;0.0113413380458951
-0.021697998046875;-0.07171630859375;-1.0134735107421875;-0.01509985700249672;0.0024642229545861483;0.0113413380458951
-0.021697998046875;-0.07171630859375;-1.0134735107421875;-0.01509985700249672;0.0024642229545861483;0.0113413380458951
-0.021697998046875;-0.07171630859375;-1.0134735107421875;-0.01509985700249672;0.0024642229545861483;0.0113413380458951
-0.0211181640625;-0.07073974609375;-1.013153076171875;-0.022279739379882812;-0.006234726402908564;0.009883789345622063
-0.0211181640625;-0.07073974609375;-1.013153076171875;-0.022279739379882812;-0.006234726402908564;0.009883789345622063
-0.0211181640625;-0.07073974609375;-1.013153076171875;-0.022279739379882812;-0.006234726402908564;0.009883789345622063
-0.0211181640625;-0.07073974609375;-1.013153076171875;-0.022279739379882812;-0.006234726402908564;0.009883789345622063
-0.0211181640625;-0.07073974609375;-1.013153076171875;-0.022279739379882812;-0.006234726402908564;0.009883789345622063
-0.0203094482421875;-0.0720672607421875;-1.0101318359375;-0.028075575828552246;-0.0037587855476886034;0.00824754312634468
-0.0203094482421875;-0.0720672607421875;-1.0101318359375;-0.028075575828552246;-0.0037587855476886034;0.00824754312634468
-0.0203094482421875;-0.0720672607421875;-1.0101318359375;-0.028075575828552246;-0.0037587855476886034;0.00824754312634468
-0.0203094482421875;-0.0720672607421875;-1.0101318359375;-0.028075575828552246;-0.0037587855476886034;0.00824754312634468
-0.0203094482421875;-0.0720672607421875;-1.0101318359375;-0.028075575828552246;-0.0037587855476886034;0.00824754312634468
-0.01953125;-0.072509765625;-1.006683349609375;-0.04238287732005119;0.0024285365361720324;0.006077599711716175
-0.01953125;-0.072509765625;-1.006683349609375;-0.04238287732005119;0.0024285365361720324;0.006077599711716175
-0.01953125;-0.072509765625;-1.006683349609375;-0.04238287732005119;0.0024285365361720324;0.006077599711716175
-0.01953125;-0.072509765625;-1.006683349609375;-0.04238287732005119;0.0024285365361720324;0.006077599711716175
-0.01953125;-0.072509765625;-1.006683349609375;-0.04238287732005119;0.0024285365361720324;0.006077599711716175
-0.0202789306640625;-0.0737457275390625;-1.0065460205078125;-0.0444585457444191;0.014504640363156796;0.0030711572617292404
-0.0202789306640625;-0.0737457275390625;-1.0065460205078125;-0.0444585457444191;0.014504640363156796;0.0030711572617292404
-0.0202789306640625;-0.0737457275390625;-1.0065460205078125;-0.0444585457444191;0.014504640363156796;0.0030711572617292404
-0.0202789306640625;-0.0737457275390625;-1.0065460205078125;-0.0444585457444191;0.014504640363156796;0.0030711572617292404
-0.0202789306640625;-0.0737457275390625;-1.0065460205078125;-0.0444585457444191;0.014504640363156796;0.0030711572617292404
-0.01873779296875;-0.0728912353515625;-1.007965087890625;-0.039201997220516205;0.027097929269075394;0.001975266495719552
-0.01873779296875;-0.0728912353515625;-1.007965087890625;-0.039201997220516205;0.027097929269075394;0.001975266495719552
-0.01873779296875;-0.0728912353515625;-1.007965087890625;-0.039201997220516205;0.027097929269075394;0.001975266495719552
-0.01873779296875;-0.0728912353515625;-1.007965087890625;-0.039201997220516205;0.027097929269075394;0.001975266495719552
-0.01873779296875;-0.0728912353515625;-1.007965087890625;-0.039201997220516205;0.027097929269075394;0.001975266495719552
-0.0189056396484375;-0.0711822509765625;-1.00897216796875;-0.032761942595243454;0.022593991830945015;0.0014628743520006537
-0.0189056396484375;-0.0711822509765625;-1.00897216796875;-0.032761942595243454;0.022593991830945015;0.0014628743520006537
-0.0189056396484375;-0.0711822509765625;-1.00897216796875;-0.032761942595243454;0.022593991830945015;0.0014628743520006537
-0.0189056396484375;-0.0711822509765625;-1.00897216796875;-0.032761942595243454;0.022593991830945015;0.0014628743520006537
-0.0189056396484375;-0.0711822509765625;-1.00897216796875;-0.032761942595243454;0.022593991830945015;0.0014628743520006537
-0.0201416015625;-0.071533203125;-1.0110626220703125;-0.0220954492688179;0.014633803628385067;-0.000990695902146399
-0.0201416015625;-0.071533203125;-1.0110626220703125;-0.0220954492688179;0.014633803628385067;-0.000990695902146399
-0.0201416015625;-0.071533203125;-1.0110626220703125;-0.0220954492688179;0.014633803628385067;-0.000990695902146399
-0.0201416015625;-0.071533203125;-1.0110626220703125;-0.0220954492688179;0.014633803628385067;-0.000990695902146399
-0.0201416015625;-0.071533203125;-1.0110626220703125;-0.0220954492688179;0.014633803628385067;-0.000990695902146399
-0.019256591796875;-0.074127197265625;-1.011993408203125;-0.018869828432798386;0.008153000846505165;0.0016977651976048946
-0.019256591796875;-0.074127197265625;-1.011993408203125;-0.018869828432798386;0.008153000846505165;0.0016977651976048946
-0.019256591796875;-0.074127197265625;-1.011993408203125;-0.018869828432798386;0.008153000846505165;0.0016977651976048946
-0.019256591796875;-0.074127197265625;-1.011993408203125;-0.018869828432798386;0.008153000846505165;0.0016977651976048946
-0.019256591796875;-0.074127197265625;-1.011993408203125;-0.018869828432798386;0.008153000846505165;0.0016977651976048946
-0.02154541015625;-0.0767364501953125;-1.0103607177734375;-0.016682308167219162;0.001752093667164445;-0.0018362496048212051
-0.02154541015625;-0.0767364501953125;-1.0103607177734375;-0.016682308167219162;0.001752093667164445;-0.0018362496048212051
-0.02154541015625;-0.0767364501953125;-1.0103607177734375;-0.016682308167219162;0.001752093667164445;-0.0018362496048212051
-0.02154541015625;-0.0767364501953125;-1.0103607177734375;-0.016682308167219162;0.001752093667164445;-0.0018362496048212051
-0.02154541015625;-0.0767364501953125;-1.0103607177734375;-0.016682308167219162;0.001752093667164445;-0.0018362496048212051
-0.0238037109375;-0.07830810546875;-1.012542724609375;-0.01549507025629282;-0.002020007697865367;0.0005896238726563752
-0.0238037109375;-0.07830810546875;-1.012542724609375;-0.01549507025629282;-0.002020007697865367;0.0005896238726563752
-0.0238037109375;-0.07830810546875;-1.012542724609375;-0.01549507025629282;-0.002020007697865367;0.0005896238726563752
-0.0238037109375;-0.07830810546875;-1.012542724609375;-0.01549507025629282;-0.002020007697865367;0.0005896238726563752
-0.0238037109375;-0.07830810546875;-1.012542724609375;-0.01549507025629282;-0.002020007697865367;0.0005896238726563752
-0.020538330078125;-0.0805206298828125;-1.0132293701171875;-0.019473033025860786;0.0017797905020415783;0.0029385320376604795
-0.020538330078125;-0.0805206298828125;-1.0132293701171875;-0.019473033025860786;0.0017797905020415783;0.0029385320376604795
-0.020538330078125;-0.0805206298828125;-1.0132293701171875;-0.019473033025860786;0.0017797905020415783;0.0029385320376604795
-0.020538330078125;-0.0805206298828125;-1.0132293701171875;-0.019473033025860786;0.0017797905020415783;0.0029385320376604795
-0.020538330078125;-0.0805206298828125;-1.0132293701171875;-0.019473033025860786;0.0017797905020415783;0.0029385320376604795
-0.016845703125;-0.0841827392578125;-1.0053558349609375;-0.03021169826388359;0.023063773289322853;0.006162820849567652
-0.016845703125;-0.0841827392578125;-1.0053558349609375;-0.03021169826388359;0.023063773289322853;0.006162820849567652
-0.016845703125;-0.0841827392578125;-1.0053558349609375;-0.03021169826388359;0.023063773289322853;0.006162820849567652
-0.016845703125;-0.0841827392578125;-1.0053558349609375;-0.03021169826388359;0.023063773289322853;0.006162820849567652
-0.016845703125;-0.0841827392578125;-1.0053558349609375;-0.03021169826388359;0.023063773289322853;0.006162820849567652
-0.01727294921875;-0.084197998046875;-0.9892578125;-0.056524261832237244;0.048218660056591034;0.008475244045257568
-0.01727294921875;-0.084197998046875;-0.9892578125;-0.056524261832237244;0.048218660056591034;0.008475244045257568
-0.01727294921875;-0.084197998046875;-0.9892578125;-0.056524261832237244;0.048218660056591034;0.008475244045257568
-0.01727294921875;-0.084197998046875;-0.9892578125;-0.056524261832237244;0.048218660056591034;0.008475244045257568
-0.01727294921875;-0.084197998046875;-0.9892578125;-0.056524261832237244;0.048218660056591034;0.008475244045257568
-0.02069091796875;-0.082916259765625;-0.9908905029296875;-0.07060226052999496;0.04259992390871048;0.007048321887850761
-0.02069091796875;-0.082916259765625;-0.9908905029296875;-0.07060226052999496;0.04259992390871048;0.007048321887850761
-0.02069091796875;-0.082916259765625;-0.9908905029296875;-0.07060226052999496;0.04259992390871048;0.007048321887850761
-0.02069091796875;-0.082916259765625;-0.9908905029296875;-0.07060226052999496;0.04259992390871048;0.007048321887850761
-0.02069091796875;-0.082916259765625;-0.9908905029296875;-0.06722484529018402;-0.00019094864546786994;0.007215302437543869
-0.024383544921875;-0.0806884765625;-1.01556396484375;-0.06722484529018402;-0.00019094864546786994;0.007215302437543869
-0.024383544921875;-0.0806884765625;-1.01556396484375;-0.06722484529018402;-0.00019094864546786994;0.007215302437543869
-0.024383544921875;-0.0806884765625;-1.01556396484375;-0.06722484529018402;-0.00019094864546786994;0.007215302437543869
-0.024383544921875;-0.0806884765625;-1.01556396484375;-0.06722484529018402;-0.00019094864546786994;0.007215302437543869
-0.024383544921875;-0.0806884765625;-1.01556396484375;-0.05470612272620201;-0.03371002525091171;0.012367719784379005
-0.022064208984375;-0.0763092041015625;-1.0318145751953125;-0.05470612272620201;-0.03371002525091171;0.012367719784379005
-0.022064208984375;-0.0763092041015625;-1.0318145751953125;-0.05470612272620201;-0.03371002525091171;0.012367719784379005
-0.022064208984375;-0.0763092041015625;-1.0318145751953125;-0.05470612272620201;-0.03371002525091171;0.012367719784379005
-0.022064208984375;-0.0763092041015625;-1.0318145751953125;-0.05470612272620201;-0.03371002525091171;0.012367719784379005
-0.0204620361328125;-0.0710601806640625;-1.0174102783203125;-0.04913958162069321;-0.043421775102615356;0.011178618296980858
-0.0204620361328125;-0.0710601806640625;-1.0174102783203125;-0.04913958162069321;-0.043421775102615356;0.011178618296980858
-0.0204620361328125;-0.0710601806640625;-1.0174102783203125;-0.04913958162069321;-0.043421775102615356;0.011178618296980858
-0.0204620361328125;-0.0710601806640625;-1.0174102783203125;-0.04913958162069321;-0.043421775102615356;0.011178618296980858
-0.0204620361328125;-0.0710601806640625;-1.0174102783203125;-0.04913958162069321;-0.043421775102615356;0.011178618296980858
-0.0258941650390625;-0.069732666015625;-1.009307861328125;-0.035531628876924515;-0.029933398589491844;0.008200937882065773
-0.0258941650390625;-0.069732666015625;-1.009307861328125;-0.035531628876924515;-0.029933398589491844;0.008200937882065773
-0.0258941650390625;-0.069732666015625;-1.009307861328125;-0.035531628876924515;-0.029933398589491844;0.008200937882065773
-0.0258941650390625;-0.069732666015625;-1.009307861328125;-0.035531628876924515;-0.029933398589491844;0.008200937882065773
-0.0258941650390625;-0.069732666015625;-1.009307861328125;-0.035531628876924515;-0.029933398589491844;0.008200937882065773
-0.024322509765625;-0.06646728515625;-1.0131988525390625;-0.01763465441763401;-5.912217602599412e-05;0.008610532619059086
-0.024322509765625;-0.06646728515625;-1.0131988525390625;-0.01763465441763401;-5.912217602599412e-05;0.008610532619059086
-0.024322509765625;-0.06646728515625;-1.0131988525390625;-0.01763465441763401;-5.912217602599412e-05;0.008610532619059086
-0.024322509765625;-0.06646728515625;-1.0131988525390625;-0.01763465441763401;-5.912217602599412e-05;0.008610532619059086
-0.024322509765625;-0.06646728515625;-1.0131988525390625;-0.01763465441763401;-5.912217602599412e-05;0.008610532619059086
-0.0216064453125;-0.0635223388671875;-1.0117950439453125;-0.0046480149030685425;0.03381335735321045;0.009904828853905201
-0.0216064453125;-0.0635223388671875;-1.0117950439453125;-0.0046480149030685425;0.03381335735321045;0.009904828853905201
-0.0216064453125;-0.0635223388671875;-1.0117950439453125;-0.0046480149030685425;0.03381335735321045;0.009904828853905201
-0.0216064453125;-0.0635223388671875;-1.0117950439453125;-0.0046480149030685425;0.03381335735321045;0.009904828853905201
-0.0216064453125;-0.0635223388671875;-1.0117950439453125;-0.0046480149030685425;0.03381335735321045;0.009904828853905201
-0.022674560546875;-0.063751220703125;-1.0087432861328125;-0.00044554684427566826;0.047324106097221375;0.0065100970678031445
-0.022674560546875;-0.063751220703125;-1.0087432861328125;-0.00044554684427566826;0.047324106097221375;0.0065100970678031445
-0.022674560546875;-0.063751220703125;-1.0087432861328125;-0.00044554684427566826;0.047324106097221375;0.0065100970678031445
-0.022674560546875;-0.063751220703125;-1.0087432861328125;-0.00044554684427566826;0.047324106097221375;0.0065100970678031445
-0.022674560546875;-0.063751220703125;-1.0087432861328125;-0.00044554684427566826;0.047324106097221375;0.0065100970678031445
-0.0234832763671875;-0.0667572021484375;-1.010894775390625;0.006866694428026676;0.03387967124581337;0.0035422705113887787
-0.0234832763671875;-0.0667572021484375;-1.010894775390625;0.006866694428026676;0.03387967124581337;0.0035422705113887787
-0.0234832763671875;-0.0667572021484375;-1.010894775390625;0.006866694428026676;0.03387967124581337;0.0035422705113887787
-0.0234832763671875;-0.0667572021484375;-1.010894775390625;0.006866694428026676;0.03387967124581337;0.0035422705113887787
-0.0234832763671875;-0.0667572021484375;-1.010894775390625;0.006866694428026676;0.03387967124581337;0.0035422705113887787
-0.0215301513671875;-0.0685272216796875;-1.019439697265625;0.021017134189605713;0.012289157137274742;0.0023100259713828564
-0.0215301513671875;-0.0685272216796875;-1.019439697265625;0.021017134189605713;0.012289157137274742;0.0023100259713828564
-0.0215301513671875;-0.0685272216796875;-1.019439697265625;0.021017134189605713;0.012289157137274742;0.0023100259713828564
-0.0215301513671875;-0.0685272216796875;-1.019439697265625;0.021017134189605713;0.012289157137274742;0.0023100259713828564
-0.0215301513671875;-0.0685272216796875;-1.019439697265625;0.021017134189605713;0.012289157137274742;0.0023100259713828564
-0.019805908203125;-0.069610595703125;-1.0232696533203125;0.033664219081401825;0.0031880701426416636;0.001335575245320797
-0.019805908203125;-0.069610595703125;-1.0232696533203125;0.033664219081401825;0.0031880701426416636;0.001335575245320797
-0.019805908203125;-0.069610595703125;-1.0232696533203125;0.033664219081401825;0.0031880701426416636;0.001335575245320797
-0.019805908203125;-0.069610595703125;-1.0232696533203125;0.033664219081401825;0.0031880701426416636;0.001335575245320797
-0.019805908203125;-0.069610595703125;-1.0232696533203125;0.033664219081401825;0.0031880701426416636;0.001335575245320797
-0.020416259765625;-0.071258544921875;-1.0181427001953125;0.044075846672058105;0.00902625173330307;0.0020032296888530254
-0.020416259765625;-0.071258544921875;-1.0181427001953125;0.044075846672058105;0.00902625173330307;0.0020032296888530254
-0.020416259765625;-0.071258544921875;-1.0181427001953125;0.044075846672058105;0.00902625173330307;0.0020032296888530254
-0.020416259765625;-0.071258544921875;-1.0181427001953125;0.044075846672058105;0.00902625173330307;0.0020032296888530254
-0.020416259765625;-0.071258544921875;-1.0181427001953125;0.044075846672058105;0.00902625173330307;0.0020032296888530254
-0.021209716796875;-0.0742950439453125;-1.010986328125;0.04132426902651787;0.023364977911114693;0.00034434671397320926
-0.021209716796875;-0.0742950439453125;-1.010986328125;0.04132426902651787;0.023364977911114693;0.00034434671397320926
-0.021209716796875;-0.0742950439453125;-1.010986328125;0.04132426902651787;0.023364977911114693;0.00034434671397320926
-0.021209716796875;-0.0742950439453125;-1.010986328125;0.04132426902651787;0.023364977911114693;0.00034434671397320926
-0.021209716796875;-0.0742950439453125;-1.010986328125;0.04132426902651787;0.023364977911114693;0.00034434671397320926
-0.0204010009765625;-0.0755157470703125;-1.00738525390625;0.02918398380279541;0.027515513822436333;-0.0034751589410007
-0.0204010009765625;-0.0755157470703125;-1.00738525390625;0.02918398380279541;0.027515513822436333;-0.0034751589410007
-0.0204010009765625;-0.0755157470703125;-1.00738525390625;0.02918398380279541;0.027515513822436333;-0.0034751589410007
-0.0204010009765625;-0.0755157470703125;-1.00738525390625;0.02918398380279541;0.027515513822436333;-0.0034751589410007
-0.0204010009765625;-0.0755157470703125;-1.00738525390625;0.02918398380279541;0.027515513822436333;-0.0034751589410007
-0.017822265625;-0.0759429931640625;-1.0092315673828125;0.01531850267201662;0.024825988337397575;-0.006117547396570444
-0.017822265625;-0.0759429931640625;-1.0092315673828125;0.01531850267201662;0.024825988337397575;-0.006117547396570444
-0.017822265625;-0.0759429931640625;-1.0092315673828125;0.01531850267201662;0.024825988337397575;-0.006117547396570444
-0.017822265625;-0.0759429931640625;-1.0092315673828125;0.01531850267201662;0.024825988337397575;-0.006117547396570444
-0.017822265625;-0.0759429931640625;-1.0092315673828125;0.01531850267201662;0.024825988337397575;-0.006117547396570444
-0.014312744140625;-0.075103759765625;-1.010284423828125;0.004690092988312244;0.017352093011140823;-0.002177933230996132
-0.014312744140625;-0.075103759765625;-1.010284423828125;0.004690092988312244;0.017352093011140823;-0.002177933230996132
-0.014312744140625;-0.075103759765625;-1.010284423828125;0.004690092988312244;0.017352093011140823;-0.002177933230996132
-0.014312744140625;-0.075103759765625;-1.010284423828125;0.004690092988312244;0.017352093011140823;-0.002177933230996132
-0.014312744140625;-0.075103759765625;-1.010284423828125;0.004690092988312244;0.017352093011140823;-0.002177933230996132
-0.01171875;-0.07452392578125;-1.0078582763671875;-0.008333297446370125;0.014829279854893684;-0.004637362435460091
-0.01171875;-0.07452392578125;-1.0078582763671875;-0.008333297446370125;0.014829279854893684;-0.004637362435460091
-0.01171875;-0.07452392578125;-1.0078582763671875;-0.008333297446370125;0.014829279854893684;-0.004637362435460091
-0.01171875;-0.07452392578125;-1.0078582763671875;-0.008333297446370125;0.014829279854893684;-0.004637362435460091
-0.01171875;-0.07452392578125;-1.0078582763671875;-0.008333297446370125;0.014829279854893684;-0.004637362435460091
-0.010467529296875;-0.0743255615234375;-1.004302978515625;-0.018612300977110863;0.011959724128246307;-0.008040882647037506
-0.010467529296875;-0.0743255615234375;-1.004302978515625;-0.018612300977110863;0.011959724128246307;-0.008040882647037506
-0.010467529296875;-0.0743255615234375;-1.004302978515625;-0.018612300977110863;0.011959724128246307;-0.008040882647037506
-0.010467529296875;-0.0743255615234375;-1.004302978515625;-0.018612300977110863;0.011959724128246307;-0.008040882647037506
-0.010467529296875;-0.0743255615234375;-1.004302978515625;-0.018612300977110863;0.011959724128246307;-0.008040882647037506
-0.0099639892578125;-0.0742034912109375;-1.003082275390625;-0.0297874566167593;0.010250240564346313;-0.006856574676930904
-0.0099639892578125;-0.0742034912109375;-1.003082275390625;-0.0297874566167593;0.010250240564346313;-0.006856574676930904
-0.0099639892578125;-0.0742034912109375;-1.003082275390625;-0.0297874566167593;0.010250240564346313;-0.006856574676930904
-0.0099639892578125;-0.0742034912109375;-1.003082275390625;-0.0297874566167593;0.010250240564346313;-0.006856574676930904
-0.0099639892578125;-0.0742034912109375;-1.003082275390625;-0.0297874566167593;0.010250240564346313;-0.006856574676930904
-0.0097198486328125;-0.07293701171875;-1.004486083984375;-0.026608707383275032;0.007963384501636028;-0.0065050371922552586
-0.0097198486328125;-0.07293701171875;-1.004486083984375;-0.026608707383275032;0.007963384501636028;-0.0065050371922552586
-0.0097198486328125;-0.07293701171875;-1.004486083984375;-0.026608707383275032;0.007963384501636028;-0.0065050371922552586
-0.0097198486328125;-0.07293701171875;-1.004486083984375;-0.026608707383275032;0.007963384501636028;-0.0065050371922552586
-0.0097198486328125;-0.07293701171875;-1.004486083984375;-0.026608707383275032;0.007963384501636028;-0.0065050371922552586
-0.0104522705078125;-0.0710906982421875;-1.0078125;-0.02214178815484047;-0.0023933828342705965;-0.004727643448859453
-0.0104522705078125;-0.0710906982421875;-1.0078125;-0.02214178815484047;-0.0023933828342705965;-0.004727643448859453
-0.0104522705078125;-0.0710906982421875;-1.0078125;-0.02214178815484047;-0.0023933828342705965;-0.004727643448859453
-0.0104522705078125;-0.0710906982421875;-1.0078125;-0.02214178815484047;-0.0023933828342705965;-0.004727643448859453
-0.0104522705078125;-0.0710906982421875;-1.0078125;-0.02214178815484047;-0.0023933828342705965;-0.004727643448859453
-0.0132904052734375;-0.06964111328125;-1.0106353759765625;-0.006261890754103661;-0.01176105160266161;-0.004607801325619221
-0.0132904052734375;-0.06964111328125;-1.0106353759765625;-0.006261890754103661;-0.01176105160266161;-0.004607801325619221
-0.0132904052734375;-0.06964111328125;-1.0106353759765625;-0.006261890754103661;-0.01176105160266161;-0.004607801325619221
-0.0132904052734375;-0.06964111328125;-1.0106353759765625;-0.006261890754103661;-0.01176105160266161;-0.004607801325619221
-0.0132904052734375;-0.06964111328125;-1.0106353759765625;-0.006261890754103661;-0.01176105160266161;-0.004607801325619221
-0.0165252685546875;-0.0702362060546875;-1.013153076171875;0.009310944005846977;-0.01900911144912243;0.0032115059439092875
-0.0165252685546875;-0.0702362060546875;-1.013153076171875;0.009310944005846977;-0.01900911144912243;0.0032115059439092875
-0.0165252685546875;-0.0702362060546875;-1.013153076171875;0.009310944005846977;-0.01900911144912243;0.0032115059439092875
-0.0165252685546875;-0.0702362060546875;-1.013153076171875;0.009310944005846977;-0.01900911144912243;0.0032115059439092875
-0.0165252685546875;-0.0702362060546875;-1.013153076171875;0.009310944005846977;-0.01900911144912243;0.0032115059439092875
-0.018646240234375;-0.06951904296875;-1.0138702392578125;0.01846769079566002;-0.01347506232559681;0.0044203149154782295
-0.018646240234375;-0.06951904296875;-1.0138702392578125;0.01846769079566002;-0.01347506232559681;0.0044203149154782295
-0.018646240234375;-0.06951904296875;-1.0138702392578125;0.01846769079566002;-0.01347506232559681;0.0044203149154782295
-0.018646240234375;-0.06951904296875;-1.0138702392578125;0.01846769079566002;-0.01347506232559681;0.0044203149154782295
-0.018646240234375;-0.06951904296875;-1.0138702392578125;0.01846769079566002;-0.01347506232559681;0.0044203149154782295
-0.01934814453125;-0.0700836181640625;-1.0121917724609375;0.02002537250518799;-0.005983323790132999;0.0039113848470151424
-0.01934814453125;-0.0700836181640625;-1.0121917724609375;0.02002537250518799;-0.005983323790132999;0.0039113848470151424
-0.01934814453125;-0.0700836181640625;-1.0121917724609375;0.02002537250518799;-0.005983323790132999;0.0039113848470151424
-0.01934814453125;-0.0700836181640625;-1.0121917724609375;0.02002537250518799;-0.005983323790132999;0.0039113848470151424
-0.01934814453125;-0.0700836181640625;-1.0121917724609375;0.02002537250518799;-0.005983323790132999;0.0039113848470151424
-0.019012451171875;-0.0706939697265625;-1.010009765625;0.01914386637508869;0.0014772554859519005;0.006310892757028341
-0.019012451171875;-0.0706939697265625;-1.010009765625;0.01914386637508869;0.0014772554859519005;0.006310892757028341
-0.019012451171875;-0.0706939697265625;-1.010009765625;0.01914386637508869;0.0014772554859519005;0.006310892757028341
-0.019012451171875;-0.0706939697265625;-1.010009765625;0.01914386637508869;0.0014772554859519005;0.006310892757028341
-0.019012451171875;-0.0706939697265625;-1.010009765625;0.01914386637508869;0.0014772554859519005;0.006310892757028341
-0.0170135498046875;-0.0698699951171875;-1.0135650634765625;0.01245400682091713;0.0017867147689685225;0.005754558369517326
-0.0170135498046875;-0.0698699951171875;-1.0135650634765625;0.01245400682091713;0.0017867147689685225;0.005754558369517326
-0.0170135498046875;-0.0698699951171875;-1.0135650634765625;0.01245400682091713;0.0017867147689685225;0.005754558369517326
-0.0170135498046875;-0.0698699951171875;-1.0135650634765625;0.01245400682091713;0.0017867147689685225;0.005754558369517326
-0.0170135498046875;-0.0698699951171875;-1.0135650634765625;0.01245400682091713;0.0017867147689685225;0.005754558369517326
-0.015869140625;-0.0700836181640625;-1.01812744140625;0.013528325594961643;-0.0018996327416971326;0.001981924520805478
-0.015869140625;-0.0700836181640625;-1.01812744140625;0.013528325594961643;-0.0018996327416971326;0.001981924520805478
-0.015869140625;-0.0700836181640625;-1.01812744140625;0.013528325594961643;-0.0018996327416971326;0.001981924520805478
-0.015869140625;-0.0700836181640625;-1.01812744140625;0.013528325594961643;-0.0018996327416971326;0.001981924520805478
-0.015869140625;-0.0700836181640625;-1.01812744140625;0.013528325594961643;-0.0018996327416971326;0.001981924520805478
-0.0159912109375;-0.0705413818359375;-1.020660400390625;0.01612650603055954;-0.004354268312454224;0.004863198380917311
-0.0159912109375;-0.0705413818359375;-1.020660400390625;0.01612650603055954;-0.004354268312454224;0.004863198380917311
-0.0159912109375;-0.0705413818359375;-1.020660400390625;0.01612650603055954;-0.004354268312454224;0.004863198380917311
-0.0159912109375;-0.0705413818359375;-1.020660400390625;0.01612650603055954;-0.004354268312454224;0.004863198380917311
-0.016082763671875;-0.07220458984375;-1.0164642333984375;0.008286159485578537;-0.007053914945572615;0.00173717993311584
-0.016082763671875;-0.07220458984375;-1.0164642333984375;0.008286159485578537;-0.007053914945572615;0.00173717993311584
-0.016082763671875;-0.07220458984375;-1.0164642333984375;0.008286159485578537;-0.007053914945572615;0.00173717993311584
-0.016082763671875;-0.07220458984375;-1.0164642333984375;0.008286159485578537;-0.007053914945572615;0.00173717993311584
-0.016082763671875;-0.07220458984375;-1.0164642333984375;0.008286159485578537;-0.007053914945572615;0.00173717993311584
-0.0177764892578125;-0.073974609375;-1.0122222900390625;-0.0035380094777792692;-0.004602475091814995;-0.00036378781078383327
-0.0177764892578125;-0.073974609375;-1.0122222900390625;-0.0035380094777792692;-0.004602475091814995;-0.00036378781078383327
-0.0177764892578125;-0.073974609375;-1.0122222900390625;-0.0035380094777792692;-0.004602475091814995;-0.00036378781078383327
-0.0177764892578125;-0.073974609375;-1.0122222900390625;-0.0035380094777792692;-0.004602475091814995;-0.00036378781078383327
-0.0177764892578125;-0.073974609375;-1.0122222900390625;-0.0035380094777792692;-0.004602475091814995;-0.00036378781078383327
-0.01910400390625;-0.0754852294921875;-1.011444091796875;-0.017342237755656242;-0.007346063386648893;-0.002508165081962943
-0.01910400390625;-0.0754852294921875;-1.011444091796875;-0.017342237755656242;-0.007346063386648893;-0.002508165081962943
-0.01910400390625;-0.0754852294921875;-1.011444091796875;-0.017342237755656242;-0.007346063386648893;-0.002508165081962943
-0.01910400390625;-0.0754852294921875;-1.011444091796875;-0.017342237755656242;-0.007346063386648893;-0.002508165081962943
-0.01910400390625;-0.0754852294921875;-1.011444091796875;-0.017342237755656242;-0.007346063386648893;-0.002508165081962943
-0.0173187255859375;-0.075042724609375;-1.0130462646484375;-0.027998611330986023;-0.01110511552542448;-0.0008948221220634878
-0.0173187255859375;-0.075042724609375;-1.0130462646484375;-0.027998611330986023;-0.01110511552542448;-0.0008948221220634878
-0.0173187255859375;-0.075042724609375;-1.0130462646484375;-0.027998611330986023;-0.01110511552542448;-0.0008948221220634878
-0.0173187255859375;-0.075042724609375;-1.0130462646484375;-0.027998611330986023;-0.01110511552542448;-0.0008948221220634878
-0.0173187255859375;-0.075042724609375;-1.0130462646484375;-0.027998611330986023;-0.01110511552542448;-0.0008948221220634878
-0.0166015625;-0.074432373046875;-1.01275634765625;-0.02497885376214981;-0.013215137645602226;0.0004593952908180654
-0.0166015625;-0.074432373046875;-1.01275634765625;-0.02497885376214981;-0.013215137645602226;0.0004593952908180654
-0.0166015625;-0.074432373046875;-1.01275634765625;-0.02497885376214981;-0.013215137645602226;0.0004593952908180654
-0.0166015625;-0.074432373046875;-1.01275634765625;-0.02497885376214981;-0.013215137645602226;0.0004593952908180654
-0.0166015625;-0.074432373046875;-1.01275634765625;-0.02497885376214981;-0.013215137645602226;0.0004593952908180654
-0.0182952880859375;-0.0756378173828125;-1.0103607177734375;-0.024022512137889862;-0.01077035628259182;0.0011672634864225984
-0.0182952880859375;-0.0756378173828125;-1.0103607177734375;-0.024022512137889862;-0.01077035628259182;0.0011672634864225984
-0.0182952880859375;-0.0756378173828125;-1.0103607177734375;-0.024022512137889862;-0.01077035628259182;0.0011672634864225984
-0.0182952880859375;-0.0756378173828125;-1.0103607177734375;-0.024022512137889862;-0.01077035628259182;0.0011672634864225984
-0.0182952880859375;-0.0756378173828125;-1.0103607177734375;-0.024022512137889862;-0.01077035628259182;0.0011672634864225984
-0.0178375244140625;-0.0748443603515625;-1.00970458984375;-0.015487346798181534;-0.007937551476061344;7.004113285802305e-05
-0.0178375244140625;-0.0748443603515625;-1.00970458984375;-0.015487346798181534;-0.007937551476061344;7.004113285802305e-05
-0.0178375244140625;-0.0748443603515625;-1.00970458984375;-0.015487346798181534;-0.007937551476061344;7.004113285802305e-05
-0.0178375244140625;-0.0748443603515625;-1.00970458984375;-0.015487346798181534;-0.007937551476061344;7.004113285802305e-05
-0.0178375244140625;-0.0748443603515625;-1.00970458984375;-0.015487346798181534;-0.007937551476061344;7.004113285802305e-05
-0.0181121826171875;-0.07537841796875;-1.0104217529296875;-0.0011134676169604063;-0.006485329940915108;0.0005400890368036926
-0.0181121826171875;-0.07537841796875;-1.0104217529296875;-0.0011134676169604063;-0.006485329940915108;0.0005400890368036926
-0.0181121826171875;-0.07537841796875;-1.0104217529296875;-0.0011134676169604063;-0.006485329940915108;0.0005400890368036926
-0.0181121826171875;-0.07537841796875;-1.0104217529296875;-0.0011134676169604063;-0.006485329940915108;0.0005400890368036926
-0.0181121826171875;-0.07537841796875;-1.0104217529296875;-0.0011134676169604063;-0.006485329940915108;0.0005400890368036926
-0.0184783935546875;-0.0765838623046875;-1.0132904052734375;0.005972937680780888;-0.013492905534803867;0.00025033715064637363
-0.0184783935546875;-0.0765838623046875;-1.0132904052734375;0.005972937680780888;-0.013492905534803867;0.00025033715064637363
-0.0184783935546875;-0.0765838623046875;-1.0132904052734375;0.005972937680780888;-0.013492905534803867;0.00025033715064637363
-0.0184783935546875;-0.0765838623046875;-1.0132904052734375;0.005972937680780888;-0.013492905534803867;0.00025033715064637363
-0.0184783935546875;-0.0765838623046875;-1.0132904052734375;0.005972937680780888;-0.013492905534803867;0.00025033715064637363
-0.01812744140625;-0.076202392578125;-1.0106964111328125;0.003151052165776491;-0.009826531633734703;-0.001430916483514011
-0.01812744140625;-0.076202392578125;-1.0106964111328125;0.003151052165776491;-0.009826531633734703;-0.001430916483514011
-0.01812744140625;-0.076202392578125;-1.0106964111328125;0.003151052165776491;-0.009826531633734703;-0.001430916483514011
-0.01812744140625;-0.076202392578125;-1.0106964111328125;0.003151052165776491;-0.009826531633734703;-0.001430916483514011
-0.01812744140625;-0.076202392578125;-1.0106964111328125;0.003151052165776491;-0.009826531633734703;-0.001430916483514011
-0.01922607421875;-0.0745849609375;-1.005096435546875;-0.0020623519085347652;-0.009320797398686409;-0.0023190807551145554
-0.01922607421875;-0.0745849609375;-1.005096435546875;-0.0020623519085347652;-0.009320797398686409;-0.0023190807551145554
-0.01922607421875;-0.0745849609375;-1.005096435546875;-0.0020623519085347652;-0.009320797398686409;-0.0023190807551145554
-0.01922607421875;-0.0745849609375;-1.005096435546875;-0.0020623519085347652;-0.009320797398686409;-0.0023190807551145554
-0.01922607421875;-0.0745849609375;-1.005096435546875;-0.0020623519085347652;-0.009320797398686409;-0.0023190807551145554
-0.0218048095703125;-0.0747222900390625;-1.004425048828125;-0.007875233888626099;-0.001517469179816544;0.00034461304312571883
-0.0218048095703125;-0.0747222900390625;-1.004425048828125;-0.007875233888626099;-0.001517469179816544;0.00034461304312571883
-0.0218048095703125;-0.0747222900390625;-1.004425048828125;-0.007875233888626099;-0.001517469179816544;0.00034461304312571883
-0.0218048095703125;-0.0747222900390625;-1.004425048828125;-0.007875233888626099;-0.001517469179816544;0.00034461304312571883
-0.0218048095703125;-0.0747222900390625;-1.004425048828125;-0.007875233888626099;-0.001517469179816544;0.00034461304312571883
-0.0208740234375;-0.0740509033203125;-1.007171630859375;-0.010210826061666012;-0.007553523872047663;0.0012391688069328666
-0.0208740234375;-0.0740509033203125;-1.007171630859375;-0.010210826061666012;-0.007553523872047663;0.0012391688069328666
-0.0208740234375;-0.0740509033203125;-1.007171630859375;-0.010210826061666012;-0.007553523872047663;0.0012391688069328666
-0.0208740234375;-0.0740509033203125;-1.007171630859375;-0.010210826061666012;-0.007553523872047663;0.0012391688069328666
-0.0196533203125;-0.072784423828125;-1.0105133056640625;-0.005140433553606272;-0.013586116023361683;-0.0007938882918097079
-0.0196533203125;-0.072784423828125;-1.0105133056640625;-0.005140433553606272;-0.013586116023361683;-0.0007938882918097079
-0.0196533203125;-0.072784423828125;-1.0105133056640625;-0.005140433553606272;-0.013586116023361683;-0.0007938882918097079
-0.0196533203125;-0.072784423828125;-1.0105133056640625;-0.005140433553606272;-0.013586116023361683;-0.0007938882918097079
-0.0196533203125;-0.072784423828125;-1.0105133056640625;-0.005140433553606272;-0.013586116023361683;-0.0007938882918097079
-0.0196533203125;-0.072784423828125;-1.0105133056640625;0.0015488944482058287;-0.0148649662733078;0.0007254450465552509
-0.0200347900390625;-0.0724945068359375;-1.0130157470703125;0.0015488944482058287;-0.0148649662733078;0.0007254450465552509
-0.0200347900390625;-0.0724945068359375;-1.0130157470703125;0.0015488944482058287;-0.0148649662733078;0.0007254450465552509
-0.0200347900390625;-0.0724945068359375;-1.0130157470703125;0.0015488944482058287;-0.0148649662733078;0.0007254450465552509
-0.0200347900390625;-0.0724945068359375;-1.0130157470703125;0.0015488944482058287;-0.0148649662733078;0.0007254450465552509
-0.020050048828125;-0.0724029541015625;-1.01324462890625;0.01011015847325325;-0.016765929758548737;0.0012173309223726392
-0.020050048828125;-0.0724029541015625;-1.01324462890625;0.01011015847325325;-0.016765929758548737;0.0012173309223726392
-0.020050048828125;-0.0724029541015625;-1.01324462890625;0.01011015847325325;-0.016765929758548737;0.0012173309223726392
-0.020050048828125;-0.0724029541015625;-1.01324462890625;0.01011015847325325;-0.016765929758548737;0.0012173309223726392
-0.020050048828125;-0.0724029541015625;-1.01324462890625;0.01011015847325325;-0.016765929758548737;0.0012173309223726392
-0.020233154296875;-0.0721588134765625;-1.011444091796875;0.015987489372491837;-0.006566289812326431;0.0034269557800143957
-0.020233154296875;-0.0721588134765625;-1.011444091796875;0.015987489372491837;-0.006566289812326431;0.0034269557800143957
-0.020233154296875;-0.0721588134765625;-1.011444091796875;0.015987489372491837;-0.006566289812326431;0.0034269557800143957
-0.020233154296875;-0.0721588134765625;-1.011444091796875;0.015987489372491837;-0.006566289812326431;0.0034269557800143957
-0.020233154296875;-0.0721588134765625;-1.011444091796875;0.015987489372491837;-0.006566289812326431;0.0034269557800143957
-0.020233154296875;-0.0721588134765625;-1.011444091796875;0.014821023680269718;-0.002764627570286393;0.007710383739322424
-0.0194549560546875;-0.0718841552734375;-1.010711669921875;0.014821023680269718;-0.002764627570286393;0.007710383739322424
-0.0194549560546875;-0.0718841552734375;-1.010711669921875;0.014821023680269718;-0.002764627570286393;0.007710383739322424
-0.0194549560546875;-0.0718841552734375;-1.010711669921875;0.014821023680269718;-0.002764627570286393;0.007710383739322424
-0.0194549560546875;-0.0718841552734375;-1.010711669921875;0.014821023680269718;-0.002764627570286393;0.007710383739322424
-0.0188751220703125;-0.0703887939453125;-1.01171875;0.01477308664470911;0.002454102970659733;0.004808337427675724
-0.0188751220703125;-0.0703887939453125;-1.01171875;0.01477308664470911;0.002454102970659733;0.004808337427675724
-0.0188751220703125;-0.0703887939453125;-1.01171875;0.01477308664470911;0.002454102970659733;0.004808337427675724
-0.0188751220703125;-0.0703887939453125;-1.01171875;0.01477308664470911;0.002454102970659733;0.004808337427675724
-0.0188751220703125;-0.0703887939453125;-1.01171875;0.01477308664470911;0.002454102970659733;0.004808337427675724
-0.0177154541015625;-0.070709228515625;-1.0130157470703125;0.008387359790503979;-0.0011270497925579548;0.005563077051192522
-0.0177154541015625;-0.070709228515625;-1.0130157470703125;0.008387359790503979;-0.0011270497925579548;0.005563077051192522
-0.0177154541015625;-0.070709228515625;-1.0130157470703125;0.008387359790503979;-0.0011270497925579548;0.005563077051192522
-0.0177154541015625;-0.070709228515625;-1.0130157470703125;0.008387359790503979;-0.0011270497925579548;0.005563077051192522
-0.0177154541015625;-0.070709228515625;-1.0130157470703125;0.008387359790503979;-0.0011270497925579548;0.005563077051192522
-0.0158233642578125;-0.070404052734375;-1.01422119140625;0.0001877528557088226;0.0014556838432326913;0.004581169690936804
-0.0158233642578125;-0.070404052734375;-1.01422119140625;0.0001877528557088226;0.0014556838432326913;0.004581169690936804
-0.0158233642578125;-0.070404052734375;-1.01422119140625;0.0001877528557088226;0.0014556838432326913;0.004581169690936804
-0.0158233642578125;-0.070404052734375;-1.01422119140625;0.0001877528557088226;0.0014556838432326913;0.004581169690936804
-0.0158233642578125;-0.070404052734375;-1.01422119140625;0.0001877528557088226;0.0014556838432326913;0.004581169690936804
-0.0157012939453125;-0.071563720703125;-1.012054443359375;-0.007956726476550102;0.002439189236611128;0.0029459886718541384
-0.0157012939453125;-0.071563720703125;-1.012054443359375;-0.007956726476550102;0.002439189236611128;0.0029459886718541384
-0.0157012939453125;-0.071563720703125;-1.012054443359375;-0.007956726476550102;0.002439189236611128;0.0029459886718541384
-0.0157012939453125;-0.071563720703125;-1.012054443359375;-0.007956726476550102;0.002439189236611128;0.0029459886718541384
-0.0157012939453125;-0.071563720703125;-1.012054443359375;-0.007956726476550102;0.002439189236611128;0.0029459886718541384
-0.0157623291015625;-0.072235107421875;-1.01177978515625;-0.011707521975040436;0.0011374361347407103;-0.000529436394572258
-0.0157623291015625;-0.072235107421875;-1.01177978515625;-0.011707521975040436;0.0011374361347407103;-0.000529436394572258
-0.0157623291015625;-0.072235107421875;-1.01177978515625;-0.011707521975040436;0.0011374361347407103;-0.000529436394572258
-0.0157623291015625;-0.072235107421875;-1.01177978515625;-0.011707521975040436;0.0011374361347407103;-0.000529436394572258
-0.0157623291015625;-0.072235107421875;-1.01177978515625;-0.011707521975040436;0.0011374361347407103;-0.000529436394572258
-0.015289306640625;-0.0721588134765625;-1.0156402587890625;-0.010792460292577744;0.003314570290967822;-0.0006343649583868682
-0.015289306640625;-0.0721588134765625;-1.0156402587890625;-0.010792460292577744;0.003314570290967822;-0.0006343649583868682
-0.015289306640625;-0.0721588134765625;-1.0156402587890625;-0.010792460292577744;0.003314570290967822;-0.0006343649583868682
-0.015289306640625;-0.0721588134765625;-1.0156402587890625;-0.010792460292577744;0.003314570290967822;-0.0006343649583868682
-0.015289306640625;-0.0721588134765625;-1.0156402587890625;-0.010792460292577744;0.003314570290967822;-0.0006343649583868682
-0.014923095703125;-0.0719146728515625;-1.017669677734375;-0.00503870053216815;-0.0015784555580466986;-0.0007408913807012141
-0.014923095703125;-0.0719146728515625;-1.017669677734375;-0.00503870053216815;-0.0015784555580466986;-0.0007408913807012141
-0.014923095703125;-0.0719146728515625;-1.017669677734375;-0.00503870053216815;-0.0015784555580466986;-0.0007408913807012141
-0.014923095703125;-0.0719146728515625;-1.017669677734375;-0.00503870053216815;-0.0015784555580466986;-0.0007408913807012141
-0.014923095703125;-0.0719146728515625;-1.017669677734375;-0.00503870053216815;-0.0015784555580466986;-0.0007408913807012141
-0.013763427734375;-0.0712127685546875;-1.017852783203125;-0.0021558289881795645;0.0015355786308646202;-0.0019651465117931366
-0.013763427734375;-0.0712127685546875;-1.017852783203125;-0.0021558289881795645;0.0015355786308646202;-0.0019651465117931366
-0.013763427734375;-0.0712127685546875;-1.017852783203125;-0.0021558289881795645;0.0015355786308646202;-0.0019651465117931366
-0.013763427734375;-0.0712127685546875;-1.017852783203125;-0.0021558289881795645;0.0015355786308646202;-0.0019651465117931366
-0.013763427734375;-0.0712127685546875;-1.017852783203125;-0.0021558289881795645;0.0015355786308646202;-0.0019651465117931366
-0.0146942138671875;-0.072784423828125;-1.01531982421875;-0.005599562544375658;0.0010365023044869304;-0.0024474449455738068
-0.0146942138671875;-0.072784423828125;-1.01531982421875;-0.005599562544375658;0.0010365023044869304;-0.0024474449455738068
-0.0146942138671875;-0.072784423828125;-1.01531982421875;-0.005599562544375658;0.0010365023044869304;-0.0024474449455738068
-0.0146942138671875;-0.072784423828125;-1.01531982421875;-0.005599562544375658;0.0010365023044869304;-0.0024474449455738068
-0.0146942138671875;-0.072784423828125;-1.01531982421875;-0.005599562544375658;0.0010365023044869304;-0.0024474449455738068
-0.014862060546875;-0.07403564453125;-1.01190185546875;-0.009356750175356865;0.005289836786687374;-0.0016911072889342904
-0.014862060546875;-0.07403564453125;-1.01190185546875;-0.009356750175356865;0.005289836786687374;-0.0016911072889342904
-0.014862060546875;-0.07403564453125;-1.01190185546875;-0.009356750175356865;0.005289836786687374;-0.0016911072889342904
-0.014862060546875;-0.07403564453125;-1.01190185546875;-0.009356750175356865;0.005289836786687374;-0.0016911072889342904
-0.014862060546875;-0.07403564453125;-1.01190185546875;-0.009356750175356865;0.005289836786687374;-0.0016911072889342904
-0.0161895751953125;-0.07403564453125;-1.010589599609375;-0.014288391917943954;0.003563842037692666;-0.002624012529850006
-0.0161895751953125;-0.07403564453125;-1.010589599609375;-0.014288391917943954;0.003563842037692666;-0.002624012529850006
-0.0161895751953125;-0.07403564453125;-1.010589599609375;-0.014288391917943954;0.003563842037692666;-0.002624012529850006
-0.0161895751953125;-0.07403564453125;-1.010589599609375;-0.014288391917943954;0.003563842037692666;-0.002624012529850006
-0.0161895751953125;-0.07403564453125;-1.010589599609375;-0.014288391917943954;0.003563842037692666;-0.002624012529850006
-0.0164642333984375;-0.075347900390625;-1.0121002197265625;-0.014503308571875095;0.0035814191214740276;-0.003567836945876479
-0.0164642333984375;-0.075347900390625;-1.0121002197265625;-0.014503308571875095;0.0035814191214740276;-0.003567836945876479
-0.0164642333984375;-0.075347900390625;-1.0121002197265625;-0.014503308571875095;0.0035814191214740276;-0.003567836945876479
-0.0164642333984375;-0.075347900390625;-1.0121002197265625;-0.014503308571875095;0.0035814191214740276;-0.003567836945876479
-0.0164642333984375;-0.075347900390625;-1.0121002197265625;-0.014503308571875095;0.0035814191214740276;-0.003567836945876479
-0.0168304443359375;-0.0732574462890625;-1.01324462890625;-0.013791445642709732;-0.0037268276792019606;-0.008926116861402988
-0.0168304443359375;-0.0732574462890625;-1.01324462890625;-0.013791445642709732;-0.0037268276792019606;-0.008926116861402988
-0.0168304443359375;-0.0732574462890625;-1.01324462890625;-0.013791445642709732;-0.0037268276792019606;-0.008926116861402988
-0.0168304443359375;-0.0732574462890625;-1.01324462890625;-0.013791445642709732;-0.0037268276792019606;-0.008926116861402988
-0.0168304443359375;-0.0732574462890625;-1.01324462890625;-0.013791445642709732;-0.0037268276792019606;-0.008926116861402988
-0.016632080078125;-0.0730438232421875;-1.013702392578125;-0.012134693562984467;-0.0035657063126564026;-0.004762530792504549
-0.016632080078125;-0.0730438232421875;-1.013702392578125;-0.012134693562984467;-0.0035657063126564026;-0.004762530792504549
-0.016632080078125;-0.0730438232421875;-1.013702392578125;-0.012134693562984467;-0.0035657063126564026;-0.004762530792504549
-0.016632080078125;-0.0730438232421875;-1.013702392578125;-0.012134693562984467;-0.0035657063126564026;-0.004762530792504549
-0.016632080078125;-0.0730438232421875;-1.013702392578125;-0.012134693562984467;-0.0035657063126564026;-0.004762530792504549
-0.0174560546875;-0.0729827880859375;-1.014801025390625;-0.00358860963024199;-0.0033097765408456326;-0.0018748653819784522
-0.0174560546875;-0.0729827880859375;-1.014801025390625;-0.00358860963024199;-0.0033097765408456326;-0.0018748653819784522
-0.0174560546875;-0.0729827880859375;-1.014801025390625;-0.00358860963024199;-0.0033097765408456326;-0.0018748653819784522
-0.0174560546875;-0.0729827880859375;-1.014801025390625;-0.00358860963024199;-0.0033097765408456326;-0.0018748653819784522
-0.0174560546875;-0.0729827880859375;-1.014801025390625;-0.00358860963024199;-0.0033097765408456326;-0.0018748653819784522
-0.0172576904296875;-0.0725250244140625;-1.014190673828125;0.0010247844038531184;-0.0020985708106309175;-0.0025478461757302284
-0.0172576904296875;-0.0725250244140625;-1.014190673828125;0.0010247844038531184;-0.0020985708106309175;-0.0025478461757302284
-0.0172576904296875;-0.0725250244140625;-1.014190673828125;0.0010247844038531184;-0.0020985708106309175;-0.0025478461757302284
-0.0172576904296875;-0.0725250244140625;-1.014190673828125;0.0010247844038531184;-0.0020985708106309175;-0.0025478461757302284
-0.0172576904296875;-0.0725250244140625;-1.014190673828125;0.0010247844038531184;-0.0020985708106309175;-0.0025478461757302284
-0.0171966552734375;-0.073028564453125;-1.0113983154296875;0.0016445019282400608;-0.0017427726415917277;-0.003763579297810793
-0.0171966552734375;-0.073028564453125;-1.0113983154296875;0.0016445019282400608;-0.0017427726415917277;-0.003763579297810793
-0.0171966552734375;-0.073028564453125;-1.0113983154296875;0.0016445019282400608;-0.0017427726415917277;-0.003763579297810793
-0.0171966552734375;-0.073028564453125;-1.0113983154296875;0.0016445019282400608;-0.0017427726415917277;-0.003763579297810793
-0.0171966552734375;-0.073028564453125;-1.0113983154296875;0.0016445019282400608;-0.0017427726415917277;-0.003763579297810793
-0.01776123046875;-0.0745697021484375;-1.006683349609375;-0.0030834078788757324;-0.0038661109283566475;-0.0022146848496049643
-0.01776123046875;-0.0745697021484375;-1.006683349609375;-0.0030834078788757324;-0.0038661109283566475;-0.0022146848496049643
-0.01776123046875;-0.0745697021484375;-1.006683349609375;-0.0030834078788757324;-0.0038661109283566475;-0.0022146848496049643
-0.01776123046875;-0.0745697021484375;-1.006683349609375;-0.0030834078788757324;-0.0038661109283566475;-0.0022146848496049643
-0.01776123046875;-0.0745697021484375;-1.006683349609375;-0.0030834078788757324;-0.0038661109283566475;-0.0022146848496049643
-0.0164947509765625;-0.0742034912109375;-1.005157470703125;-0.009648099541664124;-0.003573163179680705;-0.001457548001781106
-0.0164947509765625;-0.0742034912109375;-1.005157470703125;-0.009648099541664124;-0.003573163179680705;-0.001457548001781106
-0.0164947509765625;-0.0742034912109375;-1.005157470703125;-0.009648099541664124;-0.003573163179680705;-0.001457548001781106
-0.0164947509765625;-0.0742034912109375;-1.005157470703125;-0.009648099541664124;-0.003573163179680705;-0.001457548001781106
-0.0164947509765625;-0.0742034912109375;-1.005157470703125;-0.009648099541664124;-0.003573163179680705;-0.001457548001781106
-0.016632080078125;-0.0728759765625;-1.0063323974609375;-0.012659602798521519;0.0008109325426630676;-0.002426938619464636
-0.016632080078125;-0.0728759765625;-1.0063323974609375;-0.012659602798521519;0.0008109325426630676;-0.002426938619464636
-0.016632080078125;-0.0728759765625;-1.0063323974609375;-0.012659602798521519;0.0008109325426630676;-0.002426938619464636
-0.016632080078125;-0.0728759765625;-1.0063323974609375;-0.012659602798521519;0.0008109325426630676;-0.002426938619464636
-0.016632080078125;-0.0728759765625;-1.0063323974609375;-0.012659602798521519;0.0008109325426630676;-0.002426938619464636
-0.0165863037109375;-0.072296142578125;-1.0101165771484375;-0.011603659018874168;0.0019283948931843042;-0.0006151901907287538
-0.0165863037109375;-0.072296142578125;-1.0101165771484375;-0.011603659018874168;0.0019283948931843042;-0.0006151901907287538
-0.0165863037109375;-0.072296142578125;-1.0101165771484375;-0.011603659018874168;0.0019283948931843042;-0.0006151901907287538
-0.0165863037109375;-0.072296142578125;-1.0101165771484375;-0.011603659018874168;0.0019283948931843042;-0.0006151901907287538
-0.0165863037109375;-0.072296142578125;-1.0101165771484375;-0.011603659018874168;0.0019283948931843042;-0.0006151901907287538
-0.01629638671875;-0.0718536376953125;-1.0117340087890625;-0.01095517911016941;0.005311674904078245;-0.002651443239301443
-0.01629638671875;-0.0718536376953125;-1.0117340087890625;-0.01095517911016941;0.005311674904078245;-0.002651443239301443
-0.01629638671875;-0.0718536376953125;-1.0117340087890625;-0.01095517911016941;0.005311674904078245;-0.002651443239301443
-0.01629638671875;-0.0718536376953125;-1.0117340087890625;-0.01095517911016941;0.005311674904078245;-0.002651443239301443
-0.01629638671875;-0.0718536376953125;-1.0117340087890625;-0.01095517911016941;0.005311674904078245;-0.002651443239301443
-0.0158233642578125;-0.0703582763671875;-1.0112457275390625;-0.012456669472157955;0.01188195962458849;-0.0028519791085273027
-0.0158233642578125;-0.0703582763671875;-1.0112457275390625;-0.012456669472157955;0.01188195962458849;-0.0028519791085273027
-0.0158233642578125;-0.0703582763671875;-1.0112457275390625;-0.012456669472157955;0.01188195962458849;-0.0028519791085273027
-0.0158233642578125;-0.0703582763671875;-1.0112457275390625;-0.012456669472157955;0.01188195962458849;-0.0028519791085273027
-0.0158233642578125;-0.0703582763671875;-1.0112457275390625;-0.012456669472157955;0.01188195962458849;-0.0028519791085273027
-0.017242431640625;-0.0703887939453125;-1.0100555419921875;-0.009417204186320305;0.01623649336397648;-0.0024972460232675076
-0.017242431640625;-0.0703887939453125;-1.0100555419921875;-0.009417204186320305;0.01623649336397648;-0.0024972460232675076
-0.017242431640625;-0.0703887939453125;-1.0100555419921875;-0.009417204186320305;0.01623649336397648;-0.0024972460232675076
-0.017242431640625;-0.0703887939453125;-1.0100555419921875;-0.009417204186320305;0.01623649336397648;-0.0024972460232675076
-0.017242431640625;-0.0703887939453125;-1.0100555419921875;-0.009417204186320305;0.01623649336397648;-0.0024972460232675076
-0.0171966552734375;-0.0709075927734375;-1.010986328125;-0.010352506302297115;0.01703650690615177;-0.002228799508884549
-0.0171966552734375;-0.0709075927734375;-1.010986328125;-0.010352506302297115;0.01703650690615177;-0.002228799508884549
-0.0171966552734375;-0.0709075927734375;-1.010986328125;-0.010352506302297115;0.01703650690615177;-0.002228799508884549
-0.0171966552734375;-0.0709075927734375;-1.010986328125;-0.010352506302297115;0.01703650690615177;-0.002228799508884549
-0.0171966552734375;-0.0709075927734375;-1.010986328125;-0.010352506302297115;0.01703650690615177;-0.002228799508884549
-0.0181884765625;-0.0706787109375;-1.012725830078125;-0.006053365301340818;0.00971627701073885;-0.002264752285555005
-0.0181884765625;-0.0706787109375;-1.012725830078125;-0.006053365301340818;0.00971627701073885;-0.002264752285555005
-0.0181884765625;-0.0706787109375;-1.012725830078125;-0.006053365301340818;0.00971627701073885;-0.002264752285555005
-0.0181884765625;-0.0706787109375;-1.012725830078125;-0.006053365301340818;0.00971627701073885;-0.002264752285555005
-0.0181884765625;-0.0706787109375;-1.012725830078125;-0.006053365301340818;0.00971627701073885;-0.002264752285555005
-0.019256591796875;-0.0712127685546875;-1.016204833984375;0.004716724622994661;0.00031904669594950974;-0.0010191916953772306
-0.019256591796875;-0.0712127685546875;-1.016204833984375;0.004716724622994661;0.00031904669594950974;-0.0010191916953772306
-0.019256591796875;-0.0712127685546875;-1.016204833984375;0.004716724622994661;0.00031904669594950974;-0.0010191916953772306
-0.019256591796875;-0.0712127685546875;-1.016204833984375;0.004716724622994661;0.00031904669594950974;-0.0010191916953772306
-0.019256591796875;-0.0712127685546875;-1.016204833984375;0.004716724622994661;0.00031904669594950974;-0.0010191916953772306
-0.019775390625;-0.07281494140625;-1.0228424072265625;0.01507162768393755;-0.007113569416105747;-0.0005014732014387846
-0.019775390625;-0.07281494140625;-1.0228424072265625;0.01507162768393755;-0.007113569416105747;-0.0005014732014387846
-0.019775390625;-0.07281494140625;-1.0228424072265625;0.01507162768393755;-0.007113569416105747;-0.0005014732014387846
-0.019775390625;-0.07281494140625;-1.0228424072265625;0.01507162768393755;-0.007113569416105747;-0.0005014732014387846
-0.019775390625;-0.07281494140625;-1.0228424072265625;0.01507162768393755;-0.007113569416105747;-0.0005014732014387846
-0.0173797607421875;-0.0728302001953125;-1.0248260498046875;0.018089788034558296;-0.007796936668455601;-0.0008474178612232208
-0.0173797607421875;-0.0728302001953125;-1.0248260498046875;0.018089788034558296;-0.007796936668455601;-0.0008474178612232208
-0.0173797607421875;-0.0728302001953125;-1.0248260498046875;0.018089788034558296;-0.007796936668455601;-0.0008474178612232208
-0.0173797607421875;-0.0728302001953125;-1.0248260498046875;0.018089788034558296;-0.007796936668455601;-0.0008474178612232208
-0.0173797607421875;-0.0728302001953125;-1.0248260498046875;0.018089788034558296;-0.007796936668455601;-0.0008474178612232208
-0.0159759521484375;-0.0742950439453125;-1.0136566162109375;0.004832039587199688;0.0067694890312850475;-3.5952674807049334e-05
-0.0159759521484375;-0.0742950439453125;-1.0136566162109375;0.004832039587199688;0.0067694890312850475;-3.5952674807049334e-05
-0.0159759521484375;-0.0742950439453125;-1.0136566162109375;0.004832039587199688;0.0067694890312850475;-3.5952674807049334e-05
-0.0159759521484375;-0.0742950439453125;-1.0136566162109375;0.004832039587199688;0.0067694890312850475;-3.5952674807049334e-05
-0.0159759521484375;-0.0742950439453125;-1.0136566162109375;0.004832039587199688;0.0067694890312850475;-3.5952674807049334e-05
-0.0175323486328125;-0.0738677978515625;-0.9963531494140625;-0.012778112664818764;0.026089657098054886;0.00022690132027491927
-0.0175323486328125;-0.0738677978515625;-0.9963531494140625;-0.012778112664818764;0.026089657098054886;0.00022690132027491927
-0.0175323486328125;-0.0738677978515625;-0.9963531494140625;-0.012778112664818764;0.026089657098054886;0.00022690132027491927
-0.0175323486328125;-0.0738677978515625;-0.9963531494140625;-0.012778112664818764;0.026089657098054886;0.00022690132027491927
-0.0175323486328125;-0.0738677978515625;-0.9963531494140625;-0.012778112664818764;0.026089657098054886;0.00022690132027491927
-0.019744873046875;-0.073699951171875;-0.9977264404296875;-0.027406856417655945;0.02436952106654644;0.0002854908525478095
-0.019744873046875;-0.073699951171875;-0.9977264404296875;-0.027406856417655945;0.02436952106654644;0.0002854908525478095
-0.019744873046875;-0.073699951171875;-0.9977264404296875;-0.027406856417655945;0.02436952106654644;0.0002854908525478095
-0.019744873046875;-0.073699951171875;-0.9977264404296875;-0.027406856417655945;0.02436952106654644;0.0002854908525478095
-0.019744873046875;-0.073699951171875;-0.9977264404296875;-0.027406856417655945;0.02436952106654644;0.0002854908525478095
-0.01812744140625;-0.0745086669921875;-1.0127716064453125;-0.02160862274467945;-0.001547030289657414;0.002751844236627221
-0.01812744140625;-0.0745086669921875;-1.0127716064453125;-0.02160862274467945;-0.001547030289657414;0.002751844236627221
-0.01812744140625;-0.0745086669921875;-1.0127716064453125;-0.02160862274467945;-0.001547030289657414;0.002751844236627221
-0.01812744140625;-0.0745086669921875;-1.0127716064453125;-0.02160862274467945;-0.001547030289657414;0.002751844236627221
-0.01812744140625;-0.0745086669921875;-1.0127716064453125;-0.02160862274467945;-0.001547030289657414;0.002751844236627221
-0.0184326171875;-0.070709228515625;-1.0306549072265625;-0.009733321145176888;-0.027535753324627876;0.004869590047746897
-0.0184326171875;-0.070709228515625;-1.0306549072265625;-0.009733321145176888;-0.027535753324627876;0.004869590047746897
-0.0184326171875;-0.070709228515625;-1.0306549072265625;-0.009733321145176888;-0.027535753324627876;0.004869590047746897
-0.0184326171875;-0.070709228515625;-1.0306549072265625;-0.009733321145176888;-0.027535753324627876;0.004869590047746897
-0.0184326171875;-0.070709228515625;-1.0306549072265625;-0.009733321145176888;-0.027535753324627876;0.004869590047746897
-0.0191192626953125;-0.067779541015625;-1.0248870849609375;-0.005745769944041967;-0.030663104727864265;0.003981159534305334
-0.0191192626953125;-0.067779541015625;-1.0248870849609375;-0.005745769944041967;-0.030663104727864265;0.003981159534305334
-0.0191192626953125;-0.067779541015625;-1.0248870849609375;-0.005745769944041967;-0.030663104727864265;0.003981159534305334
-0.0191192626953125;-0.067779541015625;-1.0248870849609375;-0.005745769944041967;-0.030663104727864265;0.003981159534305334
-0.0191192626953125;-0.067779541015625;-1.0248870849609375;-0.005745769944041967;-0.030663104727864265;0.003981159534305334
-0.0189666748046875;-0.068817138671875;-1.007720947265625;-0.009704292751848698;-0.02269519306719303;0.0037880802992731333
-0.0189666748046875;-0.068817138671875;-1.007720947265625;-0.009704292751848698;-0.02269519306719303;0.0037880802992731333
-0.0189666748046875;-0.068817138671875;-1.007720947265625;-0.009704292751848698;-0.02269519306719303;0.0037880802992731333
-0.0189666748046875;-0.068817138671875;-1.007720947265625;-0.009704292751848698;-0.02269519306719303;0.0037880802992731333
-0.0189666748046875;-0.068817138671875;-1.007720947265625;-0.009011871181428432;-0.010279535315930843;0.0012692625168710947
-0.021514892578125;-0.0677337646484375;-1.009674072265625;-0.009011871181428432;-0.010279535315930843;0.0012692625168710947
-0.021514892578125;-0.0677337646484375;-1.009674072265625;-0.009011871181428432;-0.010279535315930843;0.0012692625168710947
-0.021514892578125;-0.0677337646484375;-1.009674072265625;-0.009011871181428432;-0.010279535315930843;0.0012692625168710947
-0.021514892578125;-0.0677337646484375;-1.009674072265625;-0.009011871181428432;-0.010279535315930843;0.0012692625168710947
-0.021514892578125;-0.0677337646484375;-1.009674072265625;-0.002924417145550251;0.009704559110105038;0.002679672557860613
-0.016815185546875;-0.066131591796875;-1.0111846923828125;-0.002924417145550251;0.009704559110105038;0.002679672557860613
-0.016815185546875;-0.066131591796875;-1.0111846923828125;-0.002924417145550251;0.009704559110105038;0.002679672557860613
-0.016815185546875;-0.066131591796875;-1.0111846923828125;-0.002924417145550251;0.009704559110105038;0.002679672557860613
-0.016815185546875;-0.066131591796875;-1.0111846923828125;-0.002924417145550251;0.009704559110105038;0.002679672557860613
-0.016815185546875;-0.066131591796875;-1.0111846923828125;-0.0038373488932847977;0.026206836104393005;-0.0003712446487043053
-0.0146484375;-0.0682830810546875;-1.0059814453125;-0.0038373488932847977;0.026206836104393005;-0.0003712446487043053
-0.0146484375;-0.0682830810546875;-1.0059814453125;-0.0038373488932847977;0.026206836104393005;-0.0003712446487043053
-0.0146484375;-0.0682830810546875;-1.0059814453125;-0.0038373488932847977;0.026206836104393005;-0.0003712446487043053
-0.0146484375;-0.0682830810546875;-1.0059814453125;-0.0038373488932847977;0.026206836104393005;-0.0003712446487043053
-0.0146484375;-0.0682830810546875;-1.0059814453125;-0.0019329222850501537;0.024348482489585876;0.0002695118892006576
-0.01727294921875;-0.0712738037109375;-1.0081329345703125;-0.0019329222850501537;0.024348482489585876;0.0002695118892006576
-0.01727294921875;-0.0712738037109375;-1.0081329345703125;-0.0019329222850501537;0.024348482489585876;0.0002695118892006576
-0.01727294921875;-0.0712738037109375;-1.0081329345703125;-0.0019329222850501537;0.024348482489585876;0.0002695118892006576
-0.01727294921875;-0.0712738037109375;-1.0081329345703125;-0.0019329222850501537;0.024348482489585876;0.0002695118892006576
-0.0163116455078125;-0.0770263671875;-1.0149993896484375;-0.0031672974582761526;0.011648399755358696;-0.0005171858938410878
-0.0163116455078125;-0.0770263671875;-1.0149993896484375;-0.0031672974582761526;0.011648399755358696;-0.0005171858938410878
-0.0163116455078125;-0.0770263671875;-1.0149993896484375;-0.0031672974582761526;0.011648399755358696;-0.0005171858938410878
-0.0163116455078125;-0.0770263671875;-1.0149993896484375;-0.0031672974582761526;0.011648399755358696;-0.0005171858938410878
-0.0163116455078125;-0.0770263671875;-1.0149993896484375;-0.0031672974582761526;0.011648399755358696;-0.0005171858938410878
-0.0151519775390625;-0.0767974853515625;-1.02056884765625;-0.004850415047258139;-0.0012993563432246447;0.0019475696608424187
-0.0151519775390625;-0.0767974853515625;-1.02056884765625;-0.004850415047258139;-0.0012993563432246447;0.0019475696608424187
-0.0151519775390625;-0.0767974853515625;-1.02056884765625;-0.004850415047258139;-0.0012993563432246447;0.0019475696608424187
-0.0151519775390625;-0.0767974853515625;-1.02056884765625;-0.004850415047258139;-0.0012993563432246447;0.0019475696608424187
-0.0151519775390625;-0.0767974853515625;-1.02056884765625;-0.004850415047258139;-0.0012993563432246447;0.0019475696608424187
-0.0151519775390625;-0.0767974853515625;-1.02056884765625;-0.004850415047258139;-0.0012993563432246447;0.0019475696608424187
-0.0163421630859375;-0.077789306640625;-1.0161895751953125;-0.01715501770377159;0.0043774377554655075;-0.0029846045654267073
-0.0163421630859375;-0.077789306640625;-1.0161895751953125;-0.01715501770377159;0.0043774377554655075;-0.0029846045654267073
-0.0163421630859375;-0.077789306640625;-1.0161895751953125;-0.01715501770377159;0.0043774377554655075;-0.0029846045654267073
-0.0163421630859375;-0.077789306640625;-1.0161895751953125;-0.01715501770377159;0.0043774377554655075;-0.0029846045654267073
-0.018310546875;-0.0784912109375;-1.010040283203125;-0.026399383321404457;0.013076387345790863;0.00027750138542614877
-0.018310546875;-0.0784912109375;-1.010040283203125;-0.026399383321404457;0.013076387345790863;0.00027750138542614877
-0.018310546875;-0.0784912109375;-1.010040283203125;-0.026399383321404457;0.013076387345790863;0.00027750138542614877
-0.018310546875;-0.0784912109375;-1.010040283203125;-0.026399383321404457;0.013076387345790863;0.00027750138542614877
-0.018310546875;-0.0784912109375;-1.010040283203125;-0.026399383321404457;0.013076387345790863;0.00027750138542614877
-0.01776123046875;-0.0762176513671875;-1.008575439453125;-0.03212811052799225;0.015190936625003815;-0.0027534421533346176
-0.01776123046875;-0.0762176513671875;-1.008575439453125;-0.03212811052799225;0.015190936625003815;-0.0027534421533346176
-0.01776123046875;-0.0762176513671875;-1.008575439453125;-0.03212811052799225;0.015190936625003815;-0.0027534421533346176
-0.01776123046875;-0.0762176513671875;-1.008575439453125;-0.03212811052799225;0.015190936625003815;-0.0027534421533346176
-0.01776123046875;-0.0762176513671875;-1.008575439453125;-0.03212811052799225;0.015190936625003815;-0.0027534421533346176
-0.0160369873046875;-0.0740509033203125;-1.01263427734375;-0.031618114560842514;0.009304285980761051;-0.0034021881874650717
-0.0160369873046875;-0.0740509033203125;-1.01263427734375;-0.031618114560842514;0.009304285980761051;-0.0034021881874650717
-0.0160369873046875;-0.0740509033203125;-1.01263427734375;-0.031618114560842514;0.009304285980761051;-0.0034021881874650717
-0.0160369873046875;-0.0740509033203125;-1.01263427734375;-0.031618114560842514;0.009304285980761051;-0.0034021881874650717
-0.0160369873046875;-0.0740509033203125;-1.01263427734375;-0.031618114560842514;0.009304285980761051;-0.0034021881874650717
-0.0160369873046875;-0.0740509033203125;-1.01263427734375;-0.02316657267510891;-0.0012942962348461151;-0.00532445777207613
-0.013427734375;-0.0717620849609375;-1.01611328125;-0.02316657267510891;-0.0012942962348461151;-0.00532445777207613
-0.013427734375;-0.0717620849609375;-1.01611328125;-0.02316657267510891;-0.0012942962348461151;-0.00532445777207613
-0.013427734375;-0.0717620849609375;-1.01611328125;-0.02316657267510891;-0.0012942962348461151;-0.00532445777207613
-0.013427734375;-0.0717620849609375;-1.01611328125;-0.02316657267510891;-0.0012942962348461151;-0.00532445777207613
-0.0124664306640625;-0.0708770751953125;-1.0155792236328125;-0.016704412177205086;-0.00041864890954457223;0.0011089402250945568
-0.0124664306640625;-0.0708770751953125;-1.0155792236328125;-0.016704412177205086;-0.00041864890954457223;0.0011089402250945568
-0.0124664306640625;-0.0708770751953125;-1.0155792236328125;-0.016704412177205086;-0.00041864890954457223;0.0011089402250945568
-0.0124664306640625;-0.0708770751953125;-1.0155792236328125;-0.016704412177205086;-0.00041864890954457223;0.0011089402250945568
-0.0124664306640625;-0.0708770751953125;-1.0155792236328125;-0.016704412177205086;-0.00041864890954457223;0.0011089402250945568
-0.0127105712890625;-0.068206787109375;-1.012847900390625;-0.009751963429152966;0.0051505533047020435;-0.0012181298807263374
-0.0127105712890625;-0.068206787109375;-1.012847900390625;-0.009751963429152966;0.0051505533047020435;-0.0012181298807263374
-0.0127105712890625;-0.068206787109375;-1.012847900390625;-0.009751963429152966;0.0051505533047020435;-0.0012181298807263374
-0.0127105712890625;-0.068206787109375;-1.012847900390625;-0.009751963429152966;0.0051505533047020435;-0.0012181298807263374
-0.0127105712890625;-0.068206787109375;-1.012847900390625;-0.009751963429152966;0.0051505533047020435;-0.0012181298807263374
-0.012786865234375;-0.065216064453125;-1.0118560791015625;-0.006483998149633408;0.010246512480080128;0.0014282532501965761
-0.012786865234375;-0.065216064453125;-1.0118560791015625;-0.006483998149633408;0.010246512480080128;0.0014282532501965761
-0.012786865234375;-0.065216064453125;-1.0118560791015625;-0.006483998149633408;0.010246512480080128;0.0014282532501965761
-0.012786865234375;-0.065216064453125;-1.0118560791015625;-0.006483998149633408;0.010246512480080128;0.0014282532501965761
-0.012786865234375;-0.065216064453125;-1.0118560791015625;-0.006483998149633408;0.010246512480080128;0.0014282532501965761
-0.0118408203125;-0.0637054443359375;-1.0145111083984375;0.0010777813149616122;0.008105862885713577;8.442220860160887e-05
-0.0118408203125;-0.0637054443359375;-1.0145111083984375;0.0010777813149616122;0.008105862885713577;8.442220860160887e-05
-0.0118408203125;-0.0637054443359375;-1.0145111083984375;0.0010777813149616122;0.008105862885713577;8.442220860160887e-05
-0.0118408203125;-0.0637054443359375;-1.0145111083984375;0.0010777813149616122;0.008105862885713577;8.442220860160887e-05
-0.0118408203125;-0.0637054443359375;-1.0145111083984375;0.0010777813149616122;0.008105862885713577;8.442220860160887e-05
-0.0111846923828125;-0.0624542236328125;-1.018096923828125;0.0037169738207012415;0.00192200334277004;-0.0005416869535110891
-0.0111846923828125;-0.0624542236328125;-1.018096923828125;0.0037169738207012415;0.00192200334277004;-0.0005416869535110891
-0.0111846923828125;-0.0624542236328125;-1.018096923828125;0.0037169738207012415;0.00192200334277004;-0.0005416869535110891
-0.0111846923828125;-0.0624542236328125;-1.018096923828125;0.0037169738207012415;0.00192200334277004;-0.0005416869535110891
-0.0111846923828125;-0.0624542236328125;-1.018096923828125;0.0037169738207012415;0.00192200334277004;-0.0005416869535110891
-0.0120391845703125;-0.0620574951171875;-1.019195556640625;0.007800931576639414;-0.005075985100120306;0.0015132081462070346
-0.0120391845703125;-0.0620574951171875;-1.019195556640625;0.007800931576639414;-0.005075985100120306;0.0015132081462070346
-0.0120391845703125;-0.0620574951171875;-1.019195556640625;0.007800931576639414;-0.005075985100120306;0.0015132081462070346
-0.0120391845703125;-0.0620574951171875;-1.019195556640625;0.007800931576639414;-0.005075985100120306;0.0015132081462070346
-0.0120391845703125;-0.0620574951171875;-1.019195556640625;0.007800931576639414;-0.005075985100120306;0.0015132081462070346
-0.01336669921875;-0.0649261474609375;-1.018585205078125;0.011688347905874252;-0.005815012380480766;0.002915096003562212
-0.01336669921875;-0.0649261474609375;-1.018585205078125;0.011688347905874252;-0.005815012380480766;0.002915096003562212
-0.01336669921875;-0.0649261474609375;-1.018585205078125;0.011688347905874252;-0.005815012380480766;0.002915096003562212
-0.01336669921875;-0.0649261474609375;-1.018585205078125;0.011688347905874252;-0.005815012380480766;0.002915096003562212
-0.01336669921875;-0.0649261474609375;-1.018585205078125;0.011688347905874252;-0.005815012380480766;0.002915096003562212
-0.0150299072265625;-0.0677032470703125;-1.015899658203125;0.01215573213994503;-0.005793973337858915;-0.0012042814632877707
-0.0150299072265625;-0.0677032470703125;-1.015899658203125;0.01215573213994503;-0.005793973337858915;-0.0012042814632877707
-0.0150299072265625;-0.0677032470703125;-1.015899658203125;0.01215573213994503;-0.005793973337858915;-0.0012042814632877707
-0.0150299072265625;-0.0677032470703125;-1.015899658203125;0.01215573213994503;-0.005793973337858915;-0.0012042814632877707
-0.0150299072265625;-0.0677032470703125;-1.015899658203125;0.01215573213994503;-0.005793973337858915;-0.0012042814632877707
-0.0155181884765625;-0.069580078125;-1.0142669677734375;0.00993172638118267;-0.004180097486823797;-0.00341577036306262
-0.0155181884765625;-0.069580078125;-1.0142669677734375;0.00993172638118267;-0.004180097486823797;-0.00341577036306262
-0.0155181884765625;-0.069580078125;-1.0142669677734375;0.00993172638118267;-0.004180097486823797;-0.00341577036306262
-0.0155181884765625;-0.069580078125;-1.0142669677734375;0.00993172638118267;-0.004180097486823797;-0.00341577036306262
-0.0155181884765625;-0.069580078125;-1.0142669677734375;0.00993172638118267;-0.004180097486823797;-0.00341577036306262
-0.0165557861328125;-0.0721435546875;-1.0128021240234375;0.006021673325449228;-0.0024703482631593943;0.0002719087351579219
-0.0165557861328125;-0.0721435546875;-1.0128021240234375;0.006021673325449228;-0.0024703482631593943;0.0002719087351579219
-0.0165557861328125;-0.0721435546875;-1.0128021240234375;0.006021673325449228;-0.0024703482631593943;0.0002719087351579219
-0.0165557861328125;-0.0721435546875;-1.0128021240234375;0.006021673325449228;-0.0024703482631593943;0.0002719087351579219
-0.0165557861328125;-0.0721435546875;-1.0128021240234375;0.006021673325449228;-0.0024703482631593943;0.0002719087351579219
-0.0169219970703125;-0.0735015869140625;-1.0127716064453125;0.00282055395655334;-0.006477074231952429;-0.0009558085002936423
-0.0169219970703125;-0.0735015869140625;-1.0127716064453125;0.00282055395655334;-0.006477074231952429;-0.0009558085002936423
-0.0169219970703125;-0.0735015869140625;-1.0127716064453125;0.00282055395655334;-0.006477074231952429;-0.0009558085002936423
-0.0169219970703125;-0.0735015869140625;-1.0127716064453125;0.00282055395655334;-0.006477074231952429;-0.0009558085002936423
-0.0169219970703125;-0.0735015869140625;-1.0127716064453125;0.00282055395655334;-0.006477074231952429;-0.0009558085002936423
-0.016326904296875;-0.0736083984375;-1.0117340087890625;0.004351072479039431;-0.008951150812208652;-0.0013046825770288706
-0.016326904296875;-0.0736083984375;-1.0117340087890625;0.004351072479039431;-0.008951150812208652;-0.0013046825770288706
-0.016326904296875;-0.0736083984375;-1.0117340087890625;0.004351072479039431;-0.008951150812208652;-0.0013046825770288706
-0.016326904296875;-0.0736083984375;-1.0117340087890625;0.004351072479039431;-0.008951150812208652;-0.0013046825770288706
-0.016326904296875;-0.0736083984375;-1.0117340087890625;0.004351072479039431;-0.008951150812208652;-0.0013046825770288706
-0.016845703125;-0.0737152099609375;-1.0124664306640625;0.005152417812496424;-0.008541289716959;-0.001115598133765161
-0.016845703125;-0.0737152099609375;-1.0124664306640625;0.005152417812496424;-0.008541289716959;-0.001115598133765161
-0.016845703125;-0.0737152099609375;-1.0124664306640625;0.005152417812496424;-0.008541289716959;-0.001115598133765161
-0.016845703125;-0.0737152099609375;-1.0124664306640625;0.005152417812496424;-0.008541289716959;-0.001115598133765161
-0.016845703125;-0.0737152099609375;-1.0124664306640625;0.005152417812496424;-0.008541289716959;-0.001115598133765161
-0.01611328125;-0.07275390625;-1.010833740234375;0.006331132724881172;-0.009194829501211643;-0.0015033544041216373
-0.01611328125;-0.07275390625;-1.010833740234375;0.006331132724881172;-0.009194829501211643;-0.0015033544041216373
-0.01611328125;-0.07275390625;-1.010833740234375;0.006331132724881172;-0.009194829501211643;-0.0015033544041216373
-0.01611328125;-0.07275390625;-1.010833740234375;0.006331132724881172;-0.009194829501211643;-0.0015033544041216373
-0.01611328125;-0.07275390625;-1.010833740234375;0.006331132724881172;-0.009194829501211643;-0.0015033544041216373
-0.0162200927734375;-0.072479248046875;-1.009674072265625;0.009251555427908897;-0.006353237200528383;-0.0018759306985884905
-0.0162200927734375;-0.072479248046875;-1.009674072265625;0.009251555427908897;-0.006353237200528383;-0.0018759306985884905
-0.0162200927734375;-0.072479248046875;-1.009674072265625;0.009251555427908897;-0.006353237200528383;-0.0018759306985884905
-0.0162200927734375;-0.072479248046875;-1.009674072265625;0.009251555427908897;-0.006353237200528383;-0.0018759306985884905
-0.0162200927734375;-0.072479248046875;-1.009674072265625;0.009251555427908897;-0.006353237200528383;-0.0018759306985884905
-0.01629638671875;-0.07208251953125;-1.0108795166015625;0.006842725910246372;-0.010266219265758991;-0.0034961977507919073
-0.01629638671875;-0.07208251953125;-1.0108795166015625;0.006842725910246372;-0.010266219265758991;-0.0034961977507919073
-0.01629638671875;-0.07208251953125;-1.0108795166015625;0.006842725910246372;-0.010266219265758991;-0.0034961977507919073
-0.01629638671875;-0.07208251953125;-1.0108795166015625;0.006842725910246372;-0.010266219265758991;-0.0034961977507919073
-0.01629638671875;-0.07208251953125;-1.0108795166015625;0.006842725910246372;-0.010266219265758991;-0.0034961977507919073
-0.015533447265625;-0.0698089599609375;-1.010650634765625;0.006866960786283016;-0.009463276714086533;-0.0018106831703335047
-0.015533447265625;-0.0698089599609375;-1.010650634765625;0.006866960786283016;-0.009463276714086533;-0.0018106831703335047
-0.015533447265625;-0.0698089599609375;-1.010650634765625;0.006866960786283016;-0.009463276714086533;-0.0018106831703335047
-0.015533447265625;-0.0698089599609375;-1.010650634765625;0.006866960786283016;-0.009463276714086533;-0.0018106831703335047
-0.015533447265625;-0.0698089599609375;-1.010650634765625;0.006866960786283016;-0.009463276714086533;-0.0018106831703335047
-0.0159454345703125;-0.0698699951171875;-1.0092315673828125;0.0029353362042456865;-0.0044408212415874004;-0.0010634001810103655
-0.0159454345703125;-0.0698699951171875;-1.0092315673828125;0.0029353362042456865;-0.0044408212415874004;-0.0010634001810103655
-0.0159454345703125;-0.0698699951171875;-1.0092315673828125;0.0029353362042456865;-0.0044408212415874004;-0.0010634001810103655
-0.0159454345703125;-0.0698699951171875;-1.0092315673828125;0.0029353362042456865;-0.0044408212415874004;-0.0010634001810103655
-0.0159454345703125;-0.0698699951171875;-1.0092315673828125;0.0029353362042456865;-0.0044408212415874004;-0.0010634001810103655
-0.016326904296875;-0.070281982421875;-1.00543212890625;0.000526773277670145;0.0007028082036413252;-0.0021204089280217886
-0.016326904296875;-0.070281982421875;-1.00543212890625;0.000526773277670145;0.0007028082036413252;-0.0021204089280217886
-0.016326904296875;-0.070281982421875;-1.00543212890625;0.000526773277670145;0.0007028082036413252;-0.0021204089280217886
-0.016326904296875;-0.070281982421875;-1.00543212890625;0.000526773277670145;0.0007028082036413252;-0.0021204089280217886
-0.016326904296875;-0.070281982421875;-1.00543212890625;0.000526773277670145;0.0007028082036413252;-0.0021204089280217886
-0.01739501953125;-0.0694732666015625;-1.0061187744140625;-0.005376389715820551;-0.004799016285687685;-0.0031558459158986807
-0.01739501953125;-0.0694732666015625;-1.0061187744140625;-0.005376389715820551;-0.004799016285687685;-0.0031558459158986807
-0.01739501953125;-0.0694732666015625;-1.0061187744140625;-0.005376389715820551;-0.004799016285687685;-0.0031558459158986807
-0.01739501953125;-0.0694732666015625;-1.0061187744140625;-0.005376389715820551;-0.004799016285687685;-0.0031558459158986807
-0.01739501953125;-0.0694732666015625;-1.0061187744140625;-0.005376389715820551;-0.004799016285687685;-0.0031558459158986807
-0.01873779296875;-0.0687255859375;-1.0099639892578125;-0.0030415961518883705;-0.007830758579075336;-0.0009065400226972997
-0.01873779296875;-0.0687255859375;-1.0099639892578125;-0.0030415961518883705;-0.007830758579075336;-0.0009065400226972997
-0.01873779296875;-0.0687255859375;-1.0099639892578125;-0.0030415961518883705;-0.007830758579075336;-0.0009065400226972997
-0.01873779296875;-0.0687255859375;-1.0099639892578125;-0.0030415961518883705;-0.007830758579075336;-0.0009065400226972997
-0.01873779296875;-0.0687255859375;-1.0099639892578125;-0.0030415961518883705;-0.007830758579075336;-0.0009065400226972997
-0.016998291015625;-0.0691070556640625;-1.0112152099609375;-0.0009978864109143615;-0.0054613444954156876;-0.0019558256026357412
-0.016998291015625;-0.0691070556640625;-1.0112152099609375;-0.0009978864109143615;-0.0054613444954156876;-0.0019558256026357412
-0.016998291015625;-0.0691070556640625;-1.0112152099609375;-0.0009978864109143615;-0.0054613444954156876;-0.0019558256026357412
-0.016998291015625;-0.0691070556640625;-1.0112152099609375;-0.0009978864109143615;-0.0054613444954156876;-0.0019558256026357412
-0.016998291015625;-0.0691070556640625;-1.0112152099609375;-0.0009978864109143615;-0.0054613444954156876;-0.0019558256026357412
-0.01617431640625;-0.0674591064453125;-1.0070953369140625;-0.009305351413786411;0.0008088020258583128;-0.001814944320358336
-0.01617431640625;-0.0674591064453125;-1.0070953369140625;-0.009305351413786411;0.0008088020258583128;-0.001814944320358336
-0.01617431640625;-0.0674591064453125;-1.0070953369140625;-0.009305351413786411;0.0008088020258583128;-0.001814944320358336
-0.01617431640625;-0.0674591064453125;-1.0070953369140625;-0.009305351413786411;0.0008088020258583128;-0.001814944320358336
-0.01617431640625;-0.0674591064453125;-1.0070953369140625;-0.009305351413786411;0.0008088020258583128;-0.001814944320358336
-0.016998291015625;-0.06622314453125;-1.0009918212890625;-0.011727229692041874;0.010575679130852222;-0.0011046791914850473
-0.016998291015625;-0.06622314453125;-1.0009918212890625;-0.011727229692041874;0.010575679130852222;-0.0011046791914850473
-0.016998291015625;-0.06622314453125;-1.0009918212890625;-0.011727229692041874;0.010575679130852222;-0.0011046791914850473
-0.016998291015625;-0.06622314453125;-1.0009918212890625;-0.011727229692041874;0.010575679130852222;-0.0011046791914850473
-0.016998291015625;-0.06622314453125;-1.0009918212890625;-0.011727229692041874;0.010575679130852222;-0.0011046791914850473
-0.0168304443359375;-0.06573486328125;-1.003570556640625;-0.018322015181183815;0.006299707572907209;-0.007811317685991526
-0.0168304443359375;-0.06573486328125;-1.003570556640625;-0.018322015181183815;0.006299707572907209;-0.007811317685991526
-0.0168304443359375;-0.06573486328125;-1.003570556640625;-0.018322015181183815;0.006299707572907209;-0.007811317685991526
-0.0168304443359375;-0.06573486328125;-1.003570556640625;-0.018322015181183815;0.006299707572907209;-0.007811317685991526
-0.0168304443359375;-0.06573486328125;-1.003570556640625;-0.018322015181183815;0.006299707572907209;-0.007811317685991526
-0.01556396484375;-0.0644683837890625;-1.00689697265625;-0.02184910513460636;0.0027316042687743902;-0.005311941262334585
-0.01556396484375;-0.0644683837890625;-1.00689697265625;-0.02184910513460636;0.0027316042687743902;-0.005311941262334585
-0.01556396484375;-0.0644683837890625;-1.00689697265625;-0.02184910513460636;0.0027316042687743902;-0.005311941262334585
-0.01556396484375;-0.0644683837890625;-1.00689697265625;-0.02184910513460636;0.0027316042687743902;-0.005311941262334585
-0.01556396484375;-0.0644683837890625;-1.00689697265625;-0.02184910513460636;0.0027316042687743902;-0.005311941262334585
-0.0146484375;-0.0642852783203125;-1.009124755859375;-0.025081118568778038;-0.0030863373540341854;-0.009050486609339714
-0.0146484375;-0.0642852783203125;-1.009124755859375;-0.025081118568778038;-0.0030863373540341854;-0.009050486609339714
-0.0146484375;-0.0642852783203125;-1.009124755859375;-0.025081118568778038;-0.0030863373540341854;-0.009050486609339714
-0.0146484375;-0.0642852783203125;-1.009124755859375;-0.025081118568778038;-0.0030863373540341854;-0.009050486609339714
-0.0146484375;-0.0642852783203125;-1.009124755859375;-0.025081118568778038;-0.0030863373540341854;-0.009050486609339714
-0.0144805908203125;-0.0639190673828125;-1.00885009765625;-0.023575367406010628;-0.0029529130551964045;-0.011256116442382336
-0.0144805908203125;-0.0639190673828125;-1.00885009765625;-0.023575367406010628;-0.0029529130551964045;-0.011256116442382336
-0.0144805908203125;-0.0639190673828125;-1.00885009765625;-0.023575367406010628;-0.0029529130551964045;-0.011256116442382336
-0.0144805908203125;-0.0639190673828125;-1.00885009765625;-0.023575367406010628;-0.0029529130551964045;-0.011256116442382336
-0.0144805908203125;-0.0639190673828125;-1.00885009765625;-0.023575367406010628;-0.0029529130551964045;-0.011256116442382336
-0.015625;-0.0631866455078125;-1.009368896484375;-0.020855480805039406;-0.0009656621841713786;-0.011385812424123287
-0.015625;-0.0631866455078125;-1.009368896484375;-0.020855480805039406;-0.0009656621841713786;-0.011385812424123287
-0.015625;-0.0631866455078125;-1.009368896484375;-0.020855480805039406;-0.0009656621841713786;-0.011385812424123287
-0.015625;-0.0631866455078125;-1.009368896484375;-0.020855480805039406;-0.0009656621841713786;-0.011385812424123287
-0.015625;-0.0631866455078125;-1.009368896484375;-0.020855480805039406;-0.0009656621841713786;-0.011385812424123287
-0.0166778564453125;-0.0645751953125;-1.013671875;-0.012048407457768917;0.0006676545017398894;-0.012350942008197308
-0.0166778564453125;-0.0645751953125;-1.013671875;-0.012048407457768917;0.0006676545017398894;-0.012350942008197308
-0.0166778564453125;-0.0645751953125;-1.013671875;-0.012048407457768917;0.0006676545017398894;-0.012350942008197308
-0.0166778564453125;-0.0645751953125;-1.013671875;-0.012048407457768917;0.0006676545017398894;-0.012350942008197308
-0.0166778564453125;-0.0645751953125;-1.013671875;-0.012048407457768917;0.0006676545017398894;-0.012350942008197308
-0.0158538818359375;-0.0658416748046875;-1.0177001953125;0.002900448627769947;0.0020128171890974045;-0.013944311067461967
-0.0158538818359375;-0.0658416748046875;-1.0177001953125;0.002900448627769947;0.0020128171890974045;-0.013944311067461967
-0.0158538818359375;-0.0658416748046875;-1.0177001953125;0.002900448627769947;0.0020128171890974045;-0.013944311067461967
-0.0158538818359375;-0.0658416748046875;-1.0177001953125;0.002900448627769947;0.0020128171890974045;-0.013944311067461967
-0.0158538818359375;-0.0658416748046875;-1.0177001953125;0.002900448627769947;0.0020128171890974045;-0.013944311067461967
-0.0149078369140625;-0.0677032470703125;-1.018341064453125;0.016113189980387688;0.0025752766523510218;-0.013229519128799438
-0.0149078369140625;-0.0677032470703125;-1.018341064453125;0.016113189980387688;0.0025752766523510218;-0.013229519128799438
-0.0149078369140625;-0.0677032470703125;-1.018341064453125;0.016113189980387688;0.0025752766523510218;-0.013229519128799438
-0.0149078369140625;-0.0677032470703125;-1.018341064453125;0.016113189980387688;0.0025752766523510218;-0.013229519128799438
