Acell X;Acell Y;Acell Z;Gyro X;Gyro Y;Gyro Z

-0.010162353515625;-0.1363983154296875;-1.023895263671875;-0.03332120552659035;0.05238863825798035;0.00700890738517046
-0.011566162109375;-0.1305999755859375;-1.0224761962890625;-0.03332120552659035;0.05238863825798035;0.00700890738517046
-0.011566162109375;-0.1305999755859375;-1.0224761962890625;-0.03332120552659035;0.05238863825798035;0.00700890738517046
-0.011566162109375;-0.1305999755859375;-1.0224761962890625;-0.03332120552659035;0.05238863825798035;0.00700890738517046
-0.011566162109375;-0.1305999755859375;-1.0224761962890625;-0.03332120552659035;0.05238863825798035;0.00700890738517046
-0.0068359375;-0.1277313232421875;-1.01824951171875;-0.02509603276848793;0.03856363892555237;0.007174023427069187
-0.0068359375;-0.1277313232421875;-1.01824951171875;-0.02509603276848793;0.03856363892555237;0.007174023427069187
-0.0068359375;-0.1277313232421875;-1.01824951171875;-0.02509603276848793;0.03856363892555237;0.007174023427069187
-0.0068359375;-0.1277313232421875;-1.01824951171875;-0.02509603276848793;0.03856363892555237;0.007174023427069187
-0.0068359375;-0.1277313232421875;-1.01824951171875;-0.02509603276848793;0.03856363892555237;0.007174023427069187
-0.0030059814453125;-0.125946044921875;-1.0217132568359375;-0.02949637360870838;0.00016884441720321774;0.001282312092371285
-0.0030059814453125;-0.125946044921875;-1.0217132568359375;-0.02949637360870838;0.00016884441720321774;0.001282312092371285
-0.0030059814453125;-0.125946044921875;-1.0217132568359375;-0.02949637360870838;0.00016884441720321774;0.001282312092371285
-0.0030059814453125;-0.125946044921875;-1.0217132568359375;-0.02949637360870838;0.00016884441720321774;0.001282312092371285
-0.0030059814453125;-0.125946044921875;-1.0217132568359375;-0.02949637360870838;0.00016884441720321774;0.001282312092371285
0.0041961669921875;-0.1266632080078125;-1.02105712890625;-0.031131288036704063;-0.02292502298951149;0.0030330740846693516
0.0041961669921875;-0.1266632080078125;-1.02105712890625;-0.031131288036704063;-0.02292502298951149;0.0030330740846693516
0.0041961669921875;-0.1266632080078125;-1.02105712890625;-0.031131288036704063;-0.02292502298951149;0.0030330740846693516
0.0041961669921875;-0.1266632080078125;-1.02105712890625;-0.031131288036704063;-0.02292502298951149;0.0030330740846693516
0.0041961669921875;-0.1266632080078125;-1.02105712890625;-0.031131288036704063;-0.02292502298951149;0.0030330740846693516
0.0069427490234375;-0.1265106201171875;-1.0108795166015625;-0.02702256292104721;-0.017247429117560387;0.004889830015599728
0.0069427490234375;-0.1265106201171875;-1.0108795166015625;-0.02702256292104721;-0.017247429117560387;0.004889830015599728
0.0069427490234375;-0.1265106201171875;-1.0108795166015625;-0.02702256292104721;-0.017247429117560387;0.004889830015599728
0.0069427490234375;-0.1265106201171875;-1.0108795166015625;-0.02702256292104721;-0.017247429117560387;0.004889830015599728
0.0069427490234375;-0.1265106201171875;-1.0108795166015625;-0.02702256292104721;-0.017247429117560387;0.004889830015599728
0.00115966796875;-0.131591796875;-1.0045318603515625;-0.025735190138220787;0.001972869737073779;0.002147306688129902
0.00115966796875;-0.131591796875;-1.0045318603515625;-0.025735190138220787;0.001972869737073779;0.002147306688129902
0.00115966796875;-0.131591796875;-1.0045318603515625;-0.025735190138220787;0.001972869737073779;0.002147306688129902
0.00115966796875;-0.131591796875;-1.0045318603515625;-0.025735190138220787;0.001972869737073779;0.002147306688129902
0.00115966796875;-0.131591796875;-1.0045318603515625;-0.025735190138220787;0.001972869737073779;0.002147306688129902
-0.0045166015625;-0.1398773193359375;-1.0110931396484375;-0.01600160263478756;0.007667507044970989;0.0017329188995063305
-0.0045166015625;-0.1398773193359375;-1.0110931396484375;-0.01600160263478756;0.007667507044970989;0.0017329188995063305
-0.0045166015625;-0.1398773193359375;-1.0110931396484375;-0.01600160263478756;0.007667507044970989;0.0017329188995063305
-0.0045166015625;-0.1398773193359375;-1.0110931396484375;-0.01600160263478756;0.007667507044970989;0.0017329188995063305
-0.0045166015625;-0.1398773193359375;-1.0110931396484375;-0.01600160263478756;0.007667507044970989;0.0017329188995063305
-0.0047149658203125;-0.1439361572265625;-1.019195556640625;-0.013123791664838791;0.009367402642965317;0.0073258234187960625
-0.0047149658203125;-0.1439361572265625;-1.019195556640625;-0.013123791664838791;0.009367402642965317;0.0073258234187960625
-0.0047149658203125;-0.1439361572265625;-1.019195556640625;-0.013123791664838791;0.009367402642965317;0.0073258234187960625
-0.0047149658203125;-0.1439361572265625;-1.019195556640625;-0.013123791664838791;0.009367402642965317;0.0073258234187960625
-0.0047149658203125;-0.1439361572265625;-1.019195556640625;-0.013123791664838791;0.009367402642965317;0.0073258234187960625
-0.0030517578125;-0.14501953125;-1.0166473388671875;-0.022489862516522408;0.013569338247179985;0.007730890065431595
-0.0030517578125;-0.14501953125;-1.0166473388671875;-0.022489862516522408;0.013569338247179985;0.007730890065431595
-0.0030517578125;-0.14501953125;-1.0166473388671875;-0.022489862516522408;0.013569338247179985;0.007730890065431595
-0.0030517578125;-0.14501953125;-1.0166473388671875;-0.022489862516522408;0.013569338247179985;0.007730890065431595
-0.0030517578125;-0.14501953125;-1.0166473388671875;-0.022489862516522408;0.013569338247179985;0.007730890065431595
-0.003936767578125;-0.14617919921875;-1.0128936767578125;-0.04693608358502388;0.01393046323210001;0.010705375112593174
-0.003936767578125;-0.14617919921875;-1.0128936767578125;-0.04693608358502388;0.01393046323210001;0.010705375112593174
-0.003936767578125;-0.14617919921875;-1.0128936767578125;-0.04693608358502388;0.01393046323210001;0.010705375112593174
-0.003936767578125;-0.14617919921875;-1.0128936767578125;-0.04693608358502388;0.01393046323210001;0.010705375112593174
-0.003936767578125;-0.14617919921875;-1.0128936767578125;-0.04693608358502388;0.01393046323210001;0.010705375112593174
-0.003570556640625;-0.146453857421875;-1.0102386474609375;-0.07104434818029404;0.021338578313589096;0.010003898292779922
-0.003570556640625;-0.146453857421875;-1.0102386474609375;-0.07104434818029404;0.021338578313589096;0.010003898292779922
-0.003570556640625;-0.146453857421875;-1.0102386474609375;-0.07104434818029404;0.021338578313589096;0.010003898292779922
-0.003570556640625;-0.146453857421875;-1.0102386474609375;-0.07104434818029404;0.021338578313589096;0.010003898292779922
-0.003570556640625;-0.146453857421875;-1.0102386474609375;-0.09910794347524643;0.025980200618505478;0.009383381344377995
-0.002044677734375;-0.1451416015625;-1.0040740966796875;-0.09910794347524643;0.025980200618505478;0.009383381344377995
-0.002044677734375;-0.1451416015625;-1.0040740966796875;-0.09910794347524643;0.025980200618505478;0.009383381344377995
-0.002044677734375;-0.1451416015625;-1.0040740966796875;-0.09910794347524643;0.025980200618505478;0.009383381344377995
-0.002044677734375;-0.1451416015625;-1.0040740966796875;-0.09910794347524643;0.025980200618505478;0.009383381344377995
-0.002044677734375;-0.1451416015625;-1.0040740966796875;-0.09910794347524643;0.025980200618505478;0.009383381344377995
-0.00164794921875;-0.1405029296875;-1.00360107421875;-0.11569011211395264;0.02768781967461109;0.005904227960854769
-0.00164794921875;-0.1405029296875;-1.00360107421875;-0.11569011211395264;0.02768781967461109;0.005904227960854769
-0.00164794921875;-0.1405029296875;-1.00360107421875;-0.11569011211395264;0.02768781967461109;0.005904227960854769
-0.00164794921875;-0.1405029296875;-1.00360107421875;-0.11569011211395264;0.02768781967461109;0.005904227960854769
-0.00164794921875;-0.1405029296875;-1.00360107421875;-0.11569011211395264;0.02768781967461109;0.005904227960854769
-0.0018157958984375;-0.13555908203125;-1.012054443359375;-0.10640207678079605;0.013843643479049206;0.005531651899218559
-0.0018157958984375;-0.13555908203125;-1.012054443359375;-0.10640207678079605;0.013843643479049206;0.005531651899218559
-0.0018157958984375;-0.13555908203125;-1.012054443359375;-0.10640207678079605;0.013843643479049206;0.005531651899218559
-0.0018157958984375;-0.13555908203125;-1.012054443359375;-0.10640207678079605;0.013843643479049206;0.005531651899218559
-0.0018157958984375;-0.13555908203125;-1.012054443359375;-0.07612352818250656;0.003766775131225586;0.009486712515354156
-0.0004730224609375;-0.1296539306640625;-1.0239410400390625;-0.07612352818250656;0.003766775131225586;0.009486712515354156
-0.0004730224609375;-0.1296539306640625;-1.0239410400390625;-0.07612352818250656;0.003766775131225586;0.009486712515354156
-0.0004730224609375;-0.1296539306640625;-1.0239410400390625;-0.07612352818250656;0.003766775131225586;0.009486712515354156
-0.0004730224609375;-0.1296539306640625;-1.0239410400390625;-0.07612352818250656;0.003766775131225586;0.009486712515354156
-0.0004730224609375;-0.1296539306640625;-1.0239410400390625;-0.04941415414214134;-0.00039707732503302395;0.0068360683508217335
0.0008697509765625;-0.1251373291015625;-1.0274810791015625;-0.04941415414214134;-0.00039707732503302395;0.0068360683508217335
0.0008697509765625;-0.1251373291015625;-1.0274810791015625;-0.04941415414214134;-0.00039707732503302395;0.0068360683508217335
0.0008697509765625;-0.1251373291015625;-1.0274810791015625;-0.04941415414214134;-0.00039707732503302395;0.0068360683508217335
0.0008697509765625;-0.1251373291015625;-1.0274810791015625;-0.04941415414214134;-0.00039707732503302395;0.0068360683508217335
0.0008697509765625;-0.1251373291015625;-1.0274810791015625;-0.030309969559311867;0.009092831052839756;0.0059686764143407345
0.0020294189453125;-0.119171142578125;-1.02301025390625;-0.030309969559311867;0.009092831052839756;0.0059686764143407345
0.0020294189453125;-0.119171142578125;-1.02301025390625;-0.030309969559311867;0.009092831052839756;0.0059686764143407345
0.0020294189453125;-0.119171142578125;-1.02301025390625;-0.030309969559311867;0.009092831052839756;0.0059686764143407345
0.0020294189453125;-0.119171142578125;-1.02301025390625;-0.030309969559311867;0.009092831052839756;0.0059686764143407345
0.000640869140625;-0.1169586181640625;-1.0185089111328125;-0.0156527291983366;0.011084608733654022;0.004445881117135286
0.000640869140625;-0.1169586181640625;-1.0185089111328125;-0.0156527291983366;0.011084608733654022;0.004445881117135286
0.000640869140625;-0.1169586181640625;-1.0185089111328125;-0.0156527291983366;0.011084608733654022;0.004445881117135286
0.000640869140625;-0.1169586181640625;-1.0185089111328125;-0.0156527291983366;0.011084608733654022;0.004445881117135286
0.000640869140625;-0.1169586181640625;-1.0185089111328125;-0.0156527291983366;0.011084608733654022;0.004445881117135286
0.00048828125;-0.11480712890625;-1.0180816650390625;-0.0027276095934212208;0.006842193193733692;0.0076057217083871365
0.00048828125;-0.11480712890625;-1.0180816650390625;-0.0027276095934212208;0.006842193193733692;0.0076057217083871365
0.00048828125;-0.11480712890625;-1.0180816650390625;-0.0027276095934212208;0.006842193193733692;0.0076057217083871365
0.00048828125;-0.11480712890625;-1.0180816650390625;-0.0027276095934212208;0.006842193193733692;0.0076057217083871365
0.00048828125;-0.11480712890625;-1.0180816650390625;-0.0027276095934212208;0.006842193193733692;0.0076057217083871365
0.00311279296875;-0.1147613525390625;-1.0190887451171875;0.003519367426633835;0.005089833401143551;0.008011853322386742
0.00311279296875;-0.1147613525390625;-1.0190887451171875;0.003519367426633835;0.005089833401143551;0.008011853322386742
0.00311279296875;-0.1147613525390625;-1.0190887451171875;0.003519367426633835;0.005089833401143551;0.008011853322386742
0.00311279296875;-0.1147613525390625;-1.0190887451171875;0.003519367426633835;0.005089833401143551;0.008011853322386742
0.00311279296875;-0.1147613525390625;-1.0190887451171875;0.003519367426633835;0.005089833401143551;0.008011853322386742
0.004669189453125;-0.1182403564453125;-1.019256591796875;0.011974637396633625;-0.0030333404429256916;0.011937352828681469
0.004669189453125;-0.1182403564453125;-1.019256591796875;0.011974637396633625;-0.0030333404429256916;0.011937352828681469
0.004669189453125;-0.1182403564453125;-1.019256591796875;0.011974637396633625;-0.0030333404429256916;0.011937352828681469
0.004669189453125;-0.1182403564453125;-1.019256591796875;0.011974637396633625;-0.0030333404429256916;0.011937352828681469
0.004669189453125;-0.1182403564453125;-1.019256591796875;0.011974637396633625;-0.0030333404429256916;0.011937352828681469
0.0038909912109375;-0.1223602294921875;-1.0169830322265625;0.014642592519521713;-0.006333529483526945;0.01110618095844984
0.0038909912109375;-0.1223602294921875;-1.0169830322265625;0.014642592519521713;-0.006333529483526945;0.01110618095844984
0.0038909912109375;-0.1223602294921875;-1.0169830322265625;0.014642592519521713;-0.006333529483526945;0.01110618095844984
0.0038909912109375;-0.1223602294921875;-1.0169830322265625;0.014642592519521713;-0.006333529483526945;0.01110618095844984
0.0038909912109375;-0.1223602294921875;-1.0169830322265625;0.014642592519521713;-0.006333529483526945;0.01110618095844984
0.005279541015625;-0.126190185546875;-1.0157318115234375;0.011440141126513481;-0.010147974826395512;0.014635668136179447
0.005279541015625;-0.126190185546875;-1.0157318115234375;0.011440141126513481;-0.010147974826395512;0.014635668136179447
0.005279541015625;-0.126190185546875;-1.0157318115234375;0.011440141126513481;-0.010147974826395512;0.014635668136179447
0.005279541015625;-0.126190185546875;-1.0157318115234375;0.011440141126513481;-0.010147974826395512;0.014635668136179447
0.005279541015625;-0.126190185546875;-1.0157318115234375;0.011440141126513481;-0.010147974826395512;0.014635668136179447
0.00537109375;-0.12835693359375;-1.01318359375;0.0014650048688054085;-0.010489125736057758;0.01678617112338543
0.00537109375;-0.12835693359375;-1.01318359375;0.0014650048688054085;-0.010489125736057758;0.01678617112338543
0.00537109375;-0.12835693359375;-1.01318359375;0.0014650048688054085;-0.010489125736057758;0.01678617112338543
0.00537109375;-0.12835693359375;-1.01318359375;0.0014650048688054085;-0.010489125736057758;0.01678617112338543
0.00537109375;-0.12835693359375;-1.01318359375;0.0014650048688054085;-0.010489125736057758;0.01678617112338543
0.00408935546875;-0.13067626953125;-1.0133056640625;-0.010359696112573147;-0.012655341066420078;0.014994395896792412
0.00408935546875;-0.13067626953125;-1.0133056640625;-0.010359696112573147;-0.012655341066420078;0.014994395896792412
0.00408935546875;-0.13067626953125;-1.0133056640625;-0.010359696112573147;-0.012655341066420078;0.014994395896792412
0.00408935546875;-0.13067626953125;-1.0133056640625;-0.010359696112573147;-0.012655341066420078;0.014994395896792412
0.00408935546875;-0.13067626953125;-1.0133056640625;-0.010359696112573147;-0.012655341066420078;0.014994395896792412
0.0045318603515625;-0.131256103515625;-1.0094451904296875;-0.02329546958208084;-0.010114152915775776;0.014357101172208786
0.0045318603515625;-0.131256103515625;-1.0094451904296875;-0.02329546958208084;-0.010114152915775776;0.014357101172208786
0.0045318603515625;-0.131256103515625;-1.0094451904296875;-0.02329546958208084;-0.010114152915775776;0.014357101172208786
0.0045318603515625;-0.131256103515625;-1.0094451904296875;-0.02329546958208084;-0.010114152915775776;0.014357101172208786
0.0045318603515625;-0.131256103515625;-1.0094451904296875;-0.02329546958208084;-0.010114152915775776;0.014357101172208786
0.0041656494140625;-0.1314239501953125;-1.0059814453125;-0.04039695858955383;-0.006488259416073561;0.02189677581191063
0.0041656494140625;-0.1314239501953125;-1.0059814453125;-0.04039695858955383;-0.006488259416073561;0.02189677581191063
0.0041656494140625;-0.1314239501953125;-1.0059814453125;-0.04039695858955383;-0.006488259416073561;0.02189677581191063
0.0041656494140625;-0.1314239501953125;-1.0059814453125;-0.04039695858955383;-0.006488259416073561;0.02189677581191063
0.0041656494140625;-0.1314239501953125;-1.0059814453125;-0.04039695858955383;-0.006488259416073561;0.02189677581191063
0.00445556640625;-0.1307373046875;-1.003936767578125;-0.055817458778619766;-0.00227913330309093;0.020728981122374535
0.00445556640625;-0.1307373046875;-1.003936767578125;-0.055817458778619766;-0.00227913330309093;0.020728981122374535
0.00445556640625;-0.1307373046875;-1.003936767578125;-0.055817458778619766;-0.00227913330309093;0.020728981122374535
0.00445556640625;-0.1307373046875;-1.003936767578125;-0.055817458778619766;-0.00227913330309093;0.020728981122374535
0.00445556640625;-0.1307373046875;-1.003936767578125;-0.055817458778619766;-0.00227913330309093;0.020728981122374535
0.0024566650390625;-0.1268463134765625;-1.00164794921875;-0.06681844592094421;0.0025659557431936264;0.016405871137976646
0.0024566650390625;-0.1268463134765625;-1.00164794921875;-0.06681844592094421;0.0025659557431936264;0.016405871137976646
0.0024566650390625;-0.1268463134765625;-1.00164794921875;-0.06681844592094421;0.0025659557431936264;0.016405871137976646
0.0024566650390625;-0.1268463134765625;-1.00164794921875;-0.06681844592094421;0.0025659557431936264;0.016405871137976646
0.0024566650390625;-0.1268463134765625;-1.00164794921875;-0.06681844592094421;0.0025659557431936264;0.016405871137976646
0.003509521484375;-0.12371826171875;-1.0006866455078125;-0.07193570584058762;0.004976116586476564;0.01575632579624653
0.003509521484375;-0.12371826171875;-1.0006866455078125;-0.07193570584058762;0.004976116586476564;0.01575632579624653
0.003509521484375;-0.12371826171875;-1.0006866455078125;-0.07193570584058762;0.004976116586476564;0.01575632579624653
0.003509521484375;-0.12371826171875;-1.0006866455078125;-0.07193570584058762;0.004976116586476564;0.01575632579624653
0.003509521484375;-0.12371826171875;-1.0006866455078125;-0.07193570584058762;0.004976116586476564;0.01575632579624653
0.002593994140625;-0.121337890625;-1.0029449462890625;-0.07215062528848648;0.0031007183715701103;0.016218118369579315
0.002593994140625;-0.121337890625;-1.0029449462890625;-0.07215062528848648;0.0031007183715701103;0.016218118369579315
0.002593994140625;-0.121337890625;-1.0029449462890625;-0.07215062528848648;0.0031007183715701103;0.016218118369579315
0.002593994140625;-0.121337890625;-1.0029449462890625;-0.07215062528848648;0.0031007183715701103;0.016218118369579315
0.002593994140625;-0.121337890625;-1.0029449462890625;-0.07215062528848648;0.0031007183715701103;0.016218118369579315
0.001373291015625;-0.1199951171875;-1.0093994140625;-0.06224393472075462;-0.0059713395312428474;0.010431335307657719
0.001373291015625;-0.1199951171875;-1.0093994140625;-0.06224393472075462;-0.0059713395312428474;0.010431335307657719
0.001373291015625;-0.1199951171875;-1.0093994140625;-0.06224393472075462;-0.0059713395312428474;0.010431335307657719
0.001373291015625;-0.1199951171875;-1.0093994140625;-0.06224393472075462;-0.0059713395312428474;0.010431335307657719
0.001373291015625;-0.1199951171875;-1.0093994140625;-0.06224393472075462;-0.0059713395312428474;0.010431335307657719
0.002410888671875;-0.1179962158203125;-1.0132904052734375;-0.049677006900310516;-0.005440305452793837;0.013952034525573254
0.002410888671875;-0.1179962158203125;-1.0132904052734375;-0.049677006900310516;-0.005440305452793837;0.013952034525573254
0.002410888671875;-0.1179962158203125;-1.0132904052734375;-0.049677006900310516;-0.005440305452793837;0.013952034525573254
0.002410888671875;-0.1179962158203125;-1.0132904052734375;-0.049677006900310516;-0.005440305452793837;0.013952034525573254
0.002410888671875;-0.1179962158203125;-1.0132904052734375;-0.049677006900310516;-0.005440305452793837;0.013952034525573254
0.0034332275390625;-0.1152496337890625;-1.0081329345703125;-0.04334081709384918;0.0035444011446088552;0.014346182346343994
0.0034332275390625;-0.1152496337890625;-1.0081329345703125;-0.04334081709384918;0.0035444011446088552;0.014346182346343994
0.0034332275390625;-0.1152496337890625;-1.0081329345703125;-0.04334081709384918;0.0035444011446088552;0.014346182346343994
0.0034332275390625;-0.1152496337890625;-1.0081329345703125;-0.04334081709384918;0.0035444011446088552;0.014346182346343994
0.0034332275390625;-0.1152496337890625;-1.0081329345703125;-0.04334081709384918;0.0035444011446088552;0.014346182346343994
0.00091552734375;-0.1124114990234375;-1.004638671875;-0.03690555319190025;0.005937517620623112;0.012679309584200382
0.00091552734375;-0.1124114990234375;-1.004638671875;-0.03690555319190025;0.005937517620623112;0.012679309584200382
0.00091552734375;-0.1124114990234375;-1.004638671875;-0.03690555319190025;0.005937517620623112;0.012679309584200382
0.00091552734375;-0.1124114990234375;-1.004638671875;-0.03690555319190025;0.005937517620623112;0.012679309584200382
0.00091552734375;-0.1124114990234375;-1.004638671875;-0.03690555319190025;0.005937517620623112;0.012679309584200382
-0.0020294189453125;-0.1139984130859375;-1.0076751708984375;-0.04031120240688324;-0.0011044129496440291;0.009768741205334663
-0.0020294189453125;-0.1139984130859375;-1.0076751708984375;-0.04031120240688324;-0.0011044129496440291;0.009768741205334663
-0.0020294189453125;-0.1139984130859375;-1.0076751708984375;-0.04031120240688324;-0.0011044129496440291;0.009768741205334663
-0.0020294189453125;-0.1139984130859375;-1.0076751708984375;-0.04031120240688324;-0.0011044129496440291;0.009768741205334663
-0.0020294189453125;-0.1139984130859375;-1.0076751708984375;-0.04031120240688324;-0.0011044129496440291;0.009768741205334663
-0.0015716552734375;-0.1151123046875;-1.010101318359375;-0.050338272005319595;-0.006869623903185129;0.011665711179375648
-0.0015716552734375;-0.1151123046875;-1.010101318359375;-0.050338272005319595;-0.006869623903185129;0.011665711179375648
-0.0015716552734375;-0.1151123046875;-1.010101318359375;-0.050338272005319595;-0.006869623903185129;0.011665711179375648
-0.0015716552734375;-0.1151123046875;-1.010101318359375;-0.050338272005319595;-0.006869623903185129;0.011665711179375648
-0.0015716552734375;-0.1151123046875;-1.010101318359375;-0.050338272005319595;-0.006869623903185129;0.011665711179375648
-0.0021514892578125;-0.11431884765625;-1.0102691650390625;-0.059967994689941406;-0.00851492490619421;0.010748784057796001
-0.0021514892578125;-0.11431884765625;-1.0102691650390625;-0.059967994689941406;-0.00851492490619421;0.010748784057796001
-0.0021514892578125;-0.11431884765625;-1.0102691650390625;-0.059967994689941406;-0.00851492490619421;0.010748784057796001
-0.0021514892578125;-0.11431884765625;-1.0102691650390625;-0.059967994689941406;-0.00851492490619421;0.010748784057796001
-0.0021514892578125;-0.11431884765625;-1.0102691650390625;-0.059967994689941406;-0.00851492490619421;0.010748784057796001
-0.0017242431640625;-0.114471435546875;-1.0103759765625;-0.06489058583974838;-0.011271563358604908;0.009513077326118946
-0.0017242431640625;-0.114471435546875;-1.0103759765625;-0.06489058583974838;-0.011271563358604908;0.009513077326118946
-0.0017242431640625;-0.114471435546875;-1.0103759765625;-0.06489058583974838;-0.011271563358604908;0.009513077326118946
-0.0017242431640625;-0.114471435546875;-1.0103759765625;-0.06489058583974838;-0.011271563358604908;0.009513077326118946
-0.0017242431640625;-0.114471435546875;-1.0103759765625;-0.06489058583974838;-0.011271563358604908;0.009513077326118946
-0.0019378662109375;-0.11328125;-1.0115203857421875;-0.06368523836135864;-0.008143147453665733;0.007154848426580429
-0.0019378662109375;-0.11328125;-1.0115203857421875;-0.06368523836135864;-0.008143147453665733;0.007154848426580429
-0.0019378662109375;-0.11328125;-1.0115203857421875;-0.06368523836135864;-0.008143147453665733;0.007154848426580429
-0.0019378662109375;-0.11328125;-1.0115203857421875;-0.06368523836135864;-0.008143147453665733;0.007154848426580429
-0.0019378662109375;-0.11328125;-1.0115203857421875;-0.06368523836135864;-0.008143147453665733;0.007154848426580429
-0.00140380859375;-0.1126861572265625;-1.0138092041015625;-0.058148257434368134;-0.0032431974541395903;0.0082115912809968
-0.00140380859375;-0.1126861572265625;-1.0138092041015625;-0.058148257434368134;-0.0032431974541395903;0.0082115912809968
-0.00140380859375;-0.1126861572265625;-1.0138092041015625;-0.058148257434368134;-0.0032431974541395903;0.0082115912809968
-0.00140380859375;-0.1126861572265625;-1.0138092041015625;-0.058148257434368134;-0.0032431974541395903;0.0082115912809968
-0.00140380859375;-0.1126861572265625;-1.0138092041015625;-0.058148257434368134;-0.0032431974541395903;0.0082115912809968
-4.57763671875e-05;-0.1135406494140625;-1.0142364501953125;-0.05657193437218666;0.002174737397581339;0.0051713259890675545
-4.57763671875e-05;-0.1135406494140625;-1.0142364501953125;-0.05657193437218666;0.002174737397581339;0.0051713259890675545
-4.57763671875e-05;-0.1135406494140625;-1.0142364501953125;-0.05657193437218666;0.002174737397581339;0.0051713259890675545
-4.57763671875e-05;-0.1135406494140625;-1.0142364501953125;-0.05657193437218666;0.002174737397581339;0.0051713259890675545
-4.57763671875e-05;-0.1135406494140625;-1.0142364501953125;-0.05657193437218666;0.002174737397581339;0.0051713259890675545
0.0009613037109375;-0.1135406494140625;-1.0131988525390625;-0.05879540741443634;0.008901349268853664;0.0068120998330414295
0.0009613037109375;-0.1135406494140625;-1.0131988525390625;-0.05879540741443634;0.008901349268853664;0.0068120998330414295
0.0009613037109375;-0.1135406494140625;-1.0131988525390625;-0.05879540741443634;0.008901349268853664;0.0068120998330414295
0.0009613037109375;-0.1135406494140625;-1.0131988525390625;-0.05879540741443634;0.008901349268853664;0.0068120998330414295
0.0009613037109375;-0.1135406494140625;-1.0131988525390625;-0.05879540741443634;0.008901349268853664;0.0068120998330414295
0.0020599365234375;-0.11260986328125;-1.0136566162109375;-0.053285591304302216;0.009072057902812958;0.007245662156492472
0.0020599365234375;-0.11260986328125;-1.0136566162109375;-0.053285591304302216;0.009072057902812958;0.007245662156492472
0.0020599365234375;-0.11260986328125;-1.0136566162109375;-0.053285591304302216;0.009072057902812958;0.007245662156492472
0.0020599365234375;-0.11260986328125;-1.0136566162109375;-0.053285591304302216;0.009072057902812958;0.007245662156492472
0.0020599365234375;-0.11260986328125;-1.0136566162109375;-0.053285591304302216;0.009072057902812958;0.007245662156492472
0.004669189453125;-0.110137939453125;-1.0144195556640625;-0.04733875393867493;0.008379369974136353;0.008501608856022358
0.004669189453125;-0.110137939453125;-1.0144195556640625;-0.04733875393867493;0.008379369974136353;0.008501608856022358
0.004669189453125;-0.110137939453125;-1.0144195556640625;-0.04733875393867493;0.008379369974136353;0.008501608856022358
0.004669189453125;-0.110137939453125;-1.0144195556640625;-0.04733875393867493;0.008379369974136353;0.008501608856022358
0.004669189453125;-0.110137939453125;-1.0144195556640625;-0.04733875393867493;0.008379369974136353;0.008501608856022358
0.004547119140625;-0.1112823486328125;-1.014007568359375;-0.04382551088929176;0.008436361327767372;0.005857889074832201
0.004547119140625;-0.1112823486328125;-1.014007568359375;-0.04382551088929176;0.008436361327767372;0.005857889074832201
0.004547119140625;-0.1112823486328125;-1.014007568359375;-0.04382551088929176;0.008436361327767372;0.005857889074832201
0.004547119140625;-0.1112823486328125;-1.014007568359375;-0.04382551088929176;0.008436361327767372;0.005857889074832201
0.004547119140625;-0.1112823486328125;-1.014007568359375;-0.04382551088929176;0.008436361327767372;0.005857889074832201
0.004302978515625;-0.1124420166015625;-1.0142974853515625;-0.0366983599960804;0.006824882701039314;0.00586587842553854
0.004302978515625;-0.1124420166015625;-1.0142974853515625;-0.0366983599960804;0.006824882701039314;0.00586587842553854
0.004302978515625;-0.1124420166015625;-1.0142974853515625;-0.0366983599960804;0.006824882701039314;0.00586587842553854
0.004302978515625;-0.1124420166015625;-1.0142974853515625;-0.0366983599960804;0.006824882701039314;0.00586587842553854
0.004302978515625;-0.1124420166015625;-1.0142974853515625;-0.0366983599960804;0.006824882701039314;0.00586587842553854
0.0038909912109375;-0.1126861572265625;-1.0153656005859375;-0.0356203131377697;0.006738862954080105;0.007468569092452526
0.0038909912109375;-0.1126861572265625;-1.0153656005859375;-0.0356203131377697;0.006738862954080105;0.007468569092452526
0.0038909912109375;-0.1126861572265625;-1.0153656005859375;-0.0356203131377697;0.006738862954080105;0.007468569092452526
0.0038909912109375;-0.1126861572265625;-1.0153656005859375;-0.0356203131377697;0.006738862954080105;0.007468569092452526
0.0038909912109375;-0.1126861572265625;-1.0153656005859375;-0.0356203131377697;0.006738862954080105;0.007468569092452526
0.0042266845703125;-0.1123809814453125;-1.014801025390625;-0.03274889290332794;0.00697774812579155;0.007951932959258556
0.0042266845703125;-0.1123809814453125;-1.014801025390625;-0.03274889290332794;0.00697774812579155;0.007951932959258556
0.0042266845703125;-0.1123809814453125;-1.014801025390625;-0.03274889290332794;0.00697774812579155;0.007951932959258556
0.0042266845703125;-0.1123809814453125;-1.014801025390625;-0.03274889290332794;0.00697774812579155;0.007951932959258556
0.0042266845703125;-0.1123809814453125;-1.014801025390625;-0.03274889290332794;0.00697774812579155;0.007951932959258556
0.0032196044921875;-0.1126861572265625;-1.0141754150390625;-0.028135497123003006;0.003856257302686572;0.00740119069814682
0.0032196044921875;-0.1126861572265625;-1.0141754150390625;-0.028135497123003006;0.003856257302686572;0.00740119069814682
0.0032196044921875;-0.1126861572265625;-1.0141754150390625;-0.028135497123003006;0.003856257302686572;0.00740119069814682
0.0032196044921875;-0.1126861572265625;-1.0141754150390625;-0.028135497123003006;0.003856257302686572;0.00740119069814682
0.0032196044921875;-0.1126861572265625;-1.0141754150390625;-0.028135497123003006;0.003856257302686572;0.00740119069814682
0.0026702880859375;-0.1143798828125;-1.0128173828125;-0.033069003373384476;0.0028189560398459435;0.005633384454995394
0.0026702880859375;-0.1143798828125;-1.0128173828125;-0.033069003373384476;0.0028189560398459435;0.005633384454995394
0.0026702880859375;-0.1143798828125;-1.0128173828125;-0.033069003373384476;0.0028189560398459435;0.005633384454995394
0.0026702880859375;-0.1143798828125;-1.0128173828125;-0.033069003373384476;0.0028189560398459435;0.005633384454995394
0.0026702880859375;-0.1143798828125;-1.0128173828125;-0.033069003373384476;0.0028189560398459435;0.005633384454995394
0.0029296875;-0.1152191162109375;-1.01318359375;-0.04114583879709244;0.00632048025727272;0.004151601810008287
0.0029296875;-0.1152191162109375;-1.01318359375;-0.04114583879709244;0.00632048025727272;0.004151601810008287
0.0029296875;-0.1152191162109375;-1.01318359375;-0.04114583879709244;0.00632048025727272;0.004151601810008287
0.0029296875;-0.1152191162109375;-1.01318359375;-0.04114583879709244;0.00632048025727272;0.004151601810008287
0.0029296875;-0.1152191162109375;-1.01318359375;-0.04114583879709244;0.00632048025727272;0.004151601810008287
0.0026702880859375;-0.113983154296875;-1.0108489990234375;-0.046956323087215424;0.007111705373972654;0.005122057627886534
0.0026702880859375;-0.113983154296875;-1.0108489990234375;-0.046956323087215424;0.007111705373972654;0.005122057627886534
0.0026702880859375;-0.113983154296875;-1.0108489990234375;-0.046956323087215424;0.007111705373972654;0.005122057627886534
0.0026702880859375;-0.113983154296875;-1.0108489990234375;-0.046956323087215424;0.007111705373972654;0.005122057627886534
0.0026702880859375;-0.113983154296875;-1.0108489990234375;-0.046956323087215424;0.007111705373972654;0.005122057627886534
0.003509521484375;-0.11407470703125;-1.0106048583984375;-0.05697327107191086;0.010570885613560677;0.005441637244075537
0.003509521484375;-0.11407470703125;-1.0106048583984375;-0.05697327107191086;0.010570885613560677;0.005441637244075537
0.003509521484375;-0.11407470703125;-1.0106048583984375;-0.05697327107191086;0.010570885613560677;0.005441637244075537
0.003509521484375;-0.11407470703125;-1.0106048583984375;-0.05697327107191086;0.010570885613560677;0.005441637244075537
0.003509521484375;-0.11407470703125;-1.0106048583984375;-0.05697327107191086;0.010570885613560677;0.005441637244075537
0.003631591796875;-0.1123504638671875;-1.00982666015625;-0.06430388987064362;0.00956820510327816;0.004782504867762327
0.003631591796875;-0.1123504638671875;-1.00982666015625;-0.06430388987064362;0.00956820510327816;0.004782504867762327
0.003631591796875;-0.1123504638671875;-1.00982666015625;-0.06430388987064362;0.00956820510327816;0.004782504867762327
0.003631591796875;-0.1123504638671875;-1.00982666015625;-0.06430388987064362;0.00956820510327816;0.004782504867762327
0.003631591796875;-0.1123504638671875;-1.00982666015625;-0.06509751081466675;0.002834934974089265;0.0041401502676308155
0.0023040771484375;-0.11248779296875;-1.01202392578125;-0.06509751081466675;0.002834934974089265;0.0041401502676308155
0.0023040771484375;-0.11248779296875;-1.01202392578125;-0.06509751081466675;0.002834934974089265;0.0041401502676308155
0.0023040771484375;-0.11248779296875;-1.01202392578125;-0.06509751081466675;0.002834934974089265;0.0041401502676308155
0.0023040771484375;-0.11248779296875;-1.01202392578125;-0.06509751081466675;0.002834934974089265;0.0041401502676308155
0.0023040771484375;-0.11248779296875;-1.01202392578125;-0.06509751081466675;0.002834934974089265;0.0041401502676308155
0.0012969970703125;-0.1128082275390625;-1.0157012939453125;-0.05204296112060547;-0.004077832214534283;0.007871504873037338
0.0012969970703125;-0.1128082275390625;-1.0157012939453125;-0.05204296112060547;-0.004077832214534283;0.007871504873037338
0.0012969970703125;-0.1128082275390625;-1.0157012939453125;-0.05204296112060547;-0.004077832214534283;0.007871504873037338
0.0012969970703125;-0.1128082275390625;-1.0157012939453125;-0.05204296112060547;-0.004077832214534283;0.007871504873037338
0.0012969970703125;-0.1128082275390625;-1.0157012939453125;-0.05204296112060547;-0.004077832214534283;0.007871504873037338
0.00128173828125;-0.1118011474609375;-1.0177154541015625;-0.04922560229897499;-0.006144711747765541;0.009259277954697609
0.00128173828125;-0.1118011474609375;-1.0177154541015625;-0.04922560229897499;-0.006144711747765541;0.009259277954697609
0.00128173828125;-0.1118011474609375;-1.0177154541015625;-0.04922560229897499;-0.006144711747765541;0.009259277954697609
0.00128173828125;-0.1118011474609375;-1.0177154541015625;-0.04922560229897499;-0.006144711747765541;0.009259277954697609
0.00128173828125;-0.1118011474609375;-1.0177154541015625;-0.049555834382772446;0.0006652576266787946;0.010775149799883366
0.00048828125;-0.109130859375;-1.0143585205078125;-0.049555834382772446;0.0006652576266787946;0.010775149799883366
0.00048828125;-0.109130859375;-1.0143585205078125;-0.049555834382772446;0.0006652576266787946;0.010775149799883366
0.00048828125;-0.109130859375;-1.0143585205078125;-0.049555834382772446;0.0006652576266787946;0.010775149799883366
0.00048828125;-0.109130859375;-1.0143585205078125;-0.049555834382772446;0.0006652576266787946;0.010775149799883366
7.62939453125e-05;-0.1085357666015625;-1.0110321044921875;-0.049492716789245605;0.003867176128551364;0.011155448853969574
7.62939453125e-05;-0.1085357666015625;-1.0110321044921875;-0.049492716789245605;0.003867176128551364;0.011155448853969574
7.62939453125e-05;-0.1085357666015625;-1.0110321044921875;-0.049492716789245605;0.003867176128551364;0.011155448853969574
7.62939453125e-05;-0.1085357666015625;-1.0110321044921875;-0.049492716789245605;0.003867176128551364;0.011155448853969574
7.62939453125e-05;-0.1085357666015625;-1.0110321044921875;-0.049492716789245605;0.003867176128551364;0.011155448853969574
7.62939453125e-05;-0.1085357666015625;-1.0110321044921875;-0.050454918295145035;0.006322344299405813;0.013096360489726067
-0.0006561279296875;-0.107452392578125;-1.0102081298828125;-0.050454918295145035;0.006322344299405813;0.013096360489726067
-0.0006561279296875;-0.107452392578125;-1.0102081298828125;-0.050454918295145035;0.006322344299405813;0.013096360489726067
-0.0006561279296875;-0.107452392578125;-1.0102081298828125;-0.050454918295145035;0.006322344299405813;0.013096360489726067
-0.0006561279296875;-0.107452392578125;-1.0102081298828125;-0.050454918295145035;0.006322344299405813;0.013096360489726067
0.0009765625;-0.10601806640625;-1.0079345703125;-0.05633597820997238;0.0029963224660605192;0.014502243138849735
0.0009765625;-0.10601806640625;-1.0079345703125;-0.05633597820997238;0.0029963224660605192;0.014502243138849735
0.0009765625;-0.10601806640625;-1.0079345703125;-0.05633597820997238;0.0029963224660605192;0.014502243138849735
0.0009765625;-0.10601806640625;-1.0079345703125;-0.05633597820997238;0.0029963224660605192;0.014502243138849735
0.0009765625;-0.10601806640625;-1.0079345703125;-0.05633597820997238;0.0029963224660605192;0.014502243138849735
0.0009765625;-0.10601806640625;-1.0079345703125;-0.053031258285045624;0.005131645128130913;0.013131247833371162
0.0028533935546875;-0.104888916015625;-1.0068206787109375;-0.053031258285045624;0.005131645128130913;0.013131247833371162
0.0028533935546875;-0.104888916015625;-1.0068206787109375;-0.053031258285045624;0.005131645128130913;0.013131247833371162
0.0028533935546875;-0.104888916015625;-1.0068206787109375;-0.053031258285045624;0.005131645128130913;0.013131247833371162
0.0028533935546875;-0.104888916015625;-1.0068206787109375;-0.053031258285045624;0.005131645128130913;0.013131247833371162
0.0027923583984375;-0.1027069091796875;-1.0057830810546875;-0.0491102896630764;0.013116068206727505;0.013585849665105343
0.0027923583984375;-0.1027069091796875;-1.0057830810546875;-0.0491102896630764;0.013116068206727505;0.013585849665105343
0.0027923583984375;-0.1027069091796875;-1.0057830810546875;-0.0491102896630764;0.013116068206727505;0.013585849665105343
0.0027923583984375;-0.1027069091796875;-1.0057830810546875;-0.0491102896630764;0.013116068206727505;0.013585849665105343
0.0027923583984375;-0.1027069091796875;-1.0057830810546875;-0.0491102896630764;0.013116068206727505;0.013585849665105343
0.0012054443359375;-0.10003662109375;-1.0076904296875;-0.036863476037979126;0.019703131169080734;0.015087606385350227
0.0012054443359375;-0.10003662109375;-1.0076904296875;-0.036863476037979126;0.019703131169080734;0.015087606385350227
0.0012054443359375;-0.10003662109375;-1.0076904296875;-0.036863476037979126;0.019703131169080734;0.015087606385350227
0.0012054443359375;-0.10003662109375;-1.0076904296875;-0.036863476037979126;0.019703131169080734;0.015087606385350227
0.0012054443359375;-0.10003662109375;-1.0076904296875;-0.036863476037979126;0.019703131169080734;0.015087606385350227
0.0023651123046875;-0.100677490234375;-1.013214111328125;-0.02719992958009243;0.01871643029153347;0.010127735324203968
0.0023651123046875;-0.100677490234375;-1.013214111328125;-0.02719992958009243;0.01871643029153347;0.010127735324203968
0.0023651123046875;-0.100677490234375;-1.013214111328125;-0.02719992958009243;0.01871643029153347;0.010127735324203968
0.0023651123046875;-0.100677490234375;-1.013214111328125;-0.02719992958009243;0.01871643029153347;0.010127735324203968
0.0023651123046875;-0.100677490234375;-1.013214111328125;-0.02719992958009243;0.01871643029153347;0.010127735324203968
0.00225830078125;-0.1005401611328125;-1.0151519775390625;-0.019042933359742165;0.017116136848926544;0.00785818975418806
0.00225830078125;-0.1005401611328125;-1.0151519775390625;-0.019042933359742165;0.017116136848926544;0.00785818975418806
0.00225830078125;-0.1005401611328125;-1.0151519775390625;-0.019042933359742165;0.017116136848926544;0.00785818975418806
0.00225830078125;-0.1005401611328125;-1.0151519775390625;-0.019042933359742165;0.017116136848926544;0.00785818975418806
0.00225830078125;-0.1005401611328125;-1.0151519775390625;-0.019042933359742165;0.017116136848926544;0.00785818975418806
0.0013885498046875;-0.1016845703125;-1.0155487060546875;-0.015415707603096962;0.00942279677838087;0.007863249629735947
0.0013885498046875;-0.1016845703125;-1.0155487060546875;-0.015415707603096962;0.00942279677838087;0.007863249629735947
0.0013885498046875;-0.1016845703125;-1.0155487060546875;-0.015415707603096962;0.00942279677838087;0.007863249629735947
0.0013885498046875;-0.1016845703125;-1.0155487060546875;-0.015415707603096962;0.00942279677838087;0.007863249629735947
0.0013885498046875;-0.1016845703125;-1.0155487060546875;-0.015415707603096962;0.00942279677838087;0.007863249629735947
0.0013885498046875;-0.1016845703125;-1.0155487060546875;-0.021754829213023186;0.0034402713645249605;0.006329535041004419
0.0013885498046875;-0.10467529296875;-1.017181396484375;-0.021754829213023186;0.0034402713645249605;0.006329535041004419
0.0013885498046875;-0.10467529296875;-1.017181396484375;-0.021754829213023186;0.0034402713645249605;0.006329535041004419
0.0013885498046875;-0.10467529296875;-1.017181396484375;-0.021754829213023186;0.0034402713645249605;0.006329535041004419
0.0013885498046875;-0.10467529296875;-1.017181396484375;-0.021754829213023186;0.0034402713645249605;0.006329535041004419
0.00238037109375;-0.10595703125;-1.01910400390625;-0.028445223346352577;0.0016626114957034588;0.005537244491279125
0.00238037109375;-0.10595703125;-1.01910400390625;-0.028445223346352577;0.0016626114957034588;0.005537244491279125
0.00238037109375;-0.10595703125;-1.01910400390625;-0.028445223346352577;0.0016626114957034588;0.005537244491279125
0.00238037109375;-0.10595703125;-1.01910400390625;-0.028445223346352577;0.0016626114957034588;0.005537244491279125
0.00238037109375;-0.10595703125;-1.01910400390625;-0.028445223346352577;0.0016626114957034588;0.005537244491279125
0.0038909912109375;-0.1057891845703125;-1.0170135498046875;-0.04342763498425484;0.006908772513270378;0.009660882875323296
0.0038909912109375;-0.1057891845703125;-1.0170135498046875;-0.04342763498425484;0.006908772513270378;0.009660882875323296
0.0038909912109375;-0.1057891845703125;-1.0170135498046875;-0.04342763498425484;0.006908772513270378;0.009660882875323296
0.0038909912109375;-0.1057891845703125;-1.0170135498046875;-0.04342763498425484;0.006908772513270378;0.009660882875323296
0.0038909912109375;-0.1057891845703125;-1.0170135498046875;-0.04342763498425484;0.006908772513270378;0.009660882875323296
0.005584716796875;-0.10577392578125;-1.00604248046875;-0.06309428066015244;0.02190050482749939;0.012534700334072113
0.005584716796875;-0.10577392578125;-1.00604248046875;-0.06309428066015244;0.02190050482749939;0.012534700334072113
0.005584716796875;-0.10577392578125;-1.00604248046875;-0.06309428066015244;0.02190050482749939;0.012534700334072113
0.005584716796875;-0.10577392578125;-1.00604248046875;-0.06309428066015244;0.02190050482749939;0.012534700334072113
0.005584716796875;-0.10577392578125;-1.00604248046875;-0.06309428066015244;0.02190050482749939;0.012534700334072113
0.007232666015625;-0.10296630859375;-0.98876953125;-0.08718230575323105;0.0422542467713356;0.012809538282454014
0.007232666015625;-0.10296630859375;-0.98876953125;-0.08718230575323105;0.0422542467713356;0.012809538282454014
0.007232666015625;-0.10296630859375;-0.98876953125;-0.08718230575323105;0.0422542467713356;0.012809538282454014
0.007232666015625;-0.10296630859375;-0.98876953125;-0.08718230575323105;0.0422542467713356;0.012809538282454014
0.007232666015625;-0.10296630859375;-0.98876953125;-0.08718230575323105;0.0422542467713356;0.012809538282454014
0.0046234130859375;-0.1034393310546875;-0.9947357177734375;-0.08763238042593002;0.022707443684339523;0.013280651532113552
0.0046234130859375;-0.1034393310546875;-0.9947357177734375;-0.08763238042593002;0.022707443684339523;0.013280651532113552
0.0046234130859375;-0.1034393310546875;-0.9947357177734375;-0.08763238042593002;0.022707443684339523;0.013280651532113552
0.0046234130859375;-0.1034393310546875;-0.9947357177734375;-0.08763238042593002;0.022707443684339523;0.013280651532113552
0.0046234130859375;-0.1034393310546875;-0.9947357177734375;-0.08763238042593002;0.022707443684339523;0.013280651532113552
0.000579833984375;-0.1021270751953125;-1.0270538330078125;-0.06580431014299393;-0.022237660363316536;0.016322514042258263
0.000579833984375;-0.1021270751953125;-1.0270538330078125;-0.06580431014299393;-0.022237660363316536;0.016322514042258263
0.000579833984375;-0.1021270751953125;-1.0270538330078125;-0.06580431014299393;-0.022237660363316536;0.016322514042258263
0.000579833984375;-0.1021270751953125;-1.0270538330078125;-0.06580431014299393;-0.022237660363316536;0.016322514042258263
0.000579833984375;-0.1021270751953125;-1.0270538330078125;-0.06580431014299393;-0.022237660363316536;0.016322514042258263
0.00494384765625;-0.0941314697265625;-1.038848876953125;-0.040343161672353745;-0.04825940728187561;0.014789598993957043
0.00494384765625;-0.0941314697265625;-1.038848876953125;-0.040343161672353745;-0.04825940728187561;0.014789598993957043
0.00494384765625;-0.0941314697265625;-1.038848876953125;-0.040343161672353745;-0.04825940728187561;0.014789598993957043
0.00494384765625;-0.0941314697265625;-1.038848876953125;-0.040343161672353745;-0.04825940728187561;0.014789598993957043
0.00494384765625;-0.0941314697265625;-1.038848876953125;-0.040343161672353745;-0.04825940728187561;0.014789598993957043
0.003265380859375;-0.0945892333984375;-1.0200958251953125;-0.03471510484814644;-0.04574671387672424;0.012440690770745277
0.003265380859375;-0.0945892333984375;-1.0200958251953125;-0.03471510484814644;-0.04574671387672424;0.012440690770745277
0.003265380859375;-0.0945892333984375;-1.0200958251953125;-0.03471510484814644;-0.04574671387672424;0.012440690770745277
0.003265380859375;-0.0945892333984375;-1.0200958251953125;-0.03471510484814644;-0.04574671387672424;0.012440690770745277
0.003265380859375;-0.0945892333984375;-1.0200958251953125;-0.03471510484814644;-0.04574671387672424;0.012440690770745277
-0.00286865234375;-0.098175048828125;-1.01092529296875;-0.03940359875559807;-0.02377297356724739;0.01127795409411192
-0.00286865234375;-0.098175048828125;-1.01092529296875;-0.03940359875559807;-0.02377297356724739;0.01127795409411192
-0.00286865234375;-0.098175048828125;-1.01092529296875;-0.03940359875559807;-0.02377297356724739;0.01127795409411192
-0.00286865234375;-0.098175048828125;-1.01092529296875;-0.03940359875559807;-0.02377297356724739;0.01127795409411192
-0.00286865234375;-0.098175048828125;-1.01092529296875;-0.03940359875559807;-0.02377297356724739;0.01127795409411192
0.0003662109375;-0.09796142578125;-1.0060882568359375;-0.053032856434583664;0.017715081572532654;0.011658786796033382
0.0003662109375;-0.09796142578125;-1.0060882568359375;-0.053032856434583664;0.017715081572532654;0.011658786796033382
0.0003662109375;-0.09796142578125;-1.0060882568359375;-0.053032856434583664;0.017715081572532654;0.011658786796033382
0.0003662109375;-0.09796142578125;-1.0060882568359375;-0.053032856434583664;0.017715081572532654;0.011658786796033382
0.0003662109375;-0.09796142578125;-1.0060882568359375;-0.053032856434583664;0.017715081572532654;0.011658786796033382
0.0033111572265625;-0.09405517578125;-0.999969482421875;-0.06245272606611252;0.04622235521674156;0.010124272666871548
0.0033111572265625;-0.09405517578125;-0.999969482421875;-0.06245272606611252;0.04622235521674156;0.010124272666871548
0.0033111572265625;-0.09405517578125;-0.999969482421875;-0.06245272606611252;0.04622235521674156;0.010124272666871548
0.0033111572265625;-0.09405517578125;-0.999969482421875;-0.06245272606611252;0.04622235521674156;0.010124272666871548
0.0033111572265625;-0.09405517578125;-0.999969482421875;-0.06245272606611252;0.04622235521674156;0.010124272666871548
0.002410888671875;-0.0936126708984375;-1.0028076171875;-0.06768343597650528;0.041001494973897934;0.011457451619207859
0.002410888671875;-0.0936126708984375;-1.0028076171875;-0.06768343597650528;0.041001494973897934;0.011457451619207859
0.002410888671875;-0.0936126708984375;-1.0028076171875;-0.06768343597650528;0.041001494973897934;0.011457451619207859
0.002410888671875;-0.0936126708984375;-1.0028076171875;-0.06768343597650528;0.041001494973897934;0.011457451619207859
0.002410888671875;-0.0936126708984375;-1.0028076171875;-0.06768343597650528;0.041001494973897934;0.011457451619207859
0.0027008056640625;-0.0960235595703125;-1.01226806640625;-0.06511908024549484;0.016956079751253128;0.014003966003656387
0.0027008056640625;-0.0960235595703125;-1.01226806640625;-0.06511908024549484;0.016956079751253128;0.014003966003656387
0.0027008056640625;-0.0960235595703125;-1.01226806640625;-0.06511908024549484;0.016956079751253128;0.014003966003656387
0.0027008056640625;-0.0960235595703125;-1.01226806640625;-0.06511908024549484;0.016956079751253128;0.014003966003656387
0.0027008056640625;-0.0960235595703125;-1.01226806640625;-0.06511908024549484;0.016956079751253128;0.014003966003656387
0.004150390625;-0.0969696044921875;-1.02001953125;-0.06419043987989426;0.002413090318441391;0.010486729443073273
0.004150390625;-0.0969696044921875;-1.02001953125;-0.06419043987989426;0.002413090318441391;0.010486729443073273
0.004150390625;-0.0969696044921875;-1.02001953125;-0.06419043987989426;0.002413090318441391;0.010486729443073273
0.004150390625;-0.0969696044921875;-1.02001953125;-0.06419043987989426;0.002413090318441391;0.010486729443073273
0.004150390625;-0.0969696044921875;-1.02001953125;-0.06419043987989426;0.002413090318441391;0.010486729443073273
0.0054473876953125;-0.097320556640625;-1.0174713134765625;-0.06787492334842682;0.006283195689320564;0.010302172042429447
0.0054473876953125;-0.097320556640625;-1.0174713134765625;-0.06787492334842682;0.006283195689320564;0.010302172042429447
0.0054473876953125;-0.097320556640625;-1.0174713134765625;-0.06787492334842682;0.006283195689320564;0.010302172042429447
0.0054473876953125;-0.097320556640625;-1.0174713134765625;-0.06787492334842682;0.006283195689320564;0.010302172042429447
0.0054473876953125;-0.097320556640625;-1.0174713134765625;-0.06787492334842682;0.006283195689320564;0.010302172042429447
0.0031280517578125;-0.0958251953125;-1.0105438232421875;-0.07109654694795609;0.0173795223236084;0.009126652963459492
0.0031280517578125;-0.0958251953125;-1.0105438232421875;-0.07109654694795609;0.0173795223236084;0.009126652963459492
0.0031280517578125;-0.0958251953125;-1.0105438232421875;-0.07109654694795609;0.0173795223236084;0.009126652963459492
0.0031280517578125;-0.0958251953125;-1.0105438232421875;-0.07109654694795609;0.0173795223236084;0.009126652963459492
0.0031280517578125;-0.0958251953125;-1.0105438232421875;-0.07109654694795609;0.0173795223236084;0.009126652963459492
0.00262451171875;-0.0948486328125;-1.009521484375;-0.06555530428886414;0.027650004252791405;0.011835887096822262
0.00262451171875;-0.0948486328125;-1.009521484375;-0.06555530428886414;0.027650004252791405;0.011835887096822262
0.00262451171875;-0.0948486328125;-1.009521484375;-0.06555530428886414;0.027650004252791405;0.011835887096822262
0.00262451171875;-0.0948486328125;-1.009521484375;-0.06555530428886414;0.027650004252791405;0.011835887096822262
0.00262451171875;-0.0948486328125;-1.009521484375;-0.06555530428886414;0.027650004252791405;0.011835887096822262
0.004547119140625;-0.09417724609375;-1.012664794921875;-0.056052617728710175;0.019457321614027023;0.01194161456078291
0.004547119140625;-0.09417724609375;-1.012664794921875;-0.056052617728710175;0.019457321614027023;0.01194161456078291
0.004547119140625;-0.09417724609375;-1.012664794921875;-0.056052617728710175;0.019457321614027023;0.01194161456078291
0.004547119140625;-0.09417724609375;-1.012664794921875;-0.056052617728710175;0.019457321614027023;0.01194161456078291
0.004547119140625;-0.09417724609375;-1.012664794921875;-0.056052617728710175;0.019457321614027023;0.01194161456078291
0.006622314453125;-0.0908660888671875;-1.0166168212890625;-0.04272083193063736;0.010295247659087181;0.011198059655725956
0.006622314453125;-0.0908660888671875;-1.0166168212890625;-0.04272083193063736;0.010295247659087181;0.011198059655725956
0.006622314453125;-0.0908660888671875;-1.0166168212890625;-0.04272083193063736;0.010295247659087181;0.011198059655725956
0.006622314453125;-0.0908660888671875;-1.0166168212890625;-0.04272083193063736;0.010295247659087181;0.011198059655725956
0.006622314453125;-0.0908660888671875;-1.0166168212890625;-0.04272083193063736;0.010295247659087181;0.011198059655725956
0.00946044921875;-0.090606689453125;-1.0148162841796875;-0.04141082242131233;0.0031302794814109802;0.01119006983935833
0.00946044921875;-0.090606689453125;-1.0148162841796875;-0.04141082242131233;0.0031302794814109802;0.01119006983935833
0.00946044921875;-0.090606689453125;-1.0148162841796875;-0.04141082242131233;0.0031302794814109802;0.01119006983935833
0.00946044921875;-0.090606689453125;-1.0148162841796875;-0.04141082242131233;0.0031302794814109802;0.01119006983935833
0.00946044921875;-0.090606689453125;-1.0148162841796875;-0.04141082242131233;0.0031302794814109802;0.01119006983935833
0.007720947265625;-0.0878753662109375;-1.0097503662109375;-0.04752916842699051;-0.0004295678809285164;0.007591607049107552
0.007720947265625;-0.0878753662109375;-1.0097503662109375;-0.04752916842699051;-0.0004295678809285164;0.007591607049107552
0.007720947265625;-0.0878753662109375;-1.0097503662109375;-0.04752916842699051;-0.0004295678809285164;0.007591607049107552
0.007720947265625;-0.0878753662109375;-1.0097503662109375;-0.04752916842699051;-0.0004295678809285164;0.007591607049107552
0.007720947265625;-0.0878753662109375;-1.0097503662109375;-0.04752916842699051;-0.0004295678809285164;0.007591607049107552
0.0076141357421875;-0.0880584716796875;-1.0083465576171875;-0.0523444302380085;0.0032924660481512547;0.0060056946240365505
0.0076141357421875;-0.0880584716796875;-1.0083465576171875;-0.0523444302380085;0.0032924660481512547;0.0060056946240365505
0.0076141357421875;-0.0880584716796875;-1.0083465576171875;-0.0523444302380085;0.0032924660481512547;0.0060056946240365505
0.0076141357421875;-0.0880584716796875;-1.0083465576171875;-0.0523444302380085;0.0032924660481512547;0.0060056946240365505
0.0076141357421875;-0.0880584716796875;-1.0083465576171875;-0.0523444302380085;0.0032924660481512547;0.0060056946240365505
0.0087432861328125;-0.088165283203125;-1.0095977783203125;-0.05315003544092178;0.009428123012185097;0.0027334685437381268
0.0087432861328125;-0.088165283203125;-1.0095977783203125;-0.05315003544092178;0.009428123012185097;0.0027334685437381268
0.0087432861328125;-0.088165283203125;-1.0095977783203125;-0.05315003544092178;0.009428123012185097;0.0027334685437381268
0.0087432861328125;-0.088165283203125;-1.0095977783203125;-0.05315003544092178;0.009428123012185097;0.0027334685437381268
0.0087432861328125;-0.088165283203125;-1.0095977783203125;-0.05315003544092178;0.009428123012185097;0.0027334685437381268
0.0074310302734375;-0.0875701904296875;-1.01397705078125;-0.046788010746240616;0.008473645895719528;0.004989964887499809
0.0074310302734375;-0.0875701904296875;-1.01397705078125;-0.046788010746240616;0.008473645895719528;0.004989964887499809
0.0074310302734375;-0.0875701904296875;-1.01397705078125;-0.046788010746240616;0.008473645895719528;0.004989964887499809
0.0074310302734375;-0.0875701904296875;-1.01397705078125;-0.046788010746240616;0.008473645895719528;0.004989964887499809
0.0074310302734375;-0.0875701904296875;-1.01397705078125;-0.046788010746240616;0.008473645895719528;0.004989964887499809
0.0073394775390625;-0.086944580078125;-1.018585205078125;-0.034865040332078934;0.007693605963140726;0.0054672034457325935
0.0073394775390625;-0.086944580078125;-1.018585205078125;-0.034865040332078934;0.007693605963140726;0.0054672034457325935
0.0073394775390625;-0.086944580078125;-1.018585205078125;-0.034865040332078934;0.007693605963140726;0.0054672034457325935
0.0073394775390625;-0.086944580078125;-1.018585205078125;-0.034865040332078934;0.007693605963140726;0.0054672034457325935
0.0073394775390625;-0.086944580078125;-1.018585205078125;-0.034865040332078934;0.007693605963140726;0.0054672034457325935
0.006591796875;-0.087310791015625;-1.018280029296875;-0.02389574609696865;0.002171275205910206;0.007547132205218077
0.006591796875;-0.087310791015625;-1.018280029296875;-0.02389574609696865;0.002171275205910206;0.007547132205218077
0.006591796875;-0.087310791015625;-1.018280029296875;-0.02389574609696865;0.002171275205910206;0.007547132205218077
0.006591796875;-0.087310791015625;-1.018280029296875;-0.02389574609696865;0.002171275205910206;0.007547132205218077
0.006591796875;-0.087310791015625;-1.018280029296875;-0.02389574609696865;0.002171275205910206;0.007547132205218077
0.0048980712890625;-0.08770751953125;-1.012725830078125;-0.020419521257281303;0.0070824106223881245;0.006755640730261803
0.0048980712890625;-0.08770751953125;-1.012725830078125;-0.020419521257281303;0.0070824106223881245;0.006755640730261803
0.0048980712890625;-0.08770751953125;-1.012725830078125;-0.020419521257281303;0.0070824106223881245;0.006755640730261803
0.0038299560546875;-0.0858612060546875;-1.0078582763671875;-0.02672162465751171;0.007852064445614815;0.0017057546647265553
0.0038299560546875;-0.0858612060546875;-1.0078582763671875;-0.02672162465751171;0.007852064445614815;0.0017057546647265553
0.0038299560546875;-0.0858612060546875;-1.0078582763671875;-0.02672162465751171;0.007852064445614815;0.0017057546647265553
0.0038299560546875;-0.0858612060546875;-1.0078582763671875;-0.02672162465751171;0.007852064445614815;0.0017057546647265553
0.0038299560546875;-0.0858612060546875;-1.0078582763671875;-0.02672162465751171;0.007852064445614815;0.0017057546647265553
0.0020904541015625;-0.0860443115234375;-1.0068817138671875;-0.039150066673755646;0.007233412005007267;-0.0014306501252576709
0.0020904541015625;-0.0860443115234375;-1.0068817138671875;-0.039150066673755646;0.007233412005007267;-0.0014306501252576709
0.0020904541015625;-0.0860443115234375;-1.0068817138671875;-0.039150066673755646;0.007233412005007267;-0.0014306501252576709
0.0020904541015625;-0.0860443115234375;-1.0068817138671875;-0.039150066673755646;0.007233412005007267;-0.0014306501252576709
0.0020904541015625;-0.0860443115234375;-1.0068817138671875;-0.039150066673755646;0.007233412005007267;-0.0014306501252576709
0.0039520263671875;-0.0891571044921875;-1.00775146484375;-0.05759138986468315;0.010641459375619888;-0.004367051646113396
0.0039520263671875;-0.0891571044921875;-1.00775146484375;-0.05759138986468315;0.010641459375619888;-0.004367051646113396
0.0039520263671875;-0.0891571044921875;-1.00775146484375;-0.05759138986468315;0.010641459375619888;-0.004367051646113396
0.0039520263671875;-0.0891571044921875;-1.00775146484375;-0.05759138986468315;0.010641459375619888;-0.004367051646113396
0.0039520263671875;-0.0891571044921875;-1.00775146484375;-0.07067683339118958;0.010126403532922268;-0.0057343184016644955
0.0040435791015625;-0.089447021484375;-1.01129150390625;-0.07067683339118958;0.010126403532922268;-0.0057343184016644955
0.0040435791015625;-0.089447021484375;-1.01129150390625;-0.07067683339118958;0.010126403532922268;-0.0057343184016644955
0.0040435791015625;-0.089447021484375;-1.01129150390625;-0.07067683339118958;0.010126403532922268;-0.0057343184016644955
0.0040435791015625;-0.089447021484375;-1.01129150390625;-0.07067683339118958;0.010126403532922268;-0.0057343184016644955
0.0040435791015625;-0.089447021484375;-1.01129150390625;-0.07577012479305267;0.011890481226146221;-0.006216084118932486
0.00640869140625;-0.090301513671875;-1.0153656005859375;-0.07577012479305267;0.011890481226146221;-0.006216084118932486
0.00640869140625;-0.090301513671875;-1.0153656005859375;-0.07577012479305267;0.011890481226146221;-0.006216084118932486
0.00640869140625;-0.090301513671875;-1.0153656005859375;-0.07577012479305267;0.011890481226146221;-0.006216084118932486
0.00640869140625;-0.090301513671875;-1.0153656005859375;-0.07577012479305267;0.011890481226146221;-0.006216084118932486
0.0075225830078125;-0.0869598388671875;-1.017333984375;-0.06578460335731506;0.003988349810242653;0.00027803401462733746
0.0075225830078125;-0.0869598388671875;-1.017333984375;-0.06578460335731506;0.003988349810242653;0.00027803401462733746
0.0075225830078125;-0.0869598388671875;-1.017333984375;-0.06578460335731506;0.003988349810242653;0.00027803401462733746
0.0075225830078125;-0.0869598388671875;-1.017333984375;-0.06578460335731506;0.003988349810242653;0.00027803401462733746
0.0075225830078125;-0.0869598388671875;-1.017333984375;-0.06578460335731506;0.003988349810242653;0.00027803401462733746
0.0075225830078125;-0.0869598388671875;-1.017333984375;-0.044975996017456055;-0.007527690846472979;0.0019449065439403057
0.006072998046875;-0.08447265625;-1.0186614990234375;-0.044975996017456055;-0.007527690846472979;0.0019449065439403057
0.006072998046875;-0.08447265625;-1.0186614990234375;-0.044975996017456055;-0.007527690846472979;0.0019449065439403057
0.006072998046875;-0.08447265625;-1.0186614990234375;-0.044975996017456055;-0.007527690846472979;0.0019449065439403057
0.006072998046875;-0.08447265625;-1.0186614990234375;-0.044975996017456055;-0.007527690846472979;0.0019449065439403057
0.0067291259765625;-0.082550048828125;-1.0182952880859375;-0.019843745976686478;-0.01793372631072998;0.003287938656285405
0.0067291259765625;-0.082550048828125;-1.0182952880859375;-0.019843745976686478;-0.01793372631072998;0.003287938656285405
0.0067291259765625;-0.082550048828125;-1.0182952880859375;-0.019843745976686478;-0.01793372631072998;0.003287938656285405
0.0067291259765625;-0.082550048828125;-1.0182952880859375;-0.019843745976686478;-0.01793372631072998;0.003287938656285405
0.0067291259765625;-0.082550048828125;-1.0182952880859375;-0.019843745976686478;-0.01793372631072998;0.003287938656285405
0.0067291259765625;-0.082550048828125;-1.0182952880859375;-0.0011550129856914282;-0.01708630844950676;0.008026234805583954
0.006561279296875;-0.0813140869140625;-1.0181884765625;-0.0011550129856914282;-0.01708630844950676;0.008026234805583954
0.006561279296875;-0.0813140869140625;-1.0181884765625;-0.0011550129856914282;-0.01708630844950676;0.008026234805583954
0.006561279296875;-0.0813140869140625;-1.0181884765625;-0.0011550129856914282;-0.01708630844950676;0.008026234805583954
0.006561279296875;-0.0813140869140625;-1.0181884765625;-0.0011550129856914282;-0.01708630844950676;0.008026234805583954
0.007598876953125;-0.082916259765625;-1.0152587890625;-0.0028037759475409985;-0.014200241304934025;0.007525560446083546
0.007598876953125;-0.082916259765625;-1.0152587890625;-0.0028037759475409985;-0.014200241304934025;0.007525560446083546
0.007598876953125;-0.082916259765625;-1.0152587890625;-0.0028037759475409985;-0.014200241304934025;0.007525560446083546
0.007598876953125;-0.082916259765625;-1.0152587890625;-0.0028037759475409985;-0.014200241304934025;0.007525560446083546
0.007598876953125;-0.082916259765625;-1.0152587890625;-0.0028037759475409985;-0.014200241304934025;0.007525560446083546
0.0053863525390625;-0.08526611328125;-1.0072174072265625;-0.01973748579621315;0.0009467537747696042;0.006578274071216583
0.0053863525390625;-0.08526611328125;-1.0072174072265625;-0.01973748579621315;0.0009467537747696042;0.006578274071216583
0.0053863525390625;-0.08526611328125;-1.0072174072265625;-0.01973748579621315;0.0009467537747696042;0.006578274071216583
0.0053863525390625;-0.08526611328125;-1.0072174072265625;-0.01973748579621315;0.0009467537747696042;0.006578274071216583
0.0053863525390625;-0.08526611328125;-1.0072174072265625;-0.01973748579621315;0.0009467537747696042;0.006578274071216583
0.004302978515625;-0.0873565673828125;-1.005706787109375;-0.0399591326713562;0.0019797938875854015;0.0049763829447329044
0.004302978515625;-0.0873565673828125;-1.005706787109375;-0.0399591326713562;0.0019797938875854015;0.0049763829447329044
0.004302978515625;-0.0873565673828125;-1.005706787109375;-0.0399591326713562;0.0019797938875854015;0.0049763829447329044
0.004302978515625;-0.0873565673828125;-1.005706787109375;-0.0399591326713562;0.0019797938875854015;0.0049763829447329044
0.004302978515625;-0.0873565673828125;-1.005706787109375;-0.0399591326713562;0.0019797938875854015;0.0049763829447329044
0.00238037109375;-0.0872039794921875;-1.014007568359375;-0.04447825253009796;-0.011227354407310486;0.007638745009899139
0.00238037109375;-0.0872039794921875;-1.014007568359375;-0.04447825253009796;-0.011227354407310486;0.007638745009899139
0.00238037109375;-0.0872039794921875;-1.014007568359375;-0.04447825253009796;-0.011227354407310486;0.007638745009899139
0.00238037109375;-0.0872039794921875;-1.014007568359375;-0.04447825253009796;-0.011227354407310486;0.007638745009899139
0.00238037109375;-0.0872039794921875;-1.014007568359375;-0.04447825253009796;-0.011227354407310486;0.007638745009899139
0.003326416015625;-0.0875396728515625;-1.0218505859375;-0.0395498052239418;-0.023872843012213707;0.006725280545651913
0.003326416015625;-0.0875396728515625;-1.0218505859375;-0.0395498052239418;-0.023872843012213707;0.006725280545651913
0.003326416015625;-0.0875396728515625;-1.0218505859375;-0.0395498052239418;-0.023872843012213707;0.006725280545651913
0.003326416015625;-0.0875396728515625;-1.0218505859375;-0.0395498052239418;-0.023872843012213707;0.006725280545651913
0.003326416015625;-0.0875396728515625;-1.0218505859375;-0.0395498052239418;-0.023872843012213707;0.006725280545651913
0.004913330078125;-0.0855712890625;-1.0184173583984375;-0.02719167433679104;-0.01679416000843048;0.01483647059649229
0.004913330078125;-0.0855712890625;-1.0184173583984375;-0.02719167433679104;-0.01679416000843048;0.01483647059649229
0.004913330078125;-0.0855712890625;-1.0184173583984375;-0.02719167433679104;-0.01679416000843048;0.01483647059649229
0.004913330078125;-0.0855712890625;-1.0184173583984375;-0.02719167433679104;-0.01679416000843048;0.01483647059649229
0.004913330078125;-0.0855712890625;-1.0184173583984375;-0.02719167433679104;-0.01679416000843048;0.01483647059649229
0.00390625;-0.08294677734375;-1.0086669921875;-0.017603494226932526;0.006434996146708727;0.009944776073098183
0.00390625;-0.08294677734375;-1.0086669921875;-0.017603494226932526;0.006434996146708727;0.009944776073098183
0.00390625;-0.08294677734375;-1.0086669921875;-0.017603494226932526;0.006434996146708727;0.009944776073098183
0.00390625;-0.08294677734375;-1.0086669921875;-0.017603494226932526;0.006434996146708727;0.009944776073098183
0.00390625;-0.08294677734375;-1.0086669921875;-0.017603494226932526;0.006434996146708727;0.009944776073098183
0.0027618408203125;-0.0808563232421875;-1.0050811767578125;-0.005031243897974491;0.016294019296765327;0.015301458537578583
0.0027618408203125;-0.0808563232421875;-1.0050811767578125;-0.005031243897974491;0.016294019296765327;0.015301458537578583
0.0027618408203125;-0.0808563232421875;-1.0050811767578125;-0.005031243897974491;0.016294019296765327;0.015301458537578583
0.0027618408203125;-0.0808563232421875;-1.0050811767578125;-0.005031243897974491;0.016294019296765327;0.015301458537578583
0.0027618408203125;-0.0808563232421875;-1.0050811767578125;-0.005031243897974491;0.016294019296765327;0.015301458537578583
0.004241943359375;-0.0802154541015625;-1.009063720703125;0.006046707276254892;0.0065465825609862804;0.01104332972317934
0.004241943359375;-0.0802154541015625;-1.009063720703125;0.006046707276254892;0.0065465825609862804;0.01104332972317934
0.004241943359375;-0.0802154541015625;-1.009063720703125;0.006046707276254892;0.0065465825609862804;0.01104332972317934
0.004241943359375;-0.0802154541015625;-1.009063720703125;0.006046707276254892;0.0065465825609862804;0.01104332972317934
0.004241943359375;-0.0802154541015625;-1.009063720703125;0.006046707276254892;0.0065465825609862804;0.01104332972317934
0.0040435791015625;-0.0769500732421875;-1.016632080078125;0.01587776653468609;-0.01860084757208824;0.007239270955324173
0.0040435791015625;-0.0769500732421875;-1.016632080078125;0.01587776653468609;-0.01860084757208824;0.007239270955324173
0.0040435791015625;-0.0769500732421875;-1.016632080078125;0.01587776653468609;-0.01860084757208824;0.007239270955324173
0.0040435791015625;-0.0769500732421875;-1.016632080078125;0.01587776653468609;-0.01860084757208824;0.007239270955324173
0.0040435791015625;-0.0769500732421875;-1.016632080078125;0.01587776653468609;-0.01860084757208824;0.007239270955324173
0.0061492919921875;-0.08099365234375;-1.019561767578125;0.012517123483121395;-0.03524720296263695;0.001630120910704136
0.0061492919921875;-0.08099365234375;-1.019561767578125;0.012517123483121395;-0.03524720296263695;0.001630120910704136
0.0061492919921875;-0.08099365234375;-1.019561767578125;0.012517123483121395;-0.03524720296263695;0.001630120910704136
0.0061492919921875;-0.08099365234375;-1.019561767578125;0.012517123483121395;-0.03524720296263695;0.001630120910704136
0.0061492919921875;-0.08099365234375;-1.019561767578125;0.012517123483121395;-0.03524720296263695;0.001630120910704136
0.0064697265625;-0.0826568603515625;-1.0146484375;0.003153448924422264;-0.025250494480133057;0.002805906580761075
0.0064697265625;-0.0826568603515625;-1.0146484375;0.003153448924422264;-0.025250494480133057;0.002805906580761075
0.0064697265625;-0.0826568603515625;-1.0146484375;0.003153448924422264;-0.025250494480133057;0.002805906580761075
0.0064697265625;-0.0826568603515625;-1.0146484375;0.003153448924422264;-0.025250494480133057;0.002805906580761075
0.0064697265625;-0.0826568603515625;-1.0146484375;0.003153448924422264;-0.025250494480133057;0.002805906580761075
0.006683349609375;-0.0853118896484375;-1.0069732666015625;-0.010462228208780289;0.001984587637707591;0.0032826124224811792
0.006683349609375;-0.0853118896484375;-1.0069732666015625;-0.010462228208780289;0.001984587637707591;0.0032826124224811792
0.006683349609375;-0.0853118896484375;-1.0069732666015625;-0.010462228208780289;0.001984587637707591;0.0032826124224811792
0.006683349609375;-0.0853118896484375;-1.0069732666015625;-0.010462228208780289;0.001984587637707591;0.0032826124224811792
0.006683349609375;-0.0853118896484375;-1.0069732666015625;-0.010462228208780289;0.001984587637707591;0.0032826124224811792
0.00665283203125;-0.08453369140625;-1.0069122314453125;-0.012912603095173836;0.0182863287627697;0.0035153725184500217
0.00665283203125;-0.08453369140625;-1.0069122314453125;-0.012912603095173836;0.0182863287627697;0.0035153725184500217
0.00665283203125;-0.08453369140625;-1.0069122314453125;-0.012912603095173836;0.0182863287627697;0.0035153725184500217
0.00665283203125;-0.08453369140625;-1.0069122314453125;-0.012912603095173836;0.0182863287627697;0.0035153725184500217
0.00665283203125;-0.08453369140625;-1.0069122314453125;-0.012912603095173836;0.0182863287627697;0.0035153725184500217
0.00701904296875;-0.0831298828125;-1.01202392578125;-0.012240421026945114;0.012174108065664768;0.0012772521004080772
0.00701904296875;-0.0831298828125;-1.01202392578125;-0.012240421026945114;0.012174108065664768;0.0012772521004080772
0.00701904296875;-0.0831298828125;-1.01202392578125;-0.012240421026945114;0.012174108065664768;0.0012772521004080772
0.00701904296875;-0.0831298828125;-1.01202392578125;-0.012240421026945114;0.012174108065664768;0.0012772521004080772
0.00701904296875;-0.0831298828125;-1.01202392578125;-0.012240421026945114;0.012174108065664768;0.0012772521004080772
0.0069122314453125;-0.08282470703125;-1.0120697021484375;-0.007752461824566126;-0.005058940965682268;0.004236556589603424
0.0069122314453125;-0.08282470703125;-1.0120697021484375;-0.007752461824566126;-0.005058940965682268;0.004236556589603424
0.0069122314453125;-0.08282470703125;-1.0120697021484375;-0.007752461824566126;-0.005058940965682268;0.004236556589603424
0.0069122314453125;-0.08282470703125;-1.0120697021484375;-0.007752461824566126;-0.005058940965682268;0.004236556589603424
0.0069122314453125;-0.08282470703125;-1.0120697021484375;-0.007752461824566126;-0.005058940965682268;0.004236556589603424
0.0056915283203125;-0.0819091796875;-1.008270263671875;-0.006338589824736118;-0.01255014631897211;0.0046453517861664295
0.0056915283203125;-0.0819091796875;-1.008270263671875;-0.006338589824736118;-0.01255014631897211;0.0046453517861664295
0.0056915283203125;-0.0819091796875;-1.008270263671875;-0.006338589824736118;-0.01255014631897211;0.0046453517861664295
0.0056915283203125;-0.0819091796875;-1.008270263671875;-0.006338589824736118;-0.01255014631897211;0.0046453517861664295
0.0056915283203125;-0.0819091796875;-1.008270263671875;-0.006338589824736118;-0.01255014631897211;0.0046453517861664295
0.00445556640625;-0.0826873779296875;-1.004425048828125;-0.005440305452793837;-0.012085158377885818;0.0033401367254555225
0.00445556640625;-0.0826873779296875;-1.004425048828125;-0.005440305452793837;-0.012085158377885818;0.0033401367254555225
0.00445556640625;-0.0826873779296875;-1.004425048828125;-0.005440305452793837;-0.012085158377885818;0.0033401367254555225
0.00445556640625;-0.0826873779296875;-1.004425048828125;-0.005440305452793837;-0.012085158377885818;0.0033401367254555225
0.00445556640625;-0.0826873779296875;-1.004425048828125;-0.005440305452793837;-0.012085158377885818;0.0033401367254555225
0.0030975341796875;-0.0829620361328125;-1.0077667236328125;-0.003878894029185176;-0.006314887665212154;-0.00045806370326317847
0.0030975341796875;-0.0829620361328125;-1.0077667236328125;-0.003878894029185176;-0.006314887665212154;-0.00045806370326317847
0.0030975341796875;-0.0829620361328125;-1.0077667236328125;-0.003878894029185176;-0.006314887665212154;-0.00045806370326317847
0.0030975341796875;-0.0829620361328125;-1.0077667236328125;-0.003878894029185176;-0.006314887665212154;-0.00045806370326317847
0.0030975341796875;-0.0829620361328125;-1.0077667236328125;-0.003878894029185176;-0.006314887665212154;-0.00045806370326317847
0.004913330078125;-0.083221435546875;-1.0128173828125;0.0029467877466231585;0.0014740596525371075;-0.0011121360585093498
0.004913330078125;-0.083221435546875;-1.0128173828125;0.0029467877466231585;0.0014740596525371075;-0.0011121360585093498
0.004913330078125;-0.083221435546875;-1.0128173828125;0.0029467877466231585;0.0014740596525371075;-0.0011121360585093498
0.004913330078125;-0.083221435546875;-1.0128173828125;0.0029467877466231585;0.0014740596525371075;-0.0011121360585093498
0.004913330078125;-0.083221435546875;-1.0128173828125;0.0029467877466231585;0.0014740596525371075;-0.0011121360585093498
0.0056610107421875;-0.0810546875;-1.017181396484375;0.005151352379471064;0.005764412228018045;-0.0020042951218783855
0.0056610107421875;-0.0810546875;-1.017181396484375;0.005151352379471064;0.005764412228018045;-0.0020042951218783855
0.0056610107421875;-0.0810546875;-1.017181396484375;0.005151352379471064;0.005764412228018045;-0.0020042951218783855
0.0056610107421875;-0.0810546875;-1.017181396484375;0.005151352379471064;0.005764412228018045;-0.0020042951218783855
0.0056610107421875;-0.0810546875;-1.017181396484375;0.005151352379471064;0.005764412228018045;-0.0020042951218783855
0.0050201416015625;-0.081573486328125;-1.0140228271484375;0.0013028184184804559;0.012467854656279087;-0.002944657113403082
0.0050201416015625;-0.081573486328125;-1.0140228271484375;0.0013028184184804559;0.012467854656279087;-0.002944657113403082
0.0050201416015625;-0.081573486328125;-1.0140228271484375;0.0013028184184804559;0.012467854656279087;-0.002944657113403082
0.0050201416015625;-0.081573486328125;-1.0140228271484375;0.0013028184184804559;0.012467854656279087;-0.002944657113403082
0.0050201416015625;-0.081573486328125;-1.0140228271484375;0.0013028184184804559;0.012467854656279087;-0.002944657113403082
0.0036163330078125;-0.08306884765625;-1.0111236572265625;-0.012190619483590126;0.00908750481903553;5.858954318682663e-05
0.0036163330078125;-0.08306884765625;-1.0111236572265625;-0.012190619483590126;0.00908750481903553;5.858954318682663e-05
0.0036163330078125;-0.08306884765625;-1.0111236572265625;-0.012190619483590126;0.00908750481903553;5.858954318682663e-05
0.0036163330078125;-0.08306884765625;-1.0111236572265625;-0.012190619483590126;0.00908750481903553;5.858954318682663e-05
0.0036163330078125;-0.08306884765625;-1.0111236572265625;-0.012190619483590126;0.00908750481903553;5.858954318682663e-05
0.003692626953125;-0.081024169921875;-1.011322021484375;-0.0295467060059309;0.0005488775204867125;-0.0015691345324739814
0.003692626953125;-0.081024169921875;-1.011322021484375;-0.0295467060059309;0.0005488775204867125;-0.0015691345324739814
0.003692626953125;-0.081024169921875;-1.011322021484375;-0.0295467060059309;0.0005488775204867125;-0.0015691345324739814
0.003692626953125;-0.081024169921875;-1.011322021484375;-0.0295467060059309;0.0005488775204867125;-0.0015691345324739814
0.003692626953125;-0.081024169921875;-1.011322021484375;-0.0295467060059309;0.0005488775204867125;-0.0015691345324739814
0.0059814453125;-0.0798492431640625;-1.0142974853515625;-0.033059947192668915;-0.0023182816803455353;0.00086872314568609
0.0059814453125;-0.0798492431640625;-1.0142974853515625;-0.033059947192668915;-0.0023182816803455353;0.00086872314568609
0.0059814453125;-0.0798492431640625;-1.0142974853515625;-0.033059947192668915;-0.0023182816803455353;0.00086872314568609
0.0059814453125;-0.0798492431640625;-1.0142974853515625;-0.033059947192668915;-0.0023182816803455353;0.00086872314568609
0.0059814453125;-0.0798492431640625;-1.0142974853515625;-0.033059947192668915;-0.0023182816803455353;0.00086872314568609
0.0057373046875;-0.0782470703125;-1.0140533447265625;-0.032875657081604004;0.002813629573211074;-0.0002812298189383
0.0057373046875;-0.0782470703125;-1.0140533447265625;-0.032875657081604004;0.002813629573211074;-0.0002812298189383
0.0057373046875;-0.0782470703125;-1.0140533447265625;-0.032875657081604004;0.002813629573211074;-0.0002812298189383
0.0057373046875;-0.0782470703125;-1.0140533447265625;-0.032875657081604004;0.002813629573211074;-0.0002812298189383
0.0057373046875;-0.0782470703125;-1.0140533447265625;-0.032875657081604004;0.002813629573211074;-0.0002812298189383
0.0048370361328125;-0.0760650634765625;-1.0136260986328125;-0.02406139485538006;0.010190585628151894;-0.0024351945612579584
0.0048370361328125;-0.0760650634765625;-1.0136260986328125;-0.02406139485538006;0.010190585628151894;-0.0024351945612579584
0.0048370361328125;-0.0760650634765625;-1.0136260986328125;-0.02406139485538006;0.010190585628151894;-0.0024351945612579584
0.0048370361328125;-0.0760650634765625;-1.0136260986328125;-0.02406139485538006;0.010190585628151894;-0.0024351945612579584
0.0048370361328125;-0.0760650634765625;-1.0136260986328125;-0.02406139485538006;0.010190585628151894;-0.0024351945612579584
0.0045318603515625;-0.0763702392578125;-1.0156707763671875;-0.006986004300415516;0.010599381290376186;-0.008979646489024162
0.0045318603515625;-0.0763702392578125;-1.0156707763671875;-0.006986004300415516;0.010599381290376186;-0.008979646489024162
0.0045318603515625;-0.0763702392578125;-1.0156707763671875;-0.006986004300415516;0.010599381290376186;-0.008979646489024162
0.0045318603515625;-0.0763702392578125;-1.0156707763671875;-0.006986004300415516;0.010599381290376186;-0.008979646489024162
0.0045318603515625;-0.0763702392578125;-1.0156707763671875;-0.006986004300415516;0.010599381290376186;-0.008979646489024162
0.0062103271484375;-0.075286865234375;-1.021514892578125;0.007648066151887178;0.008019310422241688;-0.008583101443946362
0.0062103271484375;-0.075286865234375;-1.021514892578125;0.007648066151887178;0.008019310422241688;-0.008583101443946362
0.0062103271484375;-0.075286865234375;-1.021514892578125;0.007648066151887178;0.008019310422241688;-0.008583101443946362
0.0062103271484375;-0.075286865234375;-1.021514892578125;0.007648066151887178;0.008019310422241688;-0.008583101443946362
0.0062103271484375;-0.075286865234375;-1.021514892578125;0.007648066151887178;0.008019310422241688;-0.008583101443946362
0.0060272216796875;-0.076171875;-1.02374267578125;0.02130954898893833;0.0020759340841323137;-0.007674431428313255
0.0060272216796875;-0.076171875;-1.02374267578125;0.02130954898893833;0.0020759340841323137;-0.007674431428313255
0.0060272216796875;-0.076171875;-1.02374267578125;0.02130954898893833;0.0020759340841323137;-0.007674431428313255
0.0060272216796875;-0.076171875;-1.02374267578125;0.02130954898893833;0.0020759340841323137;-0.007674431428313255
0.0060272216796875;-0.076171875;-1.02374267578125;0.02130954898893833;0.0020759340841323137;-0.007674431428313255
0.0061187744140625;-0.0788726806640625;-1.018890380859375;0.02376152202486992;-0.0004918858758173883;-0.0075940038077533245
0.0061187744140625;-0.0788726806640625;-1.018890380859375;0.02376152202486992;-0.0004918858758173883;-0.0075940038077533245
0.0061187744140625;-0.0788726806640625;-1.018890380859375;0.02376152202486992;-0.0004918858758173883;-0.0075940038077533245
0.0061187744140625;-0.0788726806640625;-1.018890380859375;0.02376152202486992;-0.0004918858758173883;-0.0075940038077533245
0.0061187744140625;-0.0788726806640625;-1.018890380859375;0.02376152202486992;-0.0004918858758173883;-0.0075940038077533245
0.006866455078125;-0.0811920166015625;-1.0116119384765625;0.018814966082572937;0.00481339730322361;-0.00908297672867775
0.006866455078125;-0.0811920166015625;-1.0116119384765625;0.018814966082572937;0.00481339730322361;-0.00908297672867775
0.006866455078125;-0.0811920166015625;-1.0116119384765625;0.018814966082572937;0.00481339730322361;-0.00908297672867775
0.006866455078125;-0.0811920166015625;-1.0116119384765625;0.018814966082572937;0.00481339730322361;-0.00908297672867775
0.006866455078125;-0.0811920166015625;-1.0116119384765625;0.018814966082572937;0.00481339730322361;-0.00908297672867775
0.008331298828125;-0.08465576171875;-1.0070343017578125;0.00011185276525793597;0.007640076335519552;-0.00986434891819954
0.008331298828125;-0.08465576171875;-1.0070343017578125;0.00011185276525793597;0.007640076335519552;-0.00986434891819954
0.008331298828125;-0.08465576171875;-1.0070343017578125;0.00011185276525793597;0.007640076335519552;-0.00986434891819954
0.008331298828125;-0.08465576171875;-1.0070343017578125;0.00011185276525793597;0.007640076335519552;-0.00986434891819954
0.008331298828125;-0.08465576171875;-1.0070343017578125;0.00011185276525793597;0.007640076335519552;-0.00986434891819954
0.0089111328125;-0.0867156982421875;-1.0077972412109375;-0.01751747541129589;0.011650796979665756;-0.011655057780444622
0.0089111328125;-0.0867156982421875;-1.0077972412109375;-0.01751747541129589;0.011650796979665756;-0.011655057780444622
0.0089111328125;-0.0867156982421875;-1.0077972412109375;-0.01751747541129589;0.011650796979665756;-0.011655057780444622
0.0089111328125;-0.0867156982421875;-1.0077972412109375;-0.01751747541129589;0.011650796979665756;-0.011655057780444622
0.0089111328125;-0.0867156982421875;-1.0077972412109375;-0.01751747541129589;0.011650796979665756;-0.011655057780444622
0.0101470947265625;-0.08636474609375;-1.0110015869140625;-0.027829233556985855;0.008564991876482964;-0.005024319514632225
0.0101470947265625;-0.08636474609375;-1.0110015869140625;-0.027829233556985855;0.008564991876482964;-0.005024319514632225
0.0101470947265625;-0.08636474609375;-1.0110015869140625;-0.027829233556985855;0.008564991876482964;-0.005024319514632225
0.0101470947265625;-0.08636474609375;-1.0110015869140625;-0.027829233556985855;0.008564991876482964;-0.005024319514632225
0.0101470947265625;-0.08636474609375;-1.0110015869140625;-0.027829233556985855;0.008564991876482964;-0.005024319514632225
0.0096588134765625;-0.0850067138671875;-1.011932373046875;-0.023319970816373825;0.001785116852261126;-0.0046823699958622456
0.0096588134765625;-0.0850067138671875;-1.011932373046875;-0.023319970816373825;0.001785116852261126;-0.0046823699958622456
0.0096588134765625;-0.0850067138671875;-1.011932373046875;-0.023319970816373825;0.001785116852261126;-0.0046823699958622456
0.0096588134765625;-0.0850067138671875;-1.011932373046875;-0.023319970816373825;0.001785116852261126;-0.0046823699958622456
0.0096588134765625;-0.0850067138671875;-1.011932373046875;-0.014524614438414574;-0.003724697045981884;-0.0030652983114123344
0.0067901611328125;-0.08428955078125;-1.0115509033203125;-0.014524614438414574;-0.003724697045981884;-0.0030652983114123344
0.0067901611328125;-0.08428955078125;-1.0115509033203125;-0.014524614438414574;-0.003724697045981884;-0.0030652983114123344
0.0067901611328125;-0.08428955078125;-1.0115509033203125;-0.014524614438414574;-0.003724697045981884;-0.0030652983114123344
0.0067901611328125;-0.08428955078125;-1.0115509033203125;-0.014524614438414574;-0.003724697045981884;-0.0030652983114123344
0.003875732421875;-0.08245849609375;-1.0142974853515625;0.0003307645965833217;-0.009870740585029125;0.0012697952333837748
0.003875732421875;-0.08245849609375;-1.0142974853515625;0.0003307645965833217;-0.009870740585029125;0.0012697952333837748
0.003875732421875;-0.08245849609375;-1.0142974853515625;0.0003307645965833217;-0.009870740585029125;0.0012697952333837748
0.003875732421875;-0.08245849609375;-1.0142974853515625;0.0003307645965833217;-0.009870740585029125;0.0012697952333837748
0.003875732421875;-0.08245849609375;-1.0142974853515625;0.0003307645965833217;-0.009870740585029125;0.0012697952333837748
0.0035400390625;-0.082855224609375;-1.0187225341796875;0.01649348996579647;-0.012076370418071747;0.0012546151410788298
0.0035400390625;-0.082855224609375;-1.0187225341796875;0.01649348996579647;-0.012076370418071747;0.0012546151410788298
0.0035400390625;-0.082855224609375;-1.0187225341796875;0.01649348996579647;-0.012076370418071747;0.0012546151410788298
0.0035400390625;-0.082855224609375;-1.0187225341796875;0.01649348996579647;-0.012076370418071747;0.0012546151410788298
0.0035400390625;-0.082855224609375;-1.0187225341796875;0.01649348996579647;-0.012076370418071747;0.0012546151410788298
0.0035400390625;-0.082855224609375;-1.0187225341796875;0.028066521510481834;-0.0006966829532757401;0.0008293083519674838
0.003753662109375;-0.0845489501953125;-1.0209808349609375;0.028066521510481834;-0.0006966829532757401;0.0008293083519674838
0.003753662109375;-0.0845489501953125;-1.0209808349609375;0.028066521510481834;-0.0006966829532757401;0.0008293083519674838
0.003753662109375;-0.0845489501953125;-1.0209808349609375;0.028066521510481834;-0.0006966829532757401;0.0008293083519674838
0.003753662109375;-0.0845489501953125;-1.0209808349609375;0.028066521510481834;-0.0006966829532757401;0.0008293083519674838
0.004608154296875;-0.0856475830078125;-1.0213470458984375;0.030483340844511986;0.0047148605808615685;0.0021702100057154894
0.004608154296875;-0.0856475830078125;-1.0213470458984375;0.030483340844511986;0.0047148605808615685;0.0021702100057154894
0.004608154296875;-0.0856475830078125;-1.0213470458984375;0.030483340844511986;0.0047148605808615685;0.0021702100057154894
0.004608154296875;-0.0856475830078125;-1.0213470458984375;0.030483340844511986;0.0047148605808615685;0.0021702100057154894
0.004608154296875;-0.0856475830078125;-1.0213470458984375;0.030483340844511986;0.0047148605808615685;0.0021702100057154894
0.004608154296875;-0.0856475830078125;-1.0213470458984375;0.01859285868704319;0.01774810440838337;0.004774781409651041
0.0071868896484375;-0.085784912109375;-1.0184478759765625;0.01859285868704319;0.01774810440838337;0.004774781409651041
0.0071868896484375;-0.085784912109375;-1.0184478759765625;0.01859285868704319;0.01774810440838337;0.004774781409651041
0.0071868896484375;-0.085784912109375;-1.0184478759765625;0.01859285868704319;0.01774810440838337;0.004774781409651041
0.0071868896484375;-0.085784912109375;-1.0184478759765625;0.01859285868704319;0.01774810440838337;0.004774781409651041
0.0083160400390625;-0.0848541259765625;-1.003173828125;-0.005666674114763737;0.03440910577774048;0.0024170849937945604
0.0083160400390625;-0.0848541259765625;-1.003173828125;-0.005666674114763737;0.03440910577774048;0.0024170849937945604
0.0083160400390625;-0.0848541259765625;-1.003173828125;-0.005666674114763737;0.03440910577774048;0.0024170849937945604
0.0083160400390625;-0.0848541259765625;-1.003173828125;-0.005666674114763737;0.03440910577774048;0.0024170849937945604
0.0083160400390625;-0.0848541259765625;-1.003173828125;-0.005666674114763737;0.03440910577774048;0.0024170849937945604
0.00579833984375;-0.082489013671875;-0.993804931640625;-0.024760473519563675;0.03375450149178505;0.00014194648247212172
0.00579833984375;-0.082489013671875;-0.993804931640625;-0.024760473519563675;0.03375450149178505;0.00014194648247212172
0.00579833984375;-0.082489013671875;-0.993804931640625;-0.024760473519563675;0.03375450149178505;0.00014194648247212172
0.00579833984375;-0.082489013671875;-0.993804931640625;-0.024760473519563675;0.03375450149178505;0.00014194648247212172
0.00579833984375;-0.082489013671875;-0.993804931640625;-0.024760473519563675;0.03375450149178505;0.00014194648247212172
0.0049896240234375;-0.0844879150390625;-1.0117340087890625;-0.021024858579039574;0.001990180229768157;0.0005121259018778801
0.0049896240234375;-0.0844879150390625;-1.0117340087890625;-0.021024858579039574;0.001990180229768157;0.0005121259018778801
0.0049896240234375;-0.0844879150390625;-1.0117340087890625;-0.021024858579039574;0.001990180229768157;0.0005121259018778801
0.0049896240234375;-0.0844879150390625;-1.0117340087890625;-0.021024858579039574;0.001990180229768157;0.0005121259018778801
0.0049896240234375;-0.0844879150390625;-1.0117340087890625;-0.021024858579039574;0.001990180229768157;0.0005121259018778801
0.0042572021484375;-0.080963134765625;-1.0355072021484375;-0.012202337384223938;-0.03254995495080948;0.002123870886862278
0.0042572021484375;-0.080963134765625;-1.0355072021484375;-0.012202337384223938;-0.03254995495080948;0.002123870886862278
0.0042572021484375;-0.080963134765625;-1.0355072021484375;-0.012202337384223938;-0.03254995495080948;0.002123870886862278
0.0042572021484375;-0.080963134765625;-1.0355072021484375;-0.012202337384223938;-0.03254995495080948;0.002123870886862278
0.0042572021484375;-0.080963134765625;-1.0355072021484375;-0.012202337384223938;-0.03254995495080948;0.002123870886862278
0.00347900390625;-0.078338623046875;-1.031707763671875;-0.011031611822545528;-0.03925685957074165;0.0013233247445896268
0.00347900390625;-0.078338623046875;-1.031707763671875;-0.011031611822545528;-0.03925685957074165;0.0013233247445896268
0.00347900390625;-0.078338623046875;-1.031707763671875;-0.011031611822545528;-0.03925685957074165;0.0013233247445896268
0.00347900390625;-0.078338623046875;-1.031707763671875;-0.011031611822545528;-0.03925685957074165;0.0013233247445896268
0.00347900390625;-0.078338623046875;-1.031707763671875;-0.011031611822545528;-0.03925685957074165;0.0013233247445896268
-0.00067138671875;-0.0798492431640625;-1.0119171142578125;-0.022480808198451996;-0.027636688202619553;0.0013763216556981206
-0.00067138671875;-0.0798492431640625;-1.0119171142578125;-0.022480808198451996;-0.027636688202619553;0.0013763216556981206
-0.00067138671875;-0.0798492431640625;-1.0119171142578125;-0.022480808198451996;-0.027636688202619553;0.0013763216556981206
-0.00067138671875;-0.0798492431640625;-1.0119171142578125;-0.022480808198451996;-0.027636688202619553;0.0013763216556981206
-0.00067138671875;-0.0798492431640625;-1.0119171142578125;-0.022480808198451996;-0.027636688202619553;0.0013763216556981206
-0.0001068115234375;-0.079620361328125;-1.008392333984375;-0.029336316511034966;-0.006330866366624832;-0.00047643951256759465
-0.0001068115234375;-0.079620361328125;-1.008392333984375;-0.029336316511034966;-0.006330866366624832;-0.00047643951256759465
-0.0001068115234375;-0.079620361328125;-1.008392333984375;-0.029336316511034966;-0.006330866366624832;-0.00047643951256759465
-0.0001068115234375;-0.079620361328125;-1.008392333984375;-0.029336316511034966;-0.006330866366624832;-0.00047643951256759465
-0.0001068115234375;-0.079620361328125;-1.008392333984375;-0.029336316511034966;-0.006330866366624832;-0.00047643951256759465
0.007232666015625;-0.0754547119140625;-1.0096435546875;-0.023614780977368355;0.020730579271912575;0.0009464874165132642
0.007232666015625;-0.0754547119140625;-1.0096435546875;-0.023614780977368355;0.020730579271912575;0.0009464874165132642
0.007232666015625;-0.0754547119140625;-1.0096435546875;-0.023614780977368355;0.020730579271912575;0.0009464874165132642
0.007232666015625;-0.0754547119140625;-1.0096435546875;-0.023614780977368355;0.020730579271912575;0.0009464874165132642
0.007232666015625;-0.0754547119140625;-1.0096435546875;-0.023614780977368355;0.020730579271912575;0.0009464874165132642
0.0087738037109375;-0.07275390625;-1.0068511962890625;-0.01155545562505722;0.03514786809682846;0.003409645054489374
0.0087738037109375;-0.07275390625;-1.0068511962890625;-0.01155545562505722;0.03514786809682846;0.003409645054489374
0.0087738037109375;-0.07275390625;-1.0068511962890625;-0.01155545562505722;0.03514786809682846;0.003409645054489374
0.0087738037109375;-0.07275390625;-1.0068511962890625;-0.01155545562505722;0.03514786809682846;0.003409645054489374
0.0087738037109375;-0.07275390625;-1.0068511962890625;-0.01155545562505722;0.03514786809682846;0.003409645054489374
0.0076751708984375;-0.0767669677734375;-1.011962890625;-0.00037923414492979646;0.01931910216808319;0.0034975295420736074
0.0076751708984375;-0.0767669677734375;-1.011962890625;-0.00037923414492979646;0.01931910216808319;0.0034975295420736074
0.0076751708984375;-0.0767669677734375;-1.011962890625;-0.00037923414492979646;0.01931910216808319;0.0034975295420736074
0.0076751708984375;-0.0767669677734375;-1.011962890625;-0.00037923414492979646;0.01931910216808319;0.0034975295420736074
0.0076751708984375;-0.0767669677734375;-1.011962890625;-0.00037923414492979646;0.01931910216808319;0.0034975295420736074
0.008544921875;-0.0814208984375;-1.0226287841796875;0.0046791741624474525;-0.0070334081538021564;0.004471180960536003
0.008544921875;-0.0814208984375;-1.0226287841796875;0.0046791741624474525;-0.0070334081538021564;0.004471180960536003
0.008544921875;-0.0814208984375;-1.0226287841796875;0.0046791741624474525;-0.0070334081538021564;0.004471180960536003
0.008544921875;-0.0814208984375;-1.0226287841796875;0.0046791741624474525;-0.0070334081538021564;0.004471180960536003
0.008544921875;-0.0814208984375;-1.0226287841796875;0.0046791741624474525;-0.0070334081538021564;0.004471180960536003
0.0101776123046875;-0.0825653076171875;-1.0245819091796875;0.002892192918807268;-0.018079135566949844;0.005532184615731239
0.0101776123046875;-0.0825653076171875;-1.0245819091796875;0.002892192918807268;-0.018079135566949844;0.005532184615731239
0.0101776123046875;-0.0825653076171875;-1.0245819091796875;0.002892192918807268;-0.018079135566949844;0.005532184615731239
0.0101776123046875;-0.0825653076171875;-1.0245819091796875;0.002892192918807268;-0.018079135566949844;0.005532184615731239
0.0101776123046875;-0.0825653076171875;-1.0245819091796875;0.002892192918807268;-0.018079135566949844;0.005532184615731239
0.0081939697265625;-0.0832061767578125;-1.0153961181640625;-0.005976133514195681;-0.0049438923597335815;0.005803028121590614
0.0081939697265625;-0.0832061767578125;-1.0153961181640625;-0.005976133514195681;-0.0049438923597335815;0.005803028121590614
0.0081939697265625;-0.0832061767578125;-1.0153961181640625;-0.005976133514195681;-0.0049438923597335815;0.005803028121590614
0.0081939697265625;-0.0832061767578125;-1.0153961181640625;-0.005976133514195681;-0.0049438923597335815;0.005803028121590614
0.0081939697265625;-0.0832061767578125;-1.0153961181640625;-0.005976133514195681;-0.0049438923597335815;0.005803028121590614
0.0045166015625;-0.08563232421875;-1.0067901611328125;-0.0205694567412138;0.011489941738545895;0.0011297129094600677
0.0045166015625;-0.08563232421875;-1.0067901611328125;-0.0205694567412138;0.011489941738545895;0.0011297129094600677
0.0045166015625;-0.08563232421875;-1.0067901611328125;-0.0205694567412138;0.011489941738545895;0.0011297129094600677
0.0045166015625;-0.08563232421875;-1.0067901611328125;-0.0205694567412138;0.011489941738545895;0.0011297129094600677
0.0045166015625;-0.08563232421875;-1.0067901611328125;-0.0205694567412138;0.011489941738545895;0.0011297129094600677
0.0040740966796875;-0.086700439453125;-1.0085296630859375;-0.034212034195661545;0.026261964812874794;-0.00024288028362207115
0.0040740966796875;-0.086700439453125;-1.0085296630859375;-0.034212034195661545;0.026261964812874794;-0.00024288028362207115
0.0040740966796875;-0.086700439453125;-1.0085296630859375;-0.034212034195661545;0.026261964812874794;-0.00024288028362207115
0.0040740966796875;-0.086700439453125;-1.0085296630859375;-0.034212034195661545;0.026261964812874794;-0.00024288028362207115
0.0040740966796875;-0.086700439453125;-1.0085296630859375;-0.034212034195661545;0.026261964812874794;-0.00024288028362207115
0.0063629150390625;-0.0853118896484375;-1.0137176513671875;-0.03806748986244202;0.021529261022806168;-0.0017563547007739544
0.0063629150390625;-0.0853118896484375;-1.0137176513671875;-0.03806748986244202;0.021529261022806168;-0.0017563547007739544
0.0063629150390625;-0.0853118896484375;-1.0137176513671875;-0.03806748986244202;0.021529261022806168;-0.0017563547007739544
0.0063629150390625;-0.0853118896484375;-1.0137176513671875;-0.03806748986244202;0.021529261022806168;-0.0017563547007739544
0.0063629150390625;-0.0853118896484375;-1.0137176513671875;-0.03806748986244202;0.021529261022806168;-0.0017563547007739544
0.009552001953125;-0.082061767578125;-1.0174713134765625;-0.03557317331433296;0.010497648268938065;-0.002217081608250737
0.009552001953125;-0.082061767578125;-1.0174713134765625;-0.03557317331433296;0.010497648268938065;-0.002217081608250737
0.009552001953125;-0.082061767578125;-1.0174713134765625;-0.03557317331433296;0.010497648268938065;-0.002217081608250737
0.009552001953125;-0.082061767578125;-1.0174713134765625;-0.03557317331433296;0.010497648268938065;-0.002217081608250737
0.009552001953125;-0.082061767578125;-1.0174713134765625;-0.03557317331433296;0.010497648268938065;-0.002217081608250737
0.0114593505859375;-0.079864501953125;-1.0162353515625;-0.025439312681555748;0.003471430391073227;-0.0005763080553151667
0.0114593505859375;-0.079864501953125;-1.0162353515625;-0.025439312681555748;0.003471430391073227;-0.0005763080553151667
0.0114593505859375;-0.079864501953125;-1.0162353515625;-0.025439312681555748;0.003471430391073227;-0.0005763080553151667
0.0114593505859375;-0.079864501953125;-1.0162353515625;-0.025439312681555748;0.003471430391073227;-0.0005763080553151667
0.0114593505859375;-0.079864501953125;-1.0162353515625;-0.025439312681555748;0.003471430391073227;-0.0005763080553151667
0.010955810546875;-0.077728271484375;-1.0137786865234375;-0.007661381736397743;0.005780657287687063;-9.667274571256712e-05
0.010955810546875;-0.077728271484375;-1.0137786865234375;-0.007661381736397743;0.005780657287687063;-9.667274571256712e-05
0.010955810546875;-0.077728271484375;-1.0137786865234375;-0.007661381736397743;0.005780657287687063;-9.667274571256712e-05
0.010955810546875;-0.077728271484375;-1.0137786865234375;-0.007661381736397743;0.005780657287687063;-9.667274571256712e-05
0.010955810546875;-0.077728271484375;-1.0137786865234375;-0.007661381736397743;0.005780657287687063;-9.667274571256712e-05
0.0106201171875;-0.0752716064453125;-1.0140380859375;0.0013696637470275164;0.005185441114008427;4.660531703848392e-05
0.0106201171875;-0.0752716064453125;-1.0140380859375;0.0013696637470275164;0.005185441114008427;4.660531703848392e-05
0.0106201171875;-0.0752716064453125;-1.0140380859375;0.0013696637470275164;0.005185441114008427;4.660531703848392e-05
0.0106201171875;-0.0752716064453125;-1.0140380859375;0.0013696637470275164;0.005185441114008427;4.660531703848392e-05
0.0106201171875;-0.0752716064453125;-1.0140380859375;0.0013696637470275164;0.005185441114008427;4.660531703848392e-05
0.009674072265625;-0.074859619140625;-1.01702880859375;0.01124839298427105;0.0026812704745680094;-0.0037731665652245283
0.009674072265625;-0.074859619140625;-1.01702880859375;0.01124839298427105;0.0026812704745680094;-0.0037731665652245283
0.009674072265625;-0.074859619140625;-1.01702880859375;0.01124839298427105;0.0026812704745680094;-0.0037731665652245283
0.009674072265625;-0.074859619140625;-1.01702880859375;0.01124839298427105;0.0026812704745680094;-0.0037731665652245283
0.009674072265625;-0.074859619140625;-1.01702880859375;0.01124839298427105;0.0026812704745680094;-0.0037731665652245283
0.009307861328125;-0.0744171142578125;-1.02001953125;0.019693011417984962;-0.0003818972909357399;-0.005338572897017002
0.009307861328125;-0.0744171142578125;-1.02001953125;0.019693011417984962;-0.0003818972909357399;-0.005338572897017002
0.009307861328125;-0.0744171142578125;-1.02001953125;0.019693011417984962;-0.0003818972909357399;-0.005338572897017002
0.009307861328125;-0.0744171142578125;-1.02001953125;0.019693011417984962;-0.0003818972909357399;-0.005338572897017002
0.009307861328125;-0.0744171142578125;-1.02001953125;0.019693011417984962;-0.0003818972909357399;-0.005338572897017002
0.0086212158203125;-0.075103759765625;-1.0178375244140625;0.022458437830209732;-0.0012751214671880007;-0.004687163513153791
0.0086212158203125;-0.075103759765625;-1.0178375244140625;0.022458437830209732;-0.0012751214671880007;-0.004687163513153791
0.0086212158203125;-0.075103759765625;-1.0178375244140625;0.022458437830209732;-0.0012751214671880007;-0.004687163513153791
0.0086212158203125;-0.075103759765625;-1.0178375244140625;0.022458437830209732;-0.0012751214671880007;-0.004687163513153791
0.0086212158203125;-0.075103759765625;-1.0178375244140625;0.022458437830209732;-0.0012751214671880007;-0.004687163513153791
0.0087432861328125;-0.076690673828125;-1.0165252685546875;0.021572669968008995;-0.0020125508308410645;-0.001731853699311614
0.0087432861328125;-0.076690673828125;-1.0165252685546875;0.021572669968008995;-0.0020125508308410645;-0.001731853699311614
0.0087432861328125;-0.076690673828125;-1.0165252685546875;0.021572669968008995;-0.0020125508308410645;-0.001731853699311614
0.0087432861328125;-0.076690673828125;-1.0165252685546875;0.021572669968008995;-0.0020125508308410645;-0.001731853699311614
0.0087432861328125;-0.076690673828125;-1.0165252685546875;0.021572669968008995;-0.0020125508308410645;-0.001731853699311614
0.0092315673828125;-0.07818603515625;-1.016693115234375;0.02347416616976261;-0.006518353242427111;-0.0010932276491075754
0.0092315673828125;-0.07818603515625;-1.016693115234375;0.02347416616976261;-0.006518353242427111;-0.0010932276491075754
0.0092315673828125;-0.07818603515625;-1.016693115234375;0.02347416616976261;-0.006518353242427111;-0.0010932276491075754
0.0092315673828125;-0.07818603515625;-1.016693115234375;0.02347416616976261;-0.006518353242427111;-0.0010932276491075754
0.0092315673828125;-0.07818603515625;-1.016693115234375;0.02347416616976261;-0.006518353242427111;-0.0010932276491075754
0.008636474609375;-0.080810546875;-1.016632080078125;0.020227773115038872;-0.007812116760760546;-0.0005552690709009767
0.008636474609375;-0.080810546875;-1.016632080078125;0.020227773115038872;-0.007812116760760546;-0.0005552690709009767
0.008636474609375;-0.080810546875;-1.016632080078125;0.020227773115038872;-0.007812116760760546;-0.0005552690709009767
0.008636474609375;-0.080810546875;-1.016632080078125;0.020227773115038872;-0.007812116760760546;-0.0005552690709009767
0.008636474609375;-0.080810546875;-1.016632080078125;0.020227773115038872;-0.007812116760760546;-0.0005552690709009767
0.0067291259765625;-0.083709716796875;-1.01470947265625;0.015170697122812271;-0.00881905760616064;-0.00421418622136116
0.0067291259765625;-0.083709716796875;-1.01470947265625;0.015170697122812271;-0.00881905760616064;-0.00421418622136116
0.0067291259765625;-0.083709716796875;-1.01470947265625;0.015170697122812271;-0.00881905760616064;-0.00421418622136116
0.0067291259765625;-0.083709716796875;-1.01470947265625;0.015170697122812271;-0.00881905760616064;-0.00421418622136116
0.0067291259765625;-0.083709716796875;-1.01470947265625;0.015170697122812271;-0.00881905760616064;-0.00421418622136116
0.0084228515625;-0.08447265625;-1.015533447265625;0.008048871532082558;-0.006539924535900354;-0.0037177728954702616
0.0084228515625;-0.08447265625;-1.015533447265625;0.008048871532082558;-0.006539924535900354;-0.0037177728954702616
0.0084228515625;-0.08447265625;-1.015533447265625;0.008048871532082558;-0.006539924535900354;-0.0037177728954702616
0.0084228515625;-0.08447265625;-1.015533447265625;0.008048871532082558;-0.006539924535900354;-0.0037177728954702616
0.0084228515625;-0.08447265625;-1.015533447265625;0.008048871532082558;-0.006539924535900354;-0.0037177728954702616
0.0078887939453125;-0.0845947265625;-1.01434326171875;0.0034935346338897943;-0.006303968373686075;-0.0013323795283213258
0.0078887939453125;-0.0845947265625;-1.01434326171875;0.0034935346338897943;-0.006303968373686075;-0.0013323795283213258
0.0078887939453125;-0.0845947265625;-1.01434326171875;0.0034935346338897943;-0.006303968373686075;-0.0013323795283213258
0.0078887939453125;-0.0845947265625;-1.01434326171875;0.0034935346338897943;-0.006303968373686075;-0.0013323795283213258
0.0078887939453125;-0.0845947265625;-1.01434326171875;0.0034935346338897943;-0.006303968373686075;-0.0013323795283213258
0.0069122314453125;-0.084808349609375;-1.0144805908203125;-0.0001102548703784123;-0.004138285759836435;-0.0018764632986858487
0.0069122314453125;-0.084808349609375;-1.0144805908203125;-0.0001102548703784123;-0.004138285759836435;-0.0018764632986858487
0.0069122314453125;-0.084808349609375;-1.0144805908203125;-0.0001102548703784123;-0.004138285759836435;-0.0018764632986858487
0.0069122314453125;-0.084808349609375;-1.0144805908203125;-0.0001102548703784123;-0.004138285759836435;-0.0018764632986858487
0.0069122314453125;-0.084808349609375;-1.0144805908203125;-0.0001102548703784123;-0.004138285759836435;-0.0018764632986858487
0.0077362060546875;-0.0848388671875;-1.0153656005859375;-0.004428304266184568;-0.005256014876067638;-0.0002569950302131474
0.0077362060546875;-0.0848388671875;-1.0153656005859375;-0.004428304266184568;-0.005256014876067638;-0.0002569950302131474
0.0077362060546875;-0.0848388671875;-1.0153656005859375;-0.004428304266184568;-0.005256014876067638;-0.0002569950302131474
0.0077362060546875;-0.0848388671875;-1.0153656005859375;-0.004428304266184568;-0.005256014876067638;-0.0002569950302131474
0.0077362060546875;-0.0848388671875;-1.0153656005859375;-0.004428304266184568;-0.005256014876067638;-0.0002569950302131474
0.0069732666015625;-0.084808349609375;-1.0146331787109375;-0.00911466870456934;-0.004633900243788958;-0.0018383801216259599
0.0069732666015625;-0.084808349609375;-1.0146331787109375;-0.00911466870456934;-0.004633900243788958;-0.0018383801216259599
0.0069732666015625;-0.084808349609375;-1.0146331787109375;-0.00911466870456934;-0.004633900243788958;-0.0018383801216259599
0.0069732666015625;-0.084808349609375;-1.0146331787109375;-0.00911466870456934;-0.004633900243788958;-0.0018383801216259599
0.0069732666015625;-0.084808349609375;-1.0146331787109375;-0.00911466870456934;-0.004633900243788958;-0.0018383801216259599
0.0075225830078125;-0.0842132568359375;-1.01385498046875;-0.018278606235980988;-0.004734301473945379;0.0002798982313834131
0.0075225830078125;-0.0842132568359375;-1.01385498046875;-0.018278606235980988;-0.004734301473945379;0.0002798982313834131
0.0075225830078125;-0.0842132568359375;-1.01385498046875;-0.018278606235980988;-0.004734301473945379;0.0002798982313834131
0.0075225830078125;-0.0842132568359375;-1.01385498046875;-0.018278606235980988;-0.004734301473945379;0.0002798982313834131
0.0075225830078125;-0.0842132568359375;-1.01385498046875;-0.018278606235980988;-0.004734301473945379;0.0002798982313834131
0.007293701171875;-0.0823516845703125;-1.013580322265625;-0.01919420063495636;-0.009758088737726212;8.255799002654385e-06
0.007293701171875;-0.0823516845703125;-1.013580322265625;-0.01919420063495636;-0.009758088737726212;8.255799002654385e-06
0.007293701171875;-0.0823516845703125;-1.013580322265625;-0.01919420063495636;-0.009758088737726212;8.255799002654385e-06
0.007293701171875;-0.0823516845703125;-1.013580322265625;-0.01919420063495636;-0.009758088737726212;8.255799002654385e-06
0.007293701171875;-0.0823516845703125;-1.013580322265625;-0.01919420063495636;-0.009758088737726212;8.255799002654385e-06
0.0066070556640625;-0.080596923828125;-1.017303466796875;-0.01980086974799633;-0.009788182564079762;0.004225371405482292
0.0066070556640625;-0.080596923828125;-1.017303466796875;-0.01980086974799633;-0.009788182564079762;0.004225371405482292
0.0066070556640625;-0.080596923828125;-1.017303466796875;-0.01980086974799633;-0.009788182564079762;0.004225371405482292
0.0066070556640625;-0.080596923828125;-1.017303466796875;-0.01980086974799633;-0.009788182564079762;0.004225371405482292
0.0066070556640625;-0.080596923828125;-1.017303466796875;-0.01980086974799633;-0.009788182564079762;0.004225371405482292
0.008636474609375;-0.078857421875;-1.013336181640625;-0.02183871902525425;-0.0030027141328901052;0.00632048025727272
0.008636474609375;-0.078857421875;-1.013336181640625;-0.02183871902525425;-0.0030027141328901052;0.00632048025727272
0.008636474609375;-0.078857421875;-1.013336181640625;-0.02183871902525425;-0.0030027141328901052;0.00632048025727272
0.008636474609375;-0.078857421875;-1.013336181640625;-0.02183871902525425;-0.0030027141328901052;0.00632048025727272
0.008636474609375;-0.078857421875;-1.013336181640625;-0.021825935691595078;0.0011406318517401814;0.0026077672373503447
0.0048828125;-0.07562255859375;-1.008819580078125;-0.021825935691595078;0.0011406318517401814;0.0026077672373503447
0.0048828125;-0.07562255859375;-1.008819580078125;-0.021825935691595078;0.0011406318517401814;0.0026077672373503447
0.0048828125;-0.07562255859375;-1.008819580078125;-0.021825935691595078;0.0011406318517401814;0.0026077672373503447
0.0048828125;-0.07562255859375;-1.008819580078125;-0.021825935691595078;0.0011406318517401814;0.0026077672373503447
0.0048828125;-0.07562255859375;-1.008819580078125;-0.014242053031921387;-0.005533249583095312;0.0018695390317589045
0.0023651123046875;-0.074310302734375;-1.01458740234375;-0.014242053031921387;-0.005533249583095312;0.0018695390317589045
0.0023651123046875;-0.074310302734375;-1.01458740234375;-0.014242053031921387;-0.005533249583095312;0.0018695390317589045
0.0023651123046875;-0.074310302734375;-1.01458740234375;-0.014242053031921387;-0.005533249583095312;0.0018695390317589045
0.0023651123046875;-0.074310302734375;-1.01458740234375;-0.014242053031921387;-0.005533249583095312;0.0018695390317589045
0.0023651123046875;-0.074310302734375;-1.01458740234375;4.447478931979276e-05;-0.007983357645571232;5.459480235003866e-05
0.0057830810546875;-0.074462890625;-1.0209197998046875;4.447478931979276e-05;-0.007983357645571232;5.459480235003866e-05
0.0057830810546875;-0.074462890625;-1.0209197998046875;4.447478931979276e-05;-0.007983357645571232;5.459480235003866e-05
0.0057830810546875;-0.074462890625;-1.0209197998046875;4.447478931979276e-05;-0.007983357645571232;5.459480235003866e-05
0.0057830810546875;-0.074462890625;-1.0209197998046875;4.447478931979276e-05;-0.007983357645571232;5.459480235003866e-05
0.0057830810546875;-0.074462890625;-1.0209197998046875;0.004835235420614481;-0.0013041499769315124;0.003632818115875125
0.0087127685546875;-0.07452392578125;-1.0212860107421875;0.004835235420614481;-0.0013041499769315124;0.003632818115875125
0.0087127685546875;-0.07452392578125;-1.0212860107421875;0.004835235420614481;-0.0013041499769315124;0.003632818115875125
0.0087127685546875;-0.07452392578125;-1.0212860107421875;0.004835235420614481;-0.0013041499769315124;0.003632818115875125
0.0087127685546875;-0.07452392578125;-1.0212860107421875;0.004835235420614481;-0.0013041499769315124;0.003632818115875125
0.0078125;-0.07470703125;-1.0132598876953125;0.00430020596832037;0.007159376051276922;0.00020133497309871018
0.0078125;-0.07470703125;-1.0132598876953125;0.00430020596832037;0.007159376051276922;0.00020133497309871018
0.0078125;-0.07470703125;-1.0132598876953125;0.00430020596832037;0.007159376051276922;0.00020133497309871018
0.0078125;-0.07470703125;-1.0132598876953125;0.00430020596832037;0.007159376051276922;0.00020133497309871018
0.0078125;-0.07470703125;-1.0132598876953125;0.00430020596832037;0.007159376051276922;0.00020133497309871018
0.0078125;-0.07470703125;-1.0132598876953125;0.00430020596832037;0.007159376051276922;0.00020133497309871018
0.0059814453125;-0.077545166015625;-1.009857177734375;0.0033217607997357845;0.013977334834635258;0.0007073355955071747
0.0059814453125;-0.077545166015625;-1.009857177734375;0.0033217607997357845;0.013977334834635258;0.0007073355955071747
0.0059814453125;-0.077545166015625;-1.009857177734375;0.0033217607997357845;0.013977334834635258;0.0007073355955071747
0.0059814453125;-0.077545166015625;-1.009857177734375;0.0033217607997357845;0.013977334834635258;0.0007073355955071747
0.0069122314453125;-0.07958984375;-1.01385498046875;-0.00038296254933811724;0.005029646214097738;-0.001133707701228559
0.0069122314453125;-0.07958984375;-1.01385498046875;-0.00038296254933811724;0.005029646214097738;-0.001133707701228559
0.0069122314453125;-0.07958984375;-1.01385498046875;-0.00038296254933811724;0.005029646214097738;-0.001133707701228559
0.0069122314453125;-0.07958984375;-1.01385498046875;-0.00038296254933811724;0.005029646214097738;-0.001133707701228559
0.0069122314453125;-0.07958984375;-1.01385498046875;-0.00038296254933811724;0.005029646214097738;-0.001133707701228559
0.00616455078125;-0.0802459716796875;-1.0156707763671875;-0.00038296254933811724;0.005029646214097738;-0.001133707701228559
0.00616455078125;-0.0802459716796875;-1.0156707763671875;-0.0034679684322327375;-0.005530053749680519;-0.0008886968716979027
0.00616455078125;-0.0802459716796875;-1.0156707763671875;-0.0034679684322327375;-0.005530053749680519;-0.0008886968716979027
0.00616455078125;-0.0802459716796875;-1.0156707763671875;-0.0034679684322327375;-0.005530053749680519;-0.0008886968716979027
0.00616455078125;-0.0802459716796875;-1.0156707763671875;-0.0034679684322327375;-0.005530053749680519;-0.0008886968716979027
0.0053253173828125;-0.0820770263671875;-1.013427734375;-0.002519350266084075;-0.010514159686863422;1.1451592399680521e-05
0.0053253173828125;-0.0820770263671875;-1.013427734375;-0.002519350266084075;-0.010514159686863422;1.1451592399680521e-05
0.0053253173828125;-0.0820770263671875;-1.013427734375;-0.002519350266084075;-0.010514159686863422;1.1451592399680521e-05
0.0053253173828125;-0.0820770263671875;-1.013427734375;-0.002519350266084075;-0.010514159686863422;1.1451592399680521e-05
0.0053253173828125;-0.0820770263671875;-1.013427734375;-0.002519350266084075;-0.010514159686863422;1.1451592399680521e-05
0.0050506591796875;-0.0818634033203125;-1.0117034912109375;-0.0024525050539523363;-0.009426258504390717;-0.0019941749051213264
0.0050506591796875;-0.0818634033203125;-1.0117034912109375;-0.0024525050539523363;-0.009426258504390717;-0.0019941749051213264
0.0050506591796875;-0.0818634033203125;-1.0117034912109375;-0.0024525050539523363;-0.009426258504390717;-0.0019941749051213264
0.0050506591796875;-0.0818634033203125;-1.0117034912109375;-0.0024525050539523363;-0.009426258504390717;-0.0019941749051213264
0.0050506591796875;-0.0818634033203125;-1.0117034912109375;-0.0024525050539523363;-0.009426258504390717;-0.0019941749051213264
0.0052947998046875;-0.0819091796875;-1.01007080078125;-0.0014386395923793316;-0.006018477492034435;0.0003147856332361698
0.0052947998046875;-0.0819091796875;-1.01007080078125;-0.0014386395923793316;-0.006018477492034435;0.0003147856332361698
0.0052947998046875;-0.0819091796875;-1.01007080078125;-0.0014386395923793316;-0.006018477492034435;0.0003147856332361698
0.0052947998046875;-0.0819091796875;-1.01007080078125;-0.0014386395923793316;-0.006018477492034435;0.0003147856332361698
0.0052947998046875;-0.0819091796875;-1.01007080078125;-0.0014386395923793316;-0.006018477492034435;0.0003147856332361698
0.0072021484375;-0.0818939208984375;-1.0113067626953125;0.0007909588166512549;-0.00027057717670686543;0.0006500775925815105
0.0072021484375;-0.0818939208984375;-1.0113067626953125;0.0007909588166512549;-0.00027057717670686543;0.0006500775925815105
0.0072021484375;-0.0818939208984375;-1.0113067626953125;0.0007909588166512549;-0.00027057717670686543;0.0006500775925815105
0.0072021484375;-0.0818939208984375;-1.0113067626953125;0.0007909588166512549;-0.00027057717670686543;0.0006500775925815105
0.0072021484375;-0.0818939208984375;-1.0113067626953125;0.0007909588166512549;-0.00027057717670686543;0.0006500775925815105
0.0089263916015625;-0.08056640625;-1.01318359375;0.0032474587205797434;0.0031004520133137703;0.0005118595436215401
0.0089263916015625;-0.08056640625;-1.01318359375;0.0032474587205797434;0.0031004520133137703;0.0005118595436215401
0.0089263916015625;-0.08056640625;-1.01318359375;0.0032474587205797434;0.0031004520133137703;0.0005118595436215401
0.0089263916015625;-0.08056640625;-1.01318359375;0.0032474587205797434;0.0031004520133137703;0.0005118595436215401
0.0089263916015625;-0.08056640625;-1.01318359375;0.0032474587205797434;0.0031004520133137703;0.0005118595436215401
0.0098724365234375;-0.079833984375;-1.013946533203125;0.0025015072897076607;-8.309062832267955e-05;0.004174238536506891
0.0098724365234375;-0.079833984375;-1.013946533203125;0.0025015072897076607;-8.309062832267955e-05;0.004174238536506891
0.0098724365234375;-0.079833984375;-1.013946533203125;0.0025015072897076607;-8.309062832267955e-05;0.004174238536506891
0.0098724365234375;-0.079833984375;-1.013946533203125;0.0025015072897076607;-8.309062832267955e-05;0.004174238536506891
0.010223388671875;-0.0785675048828125;-1.014862060546875;0.005061604082584381;0.0002825613773893565;0.00628932099789381
0.010223388671875;-0.0785675048828125;-1.014862060546875;0.005061604082584381;0.0002825613773893565;0.00628932099789381
0.010223388671875;-0.0785675048828125;-1.014862060546875;0.005061604082584381;0.0002825613773893565;0.00628932099789381
0.010223388671875;-0.0785675048828125;-1.014862060546875;0.005061604082584381;0.0002825613773893565;0.00628932099789381
0.010223388671875;-0.0785675048828125;-1.014862060546875;0.005061604082584381;0.0002825613773893565;0.00628932099789381
0.0091400146484375;-0.078369140625;-1.013916015625;0.003183809109032154;0.00350418733432889;0.004923652391880751
0.0091400146484375;-0.078369140625;-1.013916015625;0.003183809109032154;0.00350418733432889;0.004923652391880751
0.0091400146484375;-0.078369140625;-1.013916015625;0.003183809109032154;0.00350418733432889;0.004923652391880751
0.0091400146484375;-0.078369140625;-1.013916015625;0.003183809109032154;0.00350418733432889;0.004923652391880751
0.0091400146484375;-0.078369140625;-1.013916015625;0.003183809109032154;0.00350418733432889;0.004923652391880751
0.00860595703125;-0.0780181884765625;-1.012847900390625;-0.0001358212175546214;0.000767523015383631;0.003254649229347706
0.00860595703125;-0.0780181884765625;-1.012847900390625;-0.0001358212175546214;0.000767523015383631;0.003254649229347706
0.00860595703125;-0.0780181884765625;-1.012847900390625;-0.0001358212175546214;0.000767523015383631;0.003254649229347706
0.00860595703125;-0.0780181884765625;-1.012847900390625;-0.0001358212175546214;0.000767523015383631;0.003254649229347706
0.00860595703125;-0.0780181884765625;-1.012847900390625;-0.0001358212175546214;0.000767523015383631;0.003254649229347706
0.006927490234375;-0.0778350830078125;-1.01226806640625;0.0026011094450950623;0.0013792511308565736;0.003025350859388709
0.006927490234375;-0.0778350830078125;-1.01226806640625;0.0026011094450950623;0.0013792511308565736;0.003025350859388709
0.006927490234375;-0.0778350830078125;-1.01226806640625;0.0026011094450950623;0.0013792511308565736;0.003025350859388709
0.006927490234375;-0.0778350830078125;-1.01226806640625;0.0026011094450950623;0.0013792511308565736;0.003025350859388709
0.006927490234375;-0.0778350830078125;-1.01226806640625;0.0026011094450950623;0.0013792511308565736;0.003025350859388709
0.0067138671875;-0.077667236328125;-1.016448974609375;0.0035393410362303257;-0.003608316881582141;0.0034173682797700167
