Acell X;Acell Y;Acell Z;Gyro X;Gyro Y;Gyro Z

-0.013824462890625;-0.108489990234375;-1.0096435546875;-0.028741367161273956;0.0025648903101682663;0.011484349146485329
-0.013824462890625;-0.108489990234375;-1.0096435546875;-0.028741367161273956;0.0025648903101682663;0.011484349146485329
-0.0163116455078125;-0.1083984375;-1.018035888671875;-0.024223580956459045;-0.026433471590280533;0.014789066277444363
-0.0163116455078125;-0.1083984375;-1.018035888671875;-0.024223580956459045;-0.026433471590280533;0.014789066277444363
-0.0163116455078125;-0.1083984375;-1.018035888671875;-0.024223580956459045;-0.026433471590280533;0.014789066277444363
-0.0163116455078125;-0.1083984375;-1.018035888671875;-0.024223580956459045;-0.026433471590280533;0.014789066277444363
-0.0163116455078125;-0.1083984375;-1.018035888671875;-0.024223580956459045;-0.026433471590280533;0.014789066277444363
-0.0163116455078125;-0.1083984375;-1.018035888671875;-0.020110594108700752;-0.02412451058626175;0.01446922030299902
-0.0172882080078125;-0.1068267822265625;-1.019927978515625;-0.020110594108700752;-0.02412451058626175;0.01446922030299902
-0.0172882080078125;-0.1068267822265625;-1.019927978515625;-0.020110594108700752;-0.02412451058626175;0.01446922030299902
-0.0172882080078125;-0.1068267822265625;-1.019927978515625;-0.020110594108700752;-0.02412451058626175;0.01446922030299902
-0.0172882080078125;-0.1068267822265625;-1.019927978515625;-0.020110594108700752;-0.02412451058626175;0.01446922030299902
-0.018707275390625;-0.10382080078125;-1.012969970703125;-0.013287043198943138;-0.004165716469287872;0.013747770339250565
-0.018707275390625;-0.10382080078125;-1.012969970703125;-0.013287043198943138;-0.004165716469287872;0.013747770339250565
-0.018707275390625;-0.10382080078125;-1.012969970703125;-0.013287043198943138;-0.004165716469287872;0.013747770339250565
-0.018707275390625;-0.10382080078125;-1.012969970703125;-0.013287043198943138;-0.004165716469287872;0.013747770339250565
-0.018707275390625;-0.10382080078125;-1.012969970703125;-0.013287043198943138;-0.004165716469287872;0.013747770339250565
-0.0206298828125;-0.103668212890625;-1.010711669921875;-0.008279767818748951;0.01329769566655159;0.010262757539749146
-0.0206298828125;-0.103668212890625;-1.010711669921875;-0.008279767818748951;0.01329769566655159;0.010262757539749146
-0.0206298828125;-0.103668212890625;-1.010711669921875;-0.008279767818748951;0.01329769566655159;0.010262757539749146
-0.0206298828125;-0.103668212890625;-1.010711669921875;-0.008279767818748951;0.01329769566655159;0.010262757539749146
-0.0206298828125;-0.103668212890625;-1.010711669921875;-0.008279767818748951;0.01329769566655159;0.010262757539749146
-0.02081298828125;-0.1049652099609375;-1.0111541748046875;-0.0046304380521178246;0.012429505586624146;0.010634268634021282
-0.02081298828125;-0.1049652099609375;-1.0111541748046875;-0.0046304380521178246;0.012429505586624146;0.010634268634021282
-0.02081298828125;-0.1049652099609375;-1.0111541748046875;-0.0046304380521178246;0.012429505586624146;0.010634268634021282
-0.02081298828125;-0.1049652099609375;-1.0111541748046875;-0.0046304380521178246;0.012429505586624146;0.010634268634021282
-0.02081298828125;-0.1049652099609375;-1.0111541748046875;-0.0046304380521178246;0.012429505586624146;0.010634268634021282
-0.019989013671875;-0.107086181640625;-1.0137481689453125;0.0044022053480148315;0.0013379721203818917;0.009398561902344227
-0.019989013671875;-0.107086181640625;-1.0137481689453125;0.0044022053480148315;0.0013379721203818917;0.009398561902344227
-0.019989013671875;-0.107086181640625;-1.0137481689453125;0.0044022053480148315;0.0013379721203818917;0.009398561902344227
-0.019989013671875;-0.107086181640625;-1.0137481689453125;0.0044022053480148315;0.0013379721203818917;0.009398561902344227
-0.019989013671875;-0.107086181640625;-1.0137481689453125;0.0044022053480148315;0.0013379721203818917;0.009398561902344227
-0.0198211669921875;-0.1085205078125;-1.0145416259765625;0.005842176266014576;-0.01125158928334713;0.00836925022304058
-0.0198211669921875;-0.1085205078125;-1.0145416259765625;0.005842176266014576;-0.01125158928334713;0.00836925022304058
-0.0198211669921875;-0.1085205078125;-1.0145416259765625;0.005842176266014576;-0.01125158928334713;0.00836925022304058
-0.0198211669921875;-0.1085205078125;-1.0145416259765625;0.005842176266014576;-0.01125158928334713;0.00836925022304058
-0.0198211669921875;-0.1085205078125;-1.0145416259765625;0.005842176266014576;-0.01125158928334713;0.00836925022304058
-0.020721435546875;-0.111328125;-1.011871337890625;0.008508266881108284;-0.015026886016130447;0.009090167470276356
-0.020721435546875;-0.111328125;-1.011871337890625;0.008508266881108284;-0.015026886016130447;0.009090167470276356
-0.020721435546875;-0.111328125;-1.011871337890625;0.008508266881108284;-0.015026886016130447;0.009090167470276356
-0.020721435546875;-0.111328125;-1.011871337890625;0.008508266881108284;-0.015026886016130447;0.009090167470276356
-0.020721435546875;-0.111328125;-1.011871337890625;0.008508266881108284;-0.015026886016130447;0.009090167470276356
-0.0213623046875;-0.114990234375;-1.007598876953125;0.00657534459605813;-0.006888266187161207;0.01315282005816698
-0.0213623046875;-0.114990234375;-1.007598876953125;0.00657534459605813;-0.006888266187161207;0.01315282005816698
-0.0213623046875;-0.114990234375;-1.007598876953125;0.00657534459605813;-0.006888266187161207;0.01315282005816698
-0.0213623046875;-0.114990234375;-1.007598876953125;0.00657534459605813;-0.006888266187161207;0.01315282005816698
-0.0213623046875;-0.114990234375;-1.007598876953125;0.00657534459605813;-0.006888266187161207;0.01315282005816698
-0.020965576171875;-0.11480712890625;-1.0016326904296875;-0.005118861794471741;0.0037997981999069452;0.012778911739587784
-0.020965576171875;-0.11480712890625;-1.0016326904296875;-0.005118861794471741;0.0037997981999069452;0.012778911739587784
-0.020965576171875;-0.11480712890625;-1.0016326904296875;-0.005118861794471741;0.0037997981999069452;0.012778911739587784
-0.020965576171875;-0.11480712890625;-1.0016326904296875;-0.005118861794471741;0.0037997981999069452;0.012778911739587784
-0.020965576171875;-0.11480712890625;-1.0016326904296875;-0.005118861794471741;0.0037997981999069452;0.012778911739587784
-0.0217132568359375;-0.11468505859375;-1.002532958984375;-0.01251179724931717;0.009850766509771347;0.015022092498838902
-0.0217132568359375;-0.11468505859375;-1.002532958984375;-0.01251179724931717;0.009850766509771347;0.015022092498838902
-0.0217132568359375;-0.11468505859375;-1.002532958984375;-0.01251179724931717;0.009850766509771347;0.015022092498838902
-0.0217132568359375;-0.11468505859375;-1.002532958984375;-0.01251179724931717;0.009850766509771347;0.015022092498838902
-0.0217132568359375;-0.11468505859375;-1.002532958984375;-0.01251179724931717;0.009850766509771347;0.015022092498838902
-0.0213165283203125;-0.1142120361328125;-1.003631591796875;-0.020711669698357582;0.0027537085115909576;0.012313657440245152
-0.0213165283203125;-0.1142120361328125;-1.003631591796875;-0.020711669698357582;0.0027537085115909576;0.012313657440245152
-0.0213165283203125;-0.1142120361328125;-1.003631591796875;-0.020711669698357582;0.0027537085115909576;0.012313657440245152
-0.0213165283203125;-0.1142120361328125;-1.003631591796875;-0.020711669698357582;0.0027537085115909576;0.012313657440245152
-0.0213165283203125;-0.1142120361328125;-1.003631591796875;-0.020711669698357582;0.0027537085115909576;0.012313657440245152
-0.022613525390625;-0.111541748046875;-1.0048828125;-0.030178941786289215;-0.0014346449170261621;0.015085209161043167
-0.022613525390625;-0.111541748046875;-1.0048828125;-0.030178941786289215;-0.0014346449170261621;0.015085209161043167
-0.022613525390625;-0.111541748046875;-1.0048828125;-0.030178941786289215;-0.0014346449170261621;0.015085209161043167
-0.022613525390625;-0.111541748046875;-1.0048828125;-0.030178941786289215;-0.0014346449170261621;0.015085209161043167
-0.022613525390625;-0.111541748046875;-1.0048828125;-0.030178941786289215;-0.0014346449170261621;0.015085209161043167
-0.0213165283203125;-0.1074371337890625;-1.0025177001953125;-0.03596945106983185;-0.0021763353142887354;0.013626063242554665
-0.0213165283203125;-0.1074371337890625;-1.0025177001953125;-0.03596945106983185;-0.0021763353142887354;0.013626063242554665
-0.0213165283203125;-0.1074371337890625;-1.0025177001953125;-0.03596945106983185;-0.0021763353142887354;0.013626063242554665
-0.0213165283203125;-0.1074371337890625;-1.0025177001953125;-0.03596945106983185;-0.0021763353142887354;0.013626063242554665
-0.0213165283203125;-0.1074371337890625;-1.0025177001953125;-0.03596945106983185;-0.0021763353142887354;0.013626063242554665
-0.0212249755859375;-0.1060943603515625;-1.0022430419921875;-0.03557503968477249;-0.005979329347610474;0.016386697068810463
-0.0212249755859375;-0.1060943603515625;-1.0022430419921875;-0.03557503968477249;-0.005979329347610474;0.016386697068810463
-0.0212249755859375;-0.1060943603515625;-1.0022430419921875;-0.03557503968477249;-0.005979329347610474;0.016386697068810463
-0.0212249755859375;-0.1060943603515625;-1.0022430419921875;-0.03557503968477249;-0.005979329347610474;0.016386697068810463
-0.0212249755859375;-0.1060943603515625;-1.0022430419921875;-0.03557503968477249;-0.005979329347610474;0.016386697068810463
-0.022430419921875;-0.1024169921875;-1.007843017578125;-0.028020182624459267;-0.012253737077116966;0.011481952853500843
-0.022430419921875;-0.1024169921875;-1.007843017578125;-0.028020182624459267;-0.012253737077116966;0.011481952853500843
-0.022430419921875;-0.1024169921875;-1.007843017578125;-0.028020182624459267;-0.012253737077116966;0.011481952853500843
-0.022430419921875;-0.1024169921875;-1.007843017578125;-0.028020182624459267;-0.012253737077116966;0.011481952853500843
-0.022430419921875;-0.1024169921875;-1.007843017578125;-0.028020182624459267;-0.012253737077116966;0.011481952853500843
-0.021087646484375;-0.1012420654296875;-1.0110626220703125;-0.019103653728961945;-0.013025520369410515;0.01227690652012825
-0.021087646484375;-0.1012420654296875;-1.0110626220703125;-0.019103653728961945;-0.013025520369410515;0.01227690652012825
-0.021087646484375;-0.1012420654296875;-1.0110626220703125;-0.019103653728961945;-0.013025520369410515;0.01227690652012825
-0.021087646484375;-0.1012420654296875;-1.0110626220703125;-0.019103653728961945;-0.013025520369410515;0.01227690652012825
-0.021087646484375;-0.1012420654296875;-1.0110626220703125;-0.019103653728961945;-0.013025520369410515;0.01227690652012825
-0.0204925537109375;-0.1009063720703125;-1.0111236572265625;-0.012484099715948105;-0.008837167173624039;0.014479606412351131
-0.0204925537109375;-0.1009063720703125;-1.0111236572265625;-0.012484099715948105;-0.008837167173624039;0.014479606412351131
-0.0204925537109375;-0.1009063720703125;-1.0111236572265625;-0.012484099715948105;-0.008837167173624039;0.014479606412351131
-0.0204925537109375;-0.1009063720703125;-1.0111236572265625;-0.012484099715948105;-0.008837167173624039;0.014479606412351131
-0.0204925537109375;-0.1009063720703125;-1.0111236572265625;-0.012484099715948105;-0.008837167173624039;0.014479606412351131
-0.0208587646484375;-0.1008148193359375;-1.009033203125;-0.008530370891094208;-0.0024833977222442627;0.01581891067326069
-0.0208587646484375;-0.1008148193359375;-1.009033203125;-0.008530370891094208;-0.0024833977222442627;0.01581891067326069
-0.0208587646484375;-0.1008148193359375;-1.009033203125;-0.008530370891094208;-0.0024833977222442627;0.01581891067326069
-0.0208587646484375;-0.1008148193359375;-1.009033203125;-0.008530370891094208;-0.0024833977222442627;0.01581891067326069
-0.0208587646484375;-0.1008148193359375;-1.009033203125;-0.008530370891094208;-0.0024833977222442627;0.01581891067326069
-0.019439697265625;-0.10223388671875;-1.00909423828125;-0.010394051671028137;-0.005797701422125101;0.017044764012098312
-0.019439697265625;-0.10223388671875;-1.00909423828125;-0.010394051671028137;-0.005797701422125101;0.017044764012098312
-0.019439697265625;-0.10223388671875;-1.00909423828125;-0.010394051671028137;-0.005797701422125101;0.017044764012098312
-0.019439697265625;-0.10223388671875;-1.00909423828125;-0.010394051671028137;-0.005797701422125101;0.017044764012098312
-0.019439697265625;-0.10223388671875;-1.00909423828125;-0.010394051671028137;-0.005797701422125101;0.017044764012098312
-0.0186614990234375;-0.1025848388671875;-1.011260986328125;-0.012735236436128616;-0.004186489153653383;0.016335031017661095
-0.0186614990234375;-0.1025848388671875;-1.011260986328125;-0.012735236436128616;-0.004186489153653383;0.016335031017661095
-0.0186614990234375;-0.1025848388671875;-1.011260986328125;-0.012735236436128616;-0.004186489153653383;0.016335031017661095
-0.0186614990234375;-0.1025848388671875;-1.011260986328125;-0.012735236436128616;-0.004186489153653383;0.016335031017661095
-0.0186614990234375;-0.1025848388671875;-1.011260986328125;-0.012735236436128616;-0.004186489153653383;0.016335031017661095
-0.01873779296875;-0.10198974609375;-1.0110015869140625;-0.012254003435373306;-0.00635004136711359;0.014044712297618389
-0.01873779296875;-0.10198974609375;-1.0110015869140625;-0.012254003435373306;-0.00635004136711359;0.014044712297618389
-0.01873779296875;-0.10198974609375;-1.0110015869140625;-0.012254003435373306;-0.00635004136711359;0.014044712297618389
-0.01873779296875;-0.10198974609375;-1.0110015869140625;-0.012254003435373306;-0.00635004136711359;0.014044712297618389
-0.01873779296875;-0.10198974609375;-1.0110015869140625;-0.012254003435373306;-0.00635004136711359;0.014044712297618389
-0.0186767578125;-0.1014251708984375;-1.0081024169921875;-0.014553376473486423;0.001261273049749434;0.014838334172964096
-0.0186767578125;-0.1014251708984375;-1.0081024169921875;-0.014553376473486423;0.001261273049749434;0.014838334172964096
-0.0186767578125;-0.1014251708984375;-1.0081024169921875;-0.014553376473486423;0.001261273049749434;0.014838334172964096
-0.0186767578125;-0.1014251708984375;-1.0081024169921875;-0.014553376473486423;0.001261273049749434;0.014838334172964096
-0.0186767578125;-0.1014251708984375;-1.0081024169921875;-0.014553376473486423;0.001261273049749434;0.014838334172964096
-0.0202789306640625;-0.1028594970703125;-1.00799560546875;-0.014935806393623352;0.006618488114327192;0.011493937112390995
-0.0202789306640625;-0.1028594970703125;-1.00799560546875;-0.014935806393623352;0.006618488114327192;0.011493937112390995
-0.0202789306640625;-0.1028594970703125;-1.00799560546875;-0.014935806393623352;0.006618488114327192;0.011493937112390995
-0.0202789306640625;-0.1028594970703125;-1.00799560546875;-0.014935806393623352;0.006618488114327192;0.011493937112390995
-0.0202789306640625;-0.1028594970703125;-1.00799560546875;-0.014935806393623352;0.006618488114327192;0.011493937112390995
-0.020782470703125;-0.10345458984375;-1.011383056640625;-0.016202405095100403;0.005855758674442768;0.010176737792789936
-0.020782470703125;-0.10345458984375;-1.011383056640625;-0.016202405095100403;0.005855758674442768;0.010176737792789936
-0.020782470703125;-0.10345458984375;-1.011383056640625;-0.016202405095100403;0.005855758674442768;0.010176737792789936
-0.020782470703125;-0.10345458984375;-1.011383056640625;-0.016202405095100403;0.005855758674442768;0.010176737792789936
-0.020782470703125;-0.10345458984375;-1.011383056640625;-0.016202405095100403;0.005855758674442768;0.010176737792789936
-0.0209808349609375;-0.10577392578125;-1.01251220703125;-0.011642009019851685;0.0029561088886111975;0.00971521157771349
-0.0209808349609375;-0.10577392578125;-1.01251220703125;-0.011642009019851685;0.0029561088886111975;0.00971521157771349
-0.0209808349609375;-0.10577392578125;-1.01251220703125;-0.011642009019851685;0.0029561088886111975;0.00971521157771349
-0.0209808349609375;-0.10577392578125;-1.01251220703125;-0.011642009019851685;0.0029561088886111975;0.00971521157771349
-0.0209808349609375;-0.10577392578125;-1.01251220703125;-0.011642009019851685;0.0029561088886111975;0.00971521157771349
-0.020721435546875;-0.10662841796875;-1.0108184814453125;-0.015244199894368649;0.008479238487780094;0.008535697124898434
-0.020721435546875;-0.10662841796875;-1.0108184814453125;-0.015244199894368649;0.008479238487780094;0.008535697124898434
-0.020721435546875;-0.10662841796875;-1.0108184814453125;-0.015244199894368649;0.008479238487780094;0.008535697124898434
-0.020721435546875;-0.10662841796875;-1.0108184814453125;-0.015244199894368649;0.008479238487780094;0.008535697124898434
-0.020721435546875;-0.10662841796875;-1.0108184814453125;-0.015244199894368649;0.008479238487780094;0.008535697124898434
-0.0200347900390625;-0.107086181640625;-1.0066986083984375;-0.024357270449399948;0.012425510212779045;0.007611314300447702
-0.0200347900390625;-0.107086181640625;-1.0066986083984375;-0.024357270449399948;0.012425510212779045;0.007611314300447702
-0.0200347900390625;-0.107086181640625;-1.0066986083984375;-0.024357270449399948;0.012425510212779045;0.007611314300447702
-0.0200347900390625;-0.107086181640625;-1.0066986083984375;-0.024357270449399948;0.012425510212779045;0.007611314300447702
-0.0200347900390625;-0.107086181640625;-1.0066986083984375;-0.024357270449399948;0.012425510212779045;0.007611314300447702
-0.01898193359375;-0.107574462890625;-1.0045318603515625;-0.03320775553584099;0.011359713971614838;0.008913599886000156
-0.01898193359375;-0.107574462890625;-1.0045318603515625;-0.03320775553584099;0.011359713971614838;0.008913599886000156
-0.01898193359375;-0.107574462890625;-1.0045318603515625;-0.03320775553584099;0.011359713971614838;0.008913599886000156
-0.01898193359375;-0.107574462890625;-1.0045318603515625;-0.03320775553584099;0.011359713971614838;0.008913599886000156
-0.01898193359375;-0.107574462890625;-1.0045318603515625;-0.03320775553584099;0.011359713971614838;0.008913599886000156
-0.0178375244140625;-0.108001708984375;-1.0048065185546875;-0.04277675971388817;0.0067878649570047855;0.008980179205536842
-0.0178375244140625;-0.108001708984375;-1.0048065185546875;-0.04277675971388817;0.0067878649570047855;0.008980179205536842
-0.0178375244140625;-0.108001708984375;-1.0048065185546875;-0.04277675971388817;0.0067878649570047855;0.008980179205536842
-0.0178375244140625;-0.108001708984375;-1.0048065185546875;-0.04277675971388817;0.0067878649570047855;0.008980179205536842
-0.0178375244140625;-0.108001708984375;-1.0048065185546875;-0.04277675971388817;0.0067878649570047855;0.008980179205536842
-0.017669677734375;-0.108428955078125;-1.0086517333984375;-0.04567001760005951;0.000984836951829493;0.007722900714725256
-0.017669677734375;-0.108428955078125;-1.0086517333984375;-0.04567001760005951;0.000984836951829493;0.007722900714725256
-0.017669677734375;-0.108428955078125;-1.0086517333984375;-0.04567001760005951;0.000984836951829493;0.007722900714725256
-0.017669677734375;-0.108428955078125;-1.0086517333984375;-0.04567001760005951;0.000984836951829493;0.007722900714725256
-0.017669677734375;-0.108428955078125;-1.0086517333984375;-0.04567001760005951;0.000984836951829493;0.007722900714725256
-0.017578125;-0.107147216796875;-1.01324462890625;-0.039985232055187225;-0.008855809457600117;0.005847502965480089
-0.017578125;-0.107147216796875;-1.01324462890625;-0.039985232055187225;-0.008855809457600117;0.005847502965480089
-0.017578125;-0.107147216796875;-1.01324462890625;-0.039985232055187225;-0.008855809457600117;0.005847502965480089
-0.017578125;-0.107147216796875;-1.01324462890625;-0.039985232055187225;-0.008855809457600117;0.005847502965480089
-0.017578125;-0.107147216796875;-1.01324462890625;-0.039985232055187225;-0.008855809457600117;0.005847502965480089
-0.0175018310546875;-0.1044921875;-1.0140533447265625;-0.037026725709438324;-0.01287585124373436;0.007586813066154718
-0.0175018310546875;-0.1044921875;-1.0140533447265625;-0.037026725709438324;-0.01287585124373436;0.007586813066154718
-0.0175018310546875;-0.1044921875;-1.0140533447265625;-0.037026725709438324;-0.01287585124373436;0.007586813066154718
-0.0175018310546875;-0.1044921875;-1.0140533447265625;-0.037026725709438324;-0.01287585124373436;0.007586813066154718
-0.0175018310546875;-0.1044921875;-1.0140533447265625;-0.037026725709438324;-0.01287585124373436;0.007586813066154718
-0.0190887451171875;-0.102081298828125;-1.0114288330078125;-0.032823991030454636;-0.009063003584742546;0.005654423497617245
-0.0190887451171875;-0.102081298828125;-1.0114288330078125;-0.032823991030454636;-0.009063003584742546;0.005654423497617245
-0.0190887451171875;-0.102081298828125;-1.0114288330078125;-0.032823991030454636;-0.009063003584742546;0.005654423497617245
-0.0190887451171875;-0.102081298828125;-1.0114288330078125;-0.032823991030454636;-0.009063003584742546;0.005654423497617245
-0.0190887451171875;-0.102081298828125;-1.0114288330078125;-0.03106044791638851;-0.0033358754590153694;0.00929176900535822
-0.0201873779296875;-0.1013031005859375;-1.010223388671875;-0.03106044791638851;-0.0033358754590153694;0.00929176900535822
-0.0201873779296875;-0.1013031005859375;-1.010223388671875;-0.03106044791638851;-0.0033358754590153694;0.00929176900535822
-0.0201873779296875;-0.1013031005859375;-1.010223388671875;-0.03106044791638851;-0.0033358754590153694;0.00929176900535822
-0.0201873779296875;-0.1013031005859375;-1.010223388671875;-0.03106044791638851;-0.0033358754590153694;0.00929176900535822
-0.020050048828125;-0.1006317138671875;-1.0096435546875;-0.03705042973160744;0.005058940965682268;0.010144246742129326
-0.020050048828125;-0.1006317138671875;-1.0096435546875;-0.03705042973160744;0.005058940965682268;0.010144246742129326
-0.020050048828125;-0.1006317138671875;-1.0096435546875;-0.03705042973160744;0.005058940965682268;0.010144246742129326
-0.020050048828125;-0.1006317138671875;-1.0096435546875;-0.03705042973160744;0.005058940965682268;0.010144246742129326
-0.020050048828125;-0.1006317138671875;-1.0096435546875;-0.03705042973160744;0.005058940965682268;0.010144246742129326
-0.020050048828125;-0.1006317138671875;-1.0096435546875;-0.04486813768744469;0.0067902617156505585;0.005510080140084028
-0.0205841064453125;-0.1007843017578125;-1.00653076171875;-0.04486813768744469;0.0067902617156505585;0.005510080140084028
-0.0205841064453125;-0.1007843017578125;-1.00653076171875;-0.04486813768744469;0.0067902617156505585;0.005510080140084028
-0.0205841064453125;-0.1007843017578125;-1.00653076171875;-0.04486813768744469;0.0067902617156505585;0.005510080140084028
-0.0205841064453125;-0.1007843017578125;-1.00653076171875;-0.04486813768744469;0.0067902617156505585;0.005510080140084028
-0.0205841064453125;-0.1007843017578125;-1.00653076171875;-0.05379718542098999;0.005189169198274612;0.00341550400480628
-0.0221710205078125;-0.1020355224609375;-1.0075836181640625;-0.05379718542098999;0.005189169198274612;0.00341550400480628
-0.0221710205078125;-0.1020355224609375;-1.0075836181640625;-0.05379718542098999;0.005189169198274612;0.00341550400480628
-0.0221710205078125;-0.1020355224609375;-1.0075836181640625;-0.05379718542098999;0.005189169198274612;0.00341550400480628
-0.0221710205078125;-0.1020355224609375;-1.0075836181640625;-0.05379718542098999;0.005189169198274612;0.00341550400480628
-0.022247314453125;-0.100921630859375;-1.0086669921875;-0.053582001477479935;0.002347576431930065;0.001648496720008552
-0.022247314453125;-0.100921630859375;-1.0086669921875;-0.053582001477479935;0.002347576431930065;0.001648496720008552
-0.022247314453125;-0.100921630859375;-1.0086669921875;-0.053582001477479935;0.002347576431930065;0.001648496720008552
-0.022247314453125;-0.100921630859375;-1.0086669921875;-0.053582001477479935;0.002347576431930065;0.001648496720008552
-0.022247314453125;-0.100921630859375;-1.0086669921875;-0.053582001477479935;0.002347576431930065;0.001648496720008552
-0.0217742919921875;-0.0980682373046875;-1.012115478515625;-0.04164491593837738;-0.0023089605383574963;0.005044027231633663
-0.0217742919921875;-0.0980682373046875;-1.012115478515625;-0.04164491593837738;-0.0023089605383574963;0.005044027231633663
-0.0217742919921875;-0.0980682373046875;-1.012115478515625;-0.04164491593837738;-0.0023089605383574963;0.005044027231633663
-0.0217742919921875;-0.0980682373046875;-1.012115478515625;-0.04164491593837738;-0.0023089605383574963;0.005044027231633663
-0.0217742919921875;-0.0980682373046875;-1.012115478515625;-0.04164491593837738;-0.0023089605383574963;0.005044027231633663
-0.0212554931640625;-0.097503662109375;-1.0139312744140625;-0.03220374137163162;-0.009733054786920547;0.005094094667583704
-0.0212554931640625;-0.097503662109375;-1.0139312744140625;-0.03220374137163162;-0.009733054786920547;0.005094094667583704
-0.0212554931640625;-0.097503662109375;-1.0139312744140625;-0.03220374137163162;-0.009733054786920547;0.005094094667583704
-0.0212554931640625;-0.097503662109375;-1.0139312744140625;-0.03220374137163162;-0.009733054786920547;0.005094094667583704
-0.0212554931640625;-0.097503662109375;-1.0139312744140625;-0.03220374137163162;-0.009733054786920547;0.005094094667583704
-0.020782470703125;-0.09716796875;-1.0119171142578125;-0.02468164451420307;-0.009359147399663925;0.0030192257836461067
-0.020782470703125;-0.09716796875;-1.0119171142578125;-0.02468164451420307;-0.009359147399663925;0.0030192257836461067
-0.020782470703125;-0.09716796875;-1.0119171142578125;-0.02468164451420307;-0.009359147399663925;0.0030192257836461067
-0.020782470703125;-0.09716796875;-1.0119171142578125;-0.02468164451420307;-0.009359147399663925;0.0030192257836461067
-0.020782470703125;-0.09716796875;-1.0119171142578125;-0.02468164451420307;-0.009359147399663925;0.0030192257836461067
-0.0204010009765625;-0.097442626953125;-1.007720947265625;-0.019590744748711586;-0.00558145297691226;0.007274158298969269
-0.0204010009765625;-0.097442626953125;-1.007720947265625;-0.019590744748711586;-0.00558145297691226;0.007274158298969269
-0.0204010009765625;-0.097442626953125;-1.007720947265625;-0.019590744748711586;-0.00558145297691226;0.007274158298969269
-0.0204010009765625;-0.097442626953125;-1.007720947265625;-0.019590744748711586;-0.00558145297691226;0.007274158298969269
-0.0204010009765625;-0.097442626953125;-1.007720947265625;-0.019590744748711586;-0.00558145297691226;0.007274158298969269
-0.0204010009765625;-0.097442626953125;-1.007720947265625;-0.019590744748711586;-0.00558145297691226;0.007274158298969269
-0.01983642578125;-0.0970458984375;-1.0074615478515625;-0.017944378778338432;-0.001969407545402646;0.007765245158225298
-0.01983642578125;-0.0970458984375;-1.0074615478515625;-0.017944378778338432;-0.001969407545402646;0.007765245158225298
-0.01983642578125;-0.0970458984375;-1.0074615478515625;-0.017944378778338432;-0.001969407545402646;0.007765245158225298
-0.01983642578125;-0.0970458984375;-1.0074615478515625;-0.017944378778338432;-0.001969407545402646;0.007765245158225298
-0.019744873046875;-0.0958709716796875;-1.00830078125;-0.019827766343951225;0.0029060414526611567;0.00692022405564785
-0.019744873046875;-0.0958709716796875;-1.00830078125;-0.019827766343951225;0.0029060414526611567;0.00692022405564785
-0.019744873046875;-0.0958709716796875;-1.00830078125;-0.019827766343951225;0.0029060414526611567;0.00692022405564785
-0.019744873046875;-0.0958709716796875;-1.00830078125;-0.019827766343951225;0.0029060414526611567;0.00692022405564785
-0.019744873046875;-0.0958709716796875;-1.00830078125;-0.019827766343951225;0.0029060414526611567;0.00692022405564785
-0.0207366943359375;-0.0969696044921875;-1.00775146484375;-0.021090637892484665;0.01321194227784872;0.0073199644684791565
-0.0207366943359375;-0.0969696044921875;-1.00775146484375;-0.021090637892484665;0.01321194227784872;0.0073199644684791565
-0.0207366943359375;-0.0969696044921875;-1.00775146484375;-0.021090637892484665;0.01321194227784872;0.0073199644684791565
-0.0207366943359375;-0.0969696044921875;-1.00775146484375;-0.021090637892484665;0.01321194227784872;0.0073199644684791565
-0.0207366943359375;-0.0969696044921875;-1.00775146484375;-0.021090637892484665;0.01321194227784872;0.0073199644684791565
-0.0213165283203125;-0.0974578857421875;-1.0068511962890625;-0.032946232706308365;0.018454907462000847;0.0029443909879773855
-0.0213165283203125;-0.0974578857421875;-1.0068511962890625;-0.032946232706308365;0.018454907462000847;0.0029443909879773855
-0.0213165283203125;-0.0974578857421875;-1.0068511962890625;-0.032946232706308365;0.018454907462000847;0.0029443909879773855
-0.0213165283203125;-0.0974578857421875;-1.0068511962890625;-0.032946232706308365;0.018454907462000847;0.0029443909879773855
-0.0213165283203125;-0.0974578857421875;-1.0068511962890625;-0.032946232706308365;0.018454907462000847;0.0029443909879773855
-0.021514892578125;-0.0967559814453125;-1.0046539306640625;-0.03676067665219307;0.025983130559325218;0.0054392400197684765
-0.021514892578125;-0.0967559814453125;-1.0046539306640625;-0.03676067665219307;0.025983130559325218;0.0054392400197684765
-0.021514892578125;-0.0967559814453125;-1.0046539306640625;-0.03676067665219307;0.025983130559325218;0.0054392400197684765
-0.021514892578125;-0.0967559814453125;-1.0046539306640625;-0.03676067665219307;0.025983130559325218;0.0054392400197684765
-0.021514892578125;-0.0967559814453125;-1.0046539306640625;-0.03676067665219307;0.025983130559325218;0.0054392400197684765
-0.02154541015625;-0.09765625;-1.0048065185546875;-0.03765976056456566;0.028801821172237396;0.006041114684194326
-0.02154541015625;-0.09765625;-1.0048065185546875;-0.03765976056456566;0.028801821172237396;0.006041114684194326
-0.02154541015625;-0.09765625;-1.0048065185546875;-0.03765976056456566;0.028801821172237396;0.006041114684194326
-0.02154541015625;-0.09765625;-1.0048065185546875;-0.03765976056456566;0.028801821172237396;0.006041114684194326
-0.02154541015625;-0.09765625;-1.0048065185546875;-0.03765976056456566;0.028801821172237396;0.006041114684194326
-0.019744873046875;-0.0983428955078125;-1.00567626953125;-0.037402231246232986;0.02731923945248127;0.003385676769539714
-0.019744873046875;-0.0983428955078125;-1.00567626953125;-0.037402231246232986;0.02731923945248127;0.003385676769539714
-0.019744873046875;-0.0983428955078125;-1.00567626953125;-0.037402231246232986;0.02731923945248127;0.003385676769539714
-0.019744873046875;-0.0983428955078125;-1.00567626953125;-0.037402231246232986;0.02731923945248127;0.003385676769539714
-0.019744873046875;-0.0983428955078125;-1.00567626953125;-0.037402231246232986;0.02731923945248127;0.003385676769539714
-0.02105712890625;-0.0978546142578125;-1.0087127685546875;-0.030431674793362617;0.018614962697029114;0.0038980687968432903
-0.02105712890625;-0.0978546142578125;-1.0087127685546875;-0.030431674793362617;0.018614962697029114;0.0038980687968432903
-0.02105712890625;-0.0978546142578125;-1.0087127685546875;-0.030431674793362617;0.018614962697029114;0.0038980687968432903
-0.02105712890625;-0.0978546142578125;-1.0087127685546875;-0.030431674793362617;0.018614962697029114;0.0038980687968432903
-0.02105712890625;-0.0978546142578125;-1.0087127685546875;-0.030431674793362617;0.018614962697029114;0.0038980687968432903
-0.0222625732421875;-0.0994873046875;-1.0155029296875;-0.026823358610272408;0.0023241406306624413;-0.001463673310354352
-0.0222625732421875;-0.0994873046875;-1.0155029296875;-0.026823358610272408;0.0023241406306624413;-0.001463673310354352
-0.0222625732421875;-0.0994873046875;-1.0155029296875;-0.026823358610272408;0.0023241406306624413;-0.001463673310354352
-0.0222625732421875;-0.0994873046875;-1.0155029296875;-0.026823358610272408;0.0023241406306624413;-0.001463673310354352
-0.0222625732421875;-0.0994873046875;-1.0155029296875;-0.026823358610272408;0.0023241406306624413;-0.001463673310354352
-0.0198822021484375;-0.0991363525390625;-1.020599365234375;-0.015684686601161957;-0.0073231603018939495;-0.0001549959706608206
-0.0198822021484375;-0.0991363525390625;-1.020599365234375;-0.015684686601161957;-0.0073231603018939495;-0.0001549959706608206
-0.0198822021484375;-0.0991363525390625;-1.020599365234375;-0.015684686601161957;-0.0073231603018939495;-0.0001549959706608206
-0.0198822021484375;-0.0991363525390625;-1.020599365234375;-0.015684686601161957;-0.0073231603018939495;-0.0001549959706608206
-0.0198822021484375;-0.0991363525390625;-1.020599365234375;-0.015684686601161957;-0.0073231603018939495;-0.0001549959706608206
-0.015594482421875;-0.099761962890625;-1.01348876953125;-0.02137186750769615;0.004311657976359129;0.006713829003274441
-0.015594482421875;-0.099761962890625;-1.01348876953125;-0.02137186750769615;0.004311657976359129;0.006713829003274441
-0.015594482421875;-0.099761962890625;-1.01348876953125;-0.02137186750769615;0.004311657976359129;0.006713829003274441
-0.015594482421875;-0.099761962890625;-1.01348876953125;-0.02137186750769615;0.004311657976359129;0.006713829003274441
-0.015594482421875;-0.099761962890625;-1.01348876953125;-0.02137186750769615;0.004311657976359129;0.006713829003274441
-0.0150604248046875;-0.0990447998046875;-0.9969635009765625;-0.030783478170633316;0.027453994378447533;0.010672084987163544
-0.0150604248046875;-0.0990447998046875;-0.9969635009765625;-0.030783478170633316;0.027453994378447533;0.010672084987163544
-0.0150604248046875;-0.0990447998046875;-0.9969635009765625;-0.030783478170633316;0.027453994378447533;0.010672084987163544
-0.0150604248046875;-0.0990447998046875;-0.9969635009765625;-0.030783478170633316;0.027453994378447533;0.010672084987163544
-0.0150604248046875;-0.0990447998046875;-0.9969635009765625;-0.030783478170633316;0.027453994378447533;0.010672084987163544
-0.018585205078125;-0.098785400390625;-0.9955902099609375;-0.034620027989149094;0.03074166737496853;0.0108886007219553
-0.018585205078125;-0.098785400390625;-0.9955902099609375;-0.034620027989149094;0.03074166737496853;0.0108886007219553
-0.018585205078125;-0.098785400390625;-0.9955902099609375;-0.034620027989149094;0.03074166737496853;0.0108886007219553
-0.018585205078125;-0.098785400390625;-0.9955902099609375;-0.034620027989149094;0.03074166737496853;0.0108886007219553
-0.018585205078125;-0.098785400390625;-0.9955902099609375;-0.034620027989149094;0.03074166737496853;0.0108886007219553
-0.0202178955078125;-0.097503662109375;-1.016754150390625;-0.023625968024134636;-0.005789445713162422;0.007864315062761307
-0.0202178955078125;-0.097503662109375;-1.016754150390625;-0.023625968024134636;-0.005789445713162422;0.007864315062761307
-0.0202178955078125;-0.097503662109375;-1.016754150390625;-0.023625968024134636;-0.005789445713162422;0.007864315062761307
-0.0202178955078125;-0.097503662109375;-1.016754150390625;-0.023625968024134636;-0.005789445713162422;0.007864315062761307
-0.0202178955078125;-0.097503662109375;-1.016754150390625;-0.023625968024134636;-0.005789445713162422;0.007864315062761307
-0.017120361328125;-0.0917816162109375;-1.028228759765625;-0.011624165810644627;-0.03560726344585419;0.009612413123250008
-0.017120361328125;-0.0917816162109375;-1.028228759765625;-0.011624165810644627;-0.03560726344585419;0.009612413123250008
-0.017120361328125;-0.0917816162109375;-1.028228759765625;-0.011624165810644627;-0.03560726344585419;0.009612413123250008
-0.017120361328125;-0.0917816162109375;-1.028228759765625;-0.011624165810644627;-0.03560726344585419;0.009612413123250008
-0.017120361328125;-0.0917816162109375;-1.028228759765625;-0.011624165810644627;-0.03560726344585419;0.009612413123250008
-0.017364501953125;-0.090576171875;-1.0139312744140625;-0.013281983323395252;-0.04555816203355789;0.0099021652713418
-0.017364501953125;-0.090576171875;-1.0139312744140625;-0.013281983323395252;-0.04555816203355789;0.0099021652713418
-0.017364501953125;-0.090576171875;-1.0139312744140625;-0.013281983323395252;-0.04555816203355789;0.0099021652713418
-0.017364501953125;-0.090576171875;-1.0139312744140625;-0.013281983323395252;-0.04555816203355789;0.0099021652713418
-0.017364501953125;-0.090576171875;-1.0139312744140625;-0.013281983323395252;-0.04555816203355789;0.0099021652713418
-0.0230865478515625;-0.0930328369140625;-1.0049591064453125;-0.02261396497488022;-0.03251080587506294;0.006138586439192295
-0.0230865478515625;-0.0930328369140625;-1.0049591064453125;-0.02261396497488022;-0.03251080587506294;0.006138586439192295
-0.0230865478515625;-0.0930328369140625;-1.0049591064453125;-0.02261396497488022;-0.03251080587506294;0.006138586439192295
-0.0230865478515625;-0.0930328369140625;-1.0049591064453125;-0.02261396497488022;-0.03251080587506294;0.006138586439192295
-0.0230865478515625;-0.0930328369140625;-1.0049591064453125;-0.02261396497488022;-0.03251080587506294;0.006138586439192295
-0.023193359375;-0.09259033203125;-1.0009307861328125;-0.03538888320326805;-0.009208411909639835;0.003108175238594413
-0.023193359375;-0.09259033203125;-1.0009307861328125;-0.03538888320326805;-0.009208411909639835;0.003108175238594413
-0.023193359375;-0.09259033203125;-1.0009307861328125;-0.03538888320326805;-0.009208411909639835;0.003108175238594413
-0.023193359375;-0.09259033203125;-1.0009307861328125;-0.03538888320326805;-0.009208411909639835;0.003108175238594413
-0.023193359375;-0.09259033203125;-1.0009307861328125;-0.03538888320326805;-0.009208411909639835;0.003108175238594413
-0.0203399658203125;-0.0925140380859375;-0.9984588623046875;-0.043774645775556564;0.021810756996273994;-8.788431296125054e-05
-0.0203399658203125;-0.0925140380859375;-0.9984588623046875;-0.043774645775556564;0.021810756996273994;-8.788431296125054e-05
-0.0203399658203125;-0.0925140380859375;-0.9984588623046875;-0.043774645775556564;0.021810756996273994;-8.788431296125054e-05
-0.0203399658203125;-0.0925140380859375;-0.9984588623046875;-0.043774645775556564;0.021810756996273994;-8.788431296125054e-05
-0.0203399658203125;-0.0925140380859375;-0.9984588623046875;-0.043774645775556564;0.021810756996273994;-8.788431296125054e-05
-0.019287109375;-0.09405517578125;-0.9985809326171875;-0.051308196038007736;0.034034665673971176;-0.001787779969163239
-0.019287109375;-0.09405517578125;-0.9985809326171875;-0.051308196038007736;0.034034665673971176;-0.001787779969163239
-0.019287109375;-0.09405517578125;-0.9985809326171875;-0.051308196038007736;0.034034665673971176;-0.001787779969163239
-0.019287109375;-0.09405517578125;-0.9985809326171875;-0.051308196038007736;0.034034665673971176;-0.001787779969163239
-0.019287109375;-0.09405517578125;-0.9985809326171875;-0.051308196038007736;0.034034665673971176;-0.001787779969163239
-0.018218994140625;-0.095733642578125;-1.004058837890625;-0.058169830590486526;0.024459537118673325;0.002204298507422209
-0.018218994140625;-0.095733642578125;-1.004058837890625;-0.058169830590486526;0.024459537118673325;0.002204298507422209
-0.018218994140625;-0.095733642578125;-1.004058837890625;-0.058169830590486526;0.024459537118673325;0.002204298507422209
-0.018218994140625;-0.095733642578125;-1.004058837890625;-0.058169830590486526;0.024459537118673325;0.002204298507422209
-0.018218994140625;-0.095733642578125;-1.004058837890625;-0.058169830590486526;0.024459537118673325;0.002204298507422209
-0.0161895751953125;-0.096160888671875;-1.010284423828125;-0.055026501417160034;0.008921856060624123;0.0006844323943369091
-0.0161895751953125;-0.096160888671875;-1.010284423828125;-0.055026501417160034;0.008921856060624123;0.0006844323943369091
-0.0161895751953125;-0.096160888671875;-1.010284423828125;-0.055026501417160034;0.008921856060624123;0.0006844323943369091
-0.0161895751953125;-0.096160888671875;-1.010284423828125;-0.055026501417160034;0.008921856060624123;0.0006844323943369091
-0.0161895751953125;-0.096160888671875;-1.010284423828125;-0.055026501417160034;0.008921856060624123;0.0006844323943369091
-0.015045166015625;-0.0952301025390625;-1.01318359375;-0.055739160627126694;0.0006868292111903429;0.0009089368977583945
-0.015045166015625;-0.0952301025390625;-1.01318359375;-0.055739160627126694;0.0006868292111903429;0.0009089368977583945
-0.015045166015625;-0.0952301025390625;-1.01318359375;-0.055739160627126694;0.0006868292111903429;0.0009089368977583945
-0.015045166015625;-0.0952301025390625;-1.01318359375;-0.055739160627126694;0.0006868292111903429;0.0009089368977583945
-0.015045166015625;-0.0952301025390625;-1.01318359375;-0.055739160627126694;0.0006868292111903429;0.0009089368977583945
-0.016937255859375;-0.0926513671875;-1.0113525390625;-0.05085013061761856;0.0027739484794437885;0.0026101642288267612
-0.016937255859375;-0.0926513671875;-1.0113525390625;-0.05085013061761856;0.0027739484794437885;0.0026101642288267612
-0.016937255859375;-0.0926513671875;-1.0113525390625;-0.05085013061761856;0.0027739484794437885;0.0026101642288267612
-0.016937255859375;-0.0926513671875;-1.0113525390625;-0.05085013061761856;0.0027739484794437885;0.0026101642288267612
-0.016937255859375;-0.0926513671875;-1.0113525390625;-0.05085013061761856;0.0027739484794437885;0.0026101642288267612
-0.0190887451171875;-0.09173583984375;-1.010833740234375;-0.042453717440366745;0.010164487175643444;0.0031350732315331697
-0.0190887451171875;-0.09173583984375;-1.010833740234375;-0.042453717440366745;0.010164487175643444;0.0031350732315331697
-0.0190887451171875;-0.09173583984375;-1.010833740234375;-0.042453717440366745;0.010164487175643444;0.0031350732315331697
-0.0190887451171875;-0.09173583984375;-1.010833740234375;-0.042453717440366745;0.010164487175643444;0.0031350732315331697
-0.0190887451171875;-0.09173583984375;-1.010833740234375;-0.042453717440366745;0.010164487175643444;0.0031350732315331697
-0.020050048828125;-0.0910797119140625;-1.0123138427734375;-0.025845179334282875;0.0049279131926596165;0.0014961638953536749
-0.020050048828125;-0.0910797119140625;-1.0123138427734375;-0.025845179334282875;0.0049279131926596165;0.0014961638953536749
-0.020050048828125;-0.0910797119140625;-1.0123138427734375;-0.025845179334282875;0.0049279131926596165;0.0014961638953536749
-0.020050048828125;-0.0910797119140625;-1.0123138427734375;-0.025845179334282875;0.0049279131926596165;0.0014961638953536749
-0.020050048828125;-0.0910797119140625;-1.0123138427734375;-0.025845179334282875;0.0049279131926596165;0.0014961638953536749
-0.019195556640625;-0.0915374755859375;-1.015777587890625;-0.012811136431992054;-0.0006764429272152483;-0.0008173241512849927
-0.019195556640625;-0.0915374755859375;-1.015777587890625;-0.012811136431992054;-0.0006764429272152483;-0.0008173241512849927
-0.019195556640625;-0.0915374755859375;-1.015777587890625;-0.012811136431992054;-0.0006764429272152483;-0.0008173241512849927
-0.019195556640625;-0.0915374755859375;-1.015777587890625;-0.012811136431992054;-0.0006764429272152483;-0.0008173241512849927
-0.019195556640625;-0.0915374755859375;-1.015777587890625;-0.012811136431992054;-0.0006764429272152483;-0.0008173241512849927
-0.018218994140625;-0.090972900390625;-1.01507568359375;-0.007201986387372017;-0.005913815461099148;-0.0009219863568432629
-0.018218994140625;-0.090972900390625;-1.01507568359375;-0.007201986387372017;-0.005913815461099148;-0.0009219863568432629
-0.018218994140625;-0.090972900390625;-1.01507568359375;-0.007201986387372017;-0.005913815461099148;-0.0009219863568432629
-0.018218994140625;-0.090972900390625;-1.01507568359375;-0.007201986387372017;-0.005913815461099148;-0.0009219863568432629
-0.018218994140625;-0.090972900390625;-1.01507568359375;-0.007201986387372017;-0.005913815461099148;-0.0009219863568432629
-0.0175628662109375;-0.090362548828125;-1.0119476318359375;-0.0116135124117136;0.0020759340841323137;0.001776062068529427
-0.0175628662109375;-0.090362548828125;-1.0119476318359375;-0.0116135124117136;0.0020759340841323137;0.001776062068529427
-0.0175628662109375;-0.090362548828125;-1.0119476318359375;-0.0116135124117136;0.0020759340841323137;0.001776062068529427
-0.0175628662109375;-0.090362548828125;-1.0119476318359375;-0.0116135124117136;0.0020759340841323137;0.001776062068529427
-0.0175628662109375;-0.090362548828125;-1.0119476318359375;-0.0116135124117136;0.0020759340841323137;0.001776062068529427
-0.0164337158203125;-0.090240478515625;-1.0108489990234375;-0.015840481966733932;0.00862970668822527;0.0041582598350942135
-0.0164337158203125;-0.090240478515625;-1.0108489990234375;-0.015840481966733932;0.00862970668822527;0.0041582598350942135
-0.0164337158203125;-0.090240478515625;-1.0108489990234375;-0.015840481966733932;0.00862970668822527;0.0041582598350942135
-0.0164337158203125;-0.090240478515625;-1.0108489990234375;-0.015840481966733932;0.00862970668822527;0.0041582598350942135
-0.0164337158203125;-0.090240478515625;-1.0108489990234375;-0.015840481966733932;0.00862970668822527;0.0041582598350942135
-0.015777587890625;-0.088287353515625;-1.011688232421875;-0.022038988769054413;0.005407015793025494;0.004366518929600716
-0.015777587890625;-0.088287353515625;-1.011688232421875;-0.022038988769054413;0.005407015793025494;0.004366518929600716
-0.015777587890625;-0.088287353515625;-1.011688232421875;-0.022038988769054413;0.005407015793025494;0.004366518929600716
-0.015777587890625;-0.088287353515625;-1.011688232421875;-0.022038988769054413;0.005407015793025494;0.004366518929600716
-0.015777587890625;-0.088287353515625;-1.011688232421875;-0.0223870649933815;0.000931041082367301;0.003375822911038995
-0.0162811279296875;-0.0880126953125;-1.0143280029296875;-0.0223870649933815;0.000931041082367301;0.003375822911038995
-0.0162811279296875;-0.0880126953125;-1.0143280029296875;-0.0223870649933815;0.000931041082367301;0.003375822911038995
-0.0162811279296875;-0.0880126953125;-1.0143280029296875;-0.0223870649933815;0.000931041082367301;0.003375822911038995
-0.0162811279296875;-0.0880126953125;-1.0143280029296875;-0.0223870649933815;0.000931041082367301;0.003375822911038995
-0.0159759521484375;-0.0874786376953125;-1.0164947509765625;-0.020254937931895256;-0.00018455706594977528;0.003501257859170437
-0.0159759521484375;-0.0874786376953125;-1.0164947509765625;-0.020254937931895256;-0.00018455706594977528;0.003501257859170437
-0.0159759521484375;-0.0874786376953125;-1.0164947509765625;-0.020254937931895256;-0.00018455706594977528;0.003501257859170437
-0.0159759521484375;-0.0874786376953125;-1.0164947509765625;-0.020254937931895256;-0.00018455706594977528;0.003501257859170437
-0.0159759521484375;-0.0874786376953125;-1.0164947509765625;-0.020254937931895256;-0.00018455706594977528;0.003501257859170437
-0.0159759521484375;-0.0874786376953125;-1.0164947509765625;-0.01924773119390011;-0.0003438140847720206;0.004072505980730057
-0.0162506103515625;-0.088775634765625;-1.013580322265625;-0.01924773119390011;-0.0003438140847720206;0.004072505980730057
-0.0162506103515625;-0.088775634765625;-1.013580322265625;-0.01924773119390011;-0.0003438140847720206;0.004072505980730057
-0.0162506103515625;-0.088775634765625;-1.013580322265625;-0.01924773119390011;-0.0003438140847720206;0.004072505980730057
-0.0162506103515625;-0.088775634765625;-1.013580322265625;-0.01924773119390011;-0.0003438140847720206;0.004072505980730057
-0.0162506103515625;-0.088775634765625;-1.013580322265625;-0.017585651949048042;-0.00253479671664536;0.003379285102710128
-0.01873779296875;-0.0882568359375;-1.0112457275390625;-0.017585651949048042;-0.00253479671664536;0.003379285102710128
-0.01873779296875;-0.0882568359375;-1.0112457275390625;-0.017585651949048042;-0.00253479671664536;0.003379285102710128
-0.01873779296875;-0.0882568359375;-1.0112457275390625;-0.017585651949048042;-0.00253479671664536;0.003379285102710128
-0.01873779296875;-0.0882568359375;-1.0112457275390625;-0.017585651949048042;-0.00253479671664536;0.003379285102710128
-0.01873779296875;-0.0882568359375;-1.0112457275390625;-0.008141282945871353;-0.0006703176186420023;0.003065032185986638
-0.0195465087890625;-0.0887603759765625;-1.012603759765625;-0.008141282945871353;-0.0006703176186420023;0.003065032185986638
-0.0195465087890625;-0.0887603759765625;-1.012603759765625;-0.008141282945871353;-0.0006703176186420023;0.003065032185986638
-0.0195465087890625;-0.0887603759765625;-1.012603759765625;-0.008141282945871353;-0.0006703176186420023;0.003065032185986638
-0.0195465087890625;-0.0887603759765625;-1.012603759765625;-0.008141282945871353;-0.0006703176186420023;0.003065032185986638
-0.0195465087890625;-0.0887603759765625;-1.012603759765625;0.003820038167759776;-0.0010420948965474963;0.003065032185986638
-0.0183868408203125;-0.08843994140625;-1.0135498046875;0.003820038167759776;-0.0010420948965474963;0.003065032185986638
-0.0183868408203125;-0.08843994140625;-1.0135498046875;0.003820038167759776;-0.0010420948965474963;0.003065032185986638
-0.0183868408203125;-0.08843994140625;-1.0135498046875;0.003820038167759776;-0.0010420948965474963;0.003065032185986638
-0.0183868408203125;-0.08843994140625;-1.0135498046875;0.003820038167759776;-0.0010420948965474963;0.003065032185986638
-0.0183868408203125;-0.08843994140625;-1.0135498046875;0.015469769947230816;0.0006143912323750556;0.004209658596664667
-0.01812744140625;-0.0885009765625;-1.012054443359375;0.015469769947230816;0.0006143912323750556;0.004209658596664667
-0.01812744140625;-0.0885009765625;-1.012054443359375;0.015469769947230816;0.0006143912323750556;0.004209658596664667
-0.01812744140625;-0.0885009765625;-1.012054443359375;0.015469769947230816;0.0006143912323750556;0.004209658596664667
-0.01812744140625;-0.0885009765625;-1.012054443359375;0.015469769947230816;0.0006143912323750556;0.004209658596664667
-0.0194549560546875;-0.0904388427734375;-1.01263427734375;0.021097028627991676;-0.003991279285401106;0.0011704593198373914
-0.0194549560546875;-0.0904388427734375;-1.01263427734375;0.021097028627991676;-0.003991279285401106;0.0011704593198373914
-0.0194549560546875;-0.0904388427734375;-1.01263427734375;0.021097028627991676;-0.003991279285401106;0.0011704593198373914
-0.0194549560546875;-0.0904388427734375;-1.01263427734375;0.021097028627991676;-0.003991279285401106;0.0011704593198373914
-0.0194549560546875;-0.0904388427734375;-1.01263427734375;0.021097028627991676;-0.003991279285401106;0.0011704593198373914
-0.019378662109375;-0.0924072265625;-1.0131683349609375;0.017727332189679146;-0.005732720717787743;0.0022687469609081745
-0.019378662109375;-0.0924072265625;-1.0131683349609375;0.017727332189679146;-0.005732720717787743;0.0022687469609081745
-0.019378662109375;-0.0924072265625;-1.0131683349609375;0.017727332189679146;-0.005732720717787743;0.0022687469609081745
-0.019378662109375;-0.0924072265625;-1.0131683349609375;0.017727332189679146;-0.005732720717787743;0.0022687469609081745
-0.019378662109375;-0.0924072265625;-1.0131683349609375;0.017727332189679146;-0.005732720717787743;0.0022687469609081745
-0.0172882080078125;-0.0947723388671875;-1.0095977783203125;0.011543471366167068;-0.0008439557277597487;0.002935868687927723
-0.0172882080078125;-0.0947723388671875;-1.0095977783203125;0.011543471366167068;-0.0008439557277597487;0.002935868687927723
-0.0172882080078125;-0.0947723388671875;-1.0095977783203125;0.011543471366167068;-0.0008439557277597487;0.002935868687927723
-0.0172882080078125;-0.0947723388671875;-1.0095977783203125;0.011543471366167068;-0.0008439557277597487;0.002935868687927723
-0.0172882080078125;-0.0947723388671875;-1.0095977783203125;0.011543471366167068;-0.0008439557277597487;0.002935868687927723
-0.017822265625;-0.09527587890625;-1.0084228515625;0.005930859595537186;-0.004521514754742384;0.0033965955954045057
-0.017822265625;-0.09527587890625;-1.0084228515625;0.005930859595537186;-0.004521514754742384;0.0033965955954045057
-0.017822265625;-0.09527587890625;-1.0084228515625;0.005930859595537186;-0.004521514754742384;0.0033965955954045057
-0.017822265625;-0.09527587890625;-1.0084228515625;0.005930859595537186;-0.004521514754742384;0.0033965955954045057
-0.017822265625;-0.09527587890625;-1.0084228515625;0.005930859595537186;-0.004521514754742384;0.0033965955954045057
-0.0174560546875;-0.0943756103515625;-1.0114288330078125;0.006050968077033758;-0.0037468012887984514;0.0013454289874061942
-0.0174560546875;-0.0943756103515625;-1.0114288330078125;0.006050968077033758;-0.0037468012887984514;0.0013454289874061942
-0.0174560546875;-0.0943756103515625;-1.0114288330078125;0.006050968077033758;-0.0037468012887984514;0.0013454289874061942
-0.0174560546875;-0.0943756103515625;-1.0114288330078125;0.006050968077033758;-0.0037468012887984514;0.0013454289874061942
-0.0174560546875;-0.0943756103515625;-1.0114288330078125;0.006050968077033758;-0.0037468012887984514;0.0013454289874061942
-0.016357421875;-0.0923004150390625;-1.013214111328125;0.011833756230771542;-0.005446164403110743;0.00392816262319684
-0.016357421875;-0.0923004150390625;-1.013214111328125;0.011833756230771542;-0.005446164403110743;0.00392816262319684
-0.016357421875;-0.0923004150390625;-1.013214111328125;0.011833756230771542;-0.005446164403110743;0.00392816262319684
-0.016357421875;-0.0923004150390625;-1.013214111328125;0.011833756230771542;-0.005446164403110743;0.00392816262319684
-0.016357421875;-0.0923004150390625;-1.013214111328125;0.011833756230771542;-0.005446164403110743;0.00392816262319684
-0.017608642578125;-0.092315673828125;-1.009918212890625;0.014425544999539852;-0.0019504991360008717;0.004082892090082169
-0.017608642578125;-0.092315673828125;-1.009918212890625;0.014425544999539852;-0.0019504991360008717;0.004082892090082169
-0.017608642578125;-0.092315673828125;-1.009918212890625;0.014425544999539852;-0.0019504991360008717;0.004082892090082169
-0.017608642578125;-0.092315673828125;-1.009918212890625;0.014425544999539852;-0.0019504991360008717;0.004082892090082169
-0.017608642578125;-0.092315673828125;-1.009918212890625;0.014425544999539852;-0.0019504991360008717;0.004082892090082169
-0.020172119140625;-0.0940399169921875;-1.008392333984375;0.018383800983428955;-0.0007723167072981596;0.0049036783166229725
-0.020172119140625;-0.0940399169921875;-1.008392333984375;0.018383800983428955;-0.0007723167072981596;0.0049036783166229725
-0.020172119140625;-0.0940399169921875;-1.008392333984375;0.018383800983428955;-0.0007723167072981596;0.0049036783166229725
-0.020172119140625;-0.0940399169921875;-1.008392333984375;0.018383800983428955;-0.0007723167072981596;0.0049036783166229725
-0.020172119140625;-0.0940399169921875;-1.008392333984375;0.018383800983428955;-0.0007723167072981596;0.0049036783166229725
-0.0203704833984375;-0.0930938720703125;-1.0118560791015625;0.020186228677630424;-0.006544984877109528;0.004087419714778662
-0.0203704833984375;-0.0930938720703125;-1.0118560791015625;0.020186228677630424;-0.006544984877109528;0.004087419714778662
-0.0203704833984375;-0.0930938720703125;-1.0118560791015625;0.020186228677630424;-0.006544984877109528;0.004087419714778662
-0.0203704833984375;-0.0930938720703125;-1.0118560791015625;0.020186228677630424;-0.006544984877109528;0.004087419714778662
-0.0203704833984375;-0.0930938720703125;-1.0118560791015625;0.020186228677630424;-0.006544984877109528;0.004087419714778662
-0.01776123046875;-0.09307861328125;-1.0126953125;0.016096677631139755;-0.003820038167759776;0.0050701261498034
-0.01776123046875;-0.09307861328125;-1.0126953125;0.016096677631139755;-0.003820038167759776;0.0050701261498034
-0.01776123046875;-0.09307861328125;-1.0126953125;0.016096677631139755;-0.003820038167759776;0.0050701261498034
-0.01776123046875;-0.09307861328125;-1.0126953125;0.016096677631139755;-0.003820038167759776;0.0050701261498034
-0.01776123046875;-0.09307861328125;-1.0126953125;0.016096677631139755;-0.003820038167759776;0.0050701261498034
-0.0171051025390625;-0.0912628173828125;-1.0101776123046875;0.008109591901302338;-0.0022069616243243217;0.002397910226136446
-0.0171051025390625;-0.0912628173828125;-1.0101776123046875;0.008109591901302338;-0.0022069616243243217;0.002397910226136446
-0.0171051025390625;-0.0912628173828125;-1.0101776123046875;0.008109591901302338;-0.0022069616243243217;0.002397910226136446
-0.0171051025390625;-0.0912628173828125;-1.0101776123046875;0.008109591901302338;-0.0022069616243243217;0.002397910226136446
-0.0171051025390625;-0.0912628173828125;-1.0101776123046875;0.008109591901302338;-0.0022069616243243217;0.002397910226136446
-0.016387939453125;-0.0908203125;-1.007598876953125;0.002810966456308961;0.002560895634815097;0.002846919232979417
-0.016387939453125;-0.0908203125;-1.007598876953125;0.002810966456308961;0.002560895634815097;0.002846919232979417
-0.016387939453125;-0.0908203125;-1.007598876953125;0.002810966456308961;0.002560895634815097;0.002846919232979417
-0.016387939453125;-0.0908203125;-1.007598876953125;0.002810966456308961;0.002560895634815097;0.002846919232979417
-0.016387939453125;-0.0908203125;-1.007598876953125;0.002810966456308961;0.002560895634815097;0.002846919232979417
-0.0160980224609375;-0.0914306640625;-1.0095977783203125;-0.006292516831308603;-0.0010375675046816468;0.0013736584223806858
-0.0160980224609375;-0.0914306640625;-1.0095977783203125;-0.006292516831308603;-0.0010375675046816468;0.0013736584223806858
-0.0160980224609375;-0.0914306640625;-1.0095977783203125;-0.006292516831308603;-0.0010375675046816468;0.0013736584223806858
-0.0160980224609375;-0.0914306640625;-1.0095977783203125;-0.006292516831308603;-0.0010375675046816468;0.0013736584223806858
-0.0160980224609375;-0.0914306640625;-1.0095977783203125;-0.006292516831308603;-0.0010375675046816468;0.0013736584223806858
-0.015411376953125;-0.090362548828125;-1.01043701171875;-0.008141282945871353;-0.003579288488253951;-0.00037204360705800354
-0.015411376953125;-0.090362548828125;-1.01043701171875;-0.008141282945871353;-0.003579288488253951;-0.00037204360705800354
-0.015411376953125;-0.090362548828125;-1.01043701171875;-0.008141282945871353;-0.003579288488253951;-0.00037204360705800354
-0.015411376953125;-0.090362548828125;-1.01043701171875;-0.008141282945871353;-0.003579288488253951;-0.00037204360705800354
-0.015411376953125;-0.090362548828125;-1.01043701171875;-0.008141282945871353;-0.003579288488253951;-0.00037204360705800354
-0.0162811279296875;-0.089447021484375;-1.009124755859375;-0.009516539983451366;-0.005054946057498455;-0.000287088769255206
-0.0162811279296875;-0.089447021484375;-1.009124755859375;-0.009516539983451366;-0.005054946057498455;-0.000287088769255206
-0.0162811279296875;-0.089447021484375;-1.009124755859375;-0.009516539983451366;-0.005054946057498455;-0.000287088769255206
-0.0162811279296875;-0.089447021484375;-1.009124755859375;-0.009516539983451366;-0.005054946057498455;-0.000287088769255206
-0.0162811279296875;-0.089447021484375;-1.009124755859375;-0.009516539983451366;-0.005054946057498455;-0.000287088769255206
-0.0187835693359375;-0.08978271484375;-1.0069732666015625;-0.011571967042982578;-0.010159692727029324;1.0652644277797663e-06
-0.0187835693359375;-0.08978271484375;-1.0069732666015625;-0.011571967042982578;-0.010159692727029324;1.0652644277797663e-06
-0.0187835693359375;-0.08978271484375;-1.0069732666015625;-0.011571967042982578;-0.010159692727029324;1.0652644277797663e-06
-0.0187835693359375;-0.08978271484375;-1.0069732666015625;-0.011571967042982578;-0.010159692727029324;1.0652644277797663e-06
-0.0187835693359375;-0.08978271484375;-1.0069732666015625;-0.011571967042982578;-0.010159692727029324;1.0652644277797663e-06
-0.019927978515625;-0.0893402099609375;-1.009735107421875;-0.009410812519490719;-0.010937868617475033;0.00019494339358061552
-0.019927978515625;-0.0893402099609375;-1.009735107421875;-0.009410812519490719;-0.010937868617475033;0.00019494339358061552
-0.019927978515625;-0.0893402099609375;-1.009735107421875;-0.009410812519490719;-0.010937868617475033;0.00019494339358061552
-0.019927978515625;-0.0893402099609375;-1.009735107421875;-0.009410812519490719;-0.010937868617475033;0.00019494339358061552
-0.019927978515625;-0.0893402099609375;-1.009735107421875;-0.009410812519490719;-0.010937868617475033;0.00019494339358061552
-0.019805908203125;-0.088348388671875;-1.012054443359375;-0.004514856729656458;-0.01293523982167244;-0.0005363606614992023
-0.019805908203125;-0.088348388671875;-1.012054443359375;-0.004514856729656458;-0.01293523982167244;-0.0005363606614992023
-0.019805908203125;-0.088348388671875;-1.012054443359375;-0.004514856729656458;-0.01293523982167244;-0.0005363606614992023
-0.019805908203125;-0.088348388671875;-1.012054443359375;-0.004514856729656458;-0.01293523982167244;-0.0005363606614992023
-0.019805908203125;-0.088348388671875;-1.012054443359375;-0.004514856729656458;-0.01293523982167244;-0.0005363606614992023
-0.0201568603515625;-0.08782958984375;-1.0122528076171875;0.0036938043776899576;-0.014118482358753681;0.0008945558220148087
-0.0201568603515625;-0.08782958984375;-1.0122528076171875;0.0036938043776899576;-0.014118482358753681;0.0008945558220148087
-0.0201568603515625;-0.08782958984375;-1.0122528076171875;0.0036938043776899576;-0.014118482358753681;0.0008945558220148087
-0.0201568603515625;-0.08782958984375;-1.0122528076171875;0.0036938043776899576;-0.014118482358753681;0.0008945558220148087
-0.0201568603515625;-0.08782958984375;-1.0122528076171875;0.0036938043776899576;-0.014118482358753681;0.0008945558220148087
-0.0201873779296875;-0.0893402099609375;-1.0121307373046875;0.010577542707324028;-0.010868360288441181;0.0007539408979937434
-0.0201873779296875;-0.0893402099609375;-1.0121307373046875;0.010577542707324028;-0.010868360288441181;0.0007539408979937434
-0.0201873779296875;-0.0893402099609375;-1.0121307373046875;0.010577542707324028;-0.010868360288441181;0.0007539408979937434
-0.0201873779296875;-0.0893402099609375;-1.0121307373046875;0.010577542707324028;-0.010868360288441181;0.0007539408979937434
-0.01934814453125;-0.08917236328125;-1.011322021484375;0.012979181483387947;-0.008211856707930565;0.0001054611784638837
-0.01934814453125;-0.08917236328125;-1.011322021484375;0.012979181483387947;-0.008211856707930565;0.0001054611784638837
-0.01934814453125;-0.08917236328125;-1.011322021484375;0.012979181483387947;-0.008211856707930565;0.0001054611784638837
-0.01934814453125;-0.08917236328125;-1.011322021484375;0.012979181483387947;-0.008211856707930565;0.0001054611784638837
-0.01934814453125;-0.08917236328125;-1.011322021484375;0.012979181483387947;-0.008211856707930565;0.0001054611784638837
-0.0185546875;-0.0895843505859375;-1.010528564453125;0.015607189387083054;-0.004732703324407339;0.004329234827309847
-0.0185546875;-0.0895843505859375;-1.010528564453125;0.015607189387083054;-0.004732703324407339;0.004329234827309847
-0.0185546875;-0.0895843505859375;-1.010528564453125;0.015607189387083054;-0.004732703324407339;0.004329234827309847
-0.0185546875;-0.0895843505859375;-1.010528564453125;0.015607189387083054;-0.004732703324407339;0.004329234827309847
-0.0185546875;-0.0895843505859375;-1.010528564453125;0.015607189387083054;-0.004732703324407339;0.004329234827309847
-0.0172576904296875;-0.09063720703125;-1.0093994140625;0.013348296284675598;-0.004415520932525396;0.004702343605458736
-0.0172576904296875;-0.09063720703125;-1.0093994140625;0.013348296284675598;-0.004415520932525396;0.004702343605458736
-0.0172576904296875;-0.09063720703125;-1.0093994140625;0.013348296284675598;-0.004415520932525396;0.004702343605458736
-0.0172576904296875;-0.09063720703125;-1.0093994140625;0.013348296284675598;-0.004415520932525396;0.004702343605458736
-0.0172576904296875;-0.09063720703125;-1.0093994140625;0.013348296284675598;-0.004415520932525396;0.004702343605458736
-0.0176544189453125;-0.091705322265625;-1.0082550048828125;0.011349859647452831;-0.002031725598499179;0.0007424892974086106
-0.0176544189453125;-0.091705322265625;-1.0082550048828125;0.011349859647452831;-0.002031725598499179;0.0007424892974086106
-0.0176544189453125;-0.091705322265625;-1.0082550048828125;0.011349859647452831;-0.002031725598499179;0.0007424892974086106
-0.0176544189453125;-0.091705322265625;-1.0082550048828125;0.011349859647452831;-0.002031725598499179;0.0007424892974086106
-0.0176544189453125;-0.091705322265625;-1.0082550048828125;0.011349859647452831;-0.002031725598499179;0.0007424892974086106
-0.01800537109375;-0.0918426513671875;-1.0101776123046875;0.011474229395389557;-0.005675196181982756;0.001883387565612793
-0.01800537109375;-0.0918426513671875;-1.0101776123046875;0.011474229395389557;-0.005675196181982756;0.001883387565612793
-0.01800537109375;-0.0918426513671875;-1.0101776123046875;0.011474229395389557;-0.005675196181982756;0.001883387565612793
-0.01800537109375;-0.0918426513671875;-1.0101776123046875;0.011474229395389557;-0.005675196181982756;0.001883387565612793
-0.01800537109375;-0.0918426513671875;-1.0101776123046875;0.011474229395389557;-0.005675196181982756;0.001883387565612793
-0.017669677734375;-0.09295654296875;-1.012451171875;0.008464058861136436;-0.009282448329031467;0.0035398737527430058
-0.017669677734375;-0.09295654296875;-1.012451171875;0.008464058861136436;-0.009282448329031467;0.0035398737527430058
-0.017669677734375;-0.09295654296875;-1.012451171875;0.008464058861136436;-0.009282448329031467;0.0035398737527430058
-0.017669677734375;-0.09295654296875;-1.012451171875;0.008464058861136436;-0.009282448329031467;0.0035398737527430058
-0.017669677734375;-0.09295654296875;-1.012451171875;0.008464058861136436;-0.009282448329031467;0.0035398737527430058
-0.018096923828125;-0.0926971435546875;-1.01214599609375;0.009856092743575573;-0.005194495897740126;0.001017327536828816
-0.018096923828125;-0.0926971435546875;-1.01214599609375;0.009856092743575573;-0.005194495897740126;0.001017327536828816
-0.018096923828125;-0.0926971435546875;-1.01214599609375;0.009856092743575573;-0.005194495897740126;0.001017327536828816
-0.018096923828125;-0.0926971435546875;-1.01214599609375;0.009856092743575573;-0.005194495897740126;0.001017327536828816
-0.018096923828125;-0.0926971435546875;-1.01214599609375;0.009856092743575573;-0.005194495897740126;0.001017327536828816
-0.0190887451171875;-0.0927886962890625;-1.0123443603515625;0.009268333204090595;-0.0009627327090129256;-0.00014061490946915
-0.0190887451171875;-0.0927886962890625;-1.0123443603515625;0.009268333204090595;-0.0009627327090129256;-0.00014061490946915
-0.0190887451171875;-0.0927886962890625;-1.0123443603515625;0.009268333204090595;-0.0009627327090129256;-0.00014061490946915
-0.0190887451171875;-0.0927886962890625;-1.0123443603515625;0.009268333204090595;-0.0009627327090129256;-0.00014061490946915
-0.0190887451171875;-0.0927886962890625;-1.0123443603515625;0.009268333204090595;-0.0009627327090129256;-0.00014061490946915
-0.019195556640625;-0.0928802490234375;-1.0129852294921875;0.009018261916935444;-0.0010181264951825142;-0.0020604876335710287
-0.019195556640625;-0.0928802490234375;-1.0129852294921875;0.009018261916935444;-0.0010181264951825142;-0.0020604876335710287
-0.019195556640625;-0.0928802490234375;-1.0129852294921875;0.009018261916935444;-0.0010181264951825142;-0.0020604876335710287
-0.019195556640625;-0.0928802490234375;-1.0129852294921875;0.009018261916935444;-0.0010181264951825142;-0.0020604876335710287
-0.019195556640625;-0.0928802490234375;-1.0129852294921875;0.009018261916935444;-0.0010181264951825142;-0.0020604876335710287
-0.018310546875;-0.0938568115234375;-1.0133514404296875;0.003940945956856012;0.001336107961833477;-0.0019712718203663826
-0.018310546875;-0.0938568115234375;-1.0133514404296875;0.003940945956856012;0.001336107961833477;-0.0019712718203663826
-0.018310546875;-0.0938568115234375;-1.0133514404296875;0.003940945956856012;0.001336107961833477;-0.0019712718203663826
-0.018310546875;-0.0938568115234375;-1.0133514404296875;0.003940945956856012;0.001336107961833477;-0.0019712718203663826
-0.018310546875;-0.0938568115234375;-1.0133514404296875;0.003940945956856012;0.001336107961833477;-0.0019712718203663826
-0.0178070068359375;-0.09454345703125;-1.0120086669921875;0.005080512259155512;8.655273268232122e-05;0.0011805793037638068
-0.0178070068359375;-0.09454345703125;-1.0120086669921875;0.005080512259155512;8.655273268232122e-05;0.0011805793037638068
-0.0178070068359375;-0.09454345703125;-1.0120086669921875;0.005080512259155512;8.655273268232122e-05;0.0011805793037638068
-0.0178070068359375;-0.09454345703125;-1.0120086669921875;0.005080512259155512;8.655273268232122e-05;0.0011805793037638068
-0.0178070068359375;-0.09454345703125;-1.0120086669921875;0.005080512259155512;8.655273268232122e-05;0.0011805793037638068
-0.0179443359375;-0.094940185546875;-1.0113067626953125;-0.0010197244118899107;-0.0032091091852635145;-0.002885801251977682
-0.0179443359375;-0.094940185546875;-1.0113067626953125;-0.0010197244118899107;-0.0032091091852635145;-0.002885801251977682
-0.0179443359375;-0.094940185546875;-1.0113067626953125;-0.0010197244118899107;-0.0032091091852635145;-0.002885801251977682
-0.0179443359375;-0.094940185546875;-1.0113067626953125;-0.0010197244118899107;-0.0032091091852635145;-0.002885801251977682
-0.0179443359375;-0.094940185546875;-1.0113067626953125;-0.0010197244118899107;-0.0032091091852635145;-0.002885801251977682
-0.0174407958984375;-0.0958404541015625;-1.01123046875;-0.003388073528185487;-0.00469515286386013;-0.0006005428149364889
-0.0174407958984375;-0.0958404541015625;-1.01123046875;-0.003388073528185487;-0.00469515286386013;-0.0006005428149364889
-0.0174407958984375;-0.0958404541015625;-1.01123046875;-0.003388073528185487;-0.00469515286386013;-0.0006005428149364889
-0.0174407958984375;-0.0958404541015625;-1.01123046875;-0.003388073528185487;-0.00469515286386013;-0.0006005428149364889
-0.0174407958984375;-0.0958404541015625;-1.01123046875;-0.003388073528185487;-0.00469515286386013;-0.0006005428149364889
-0.0171966552734375;-0.0961761474609375;-1.0130157470703125;-0.0019688750617206097;-0.0033401367254555225;-0.0022857910953462124
-0.0171966552734375;-0.0961761474609375;-1.0130157470703125;-0.0019688750617206097;-0.0033401367254555225;-0.0022857910953462124
-0.0171966552734375;-0.0961761474609375;-1.0130157470703125;-0.0019688750617206097;-0.0033401367254555225;-0.0022857910953462124
-0.0171966552734375;-0.0961761474609375;-1.0130157470703125;-0.0019688750617206097;-0.0033401367254555225;-0.0022857910953462124
-0.0171966552734375;-0.0961761474609375;-1.0130157470703125;-0.001377653214149177;-0.0052179316990077496;-0.0019489012192934752
-0.019195556640625;-0.094635009765625;-1.0142669677734375;-0.001377653214149177;-0.0052179316990077496;-0.0019489012192934752
-0.019195556640625;-0.094635009765625;-1.0142669677734375;-0.001377653214149177;-0.0052179316990077496;-0.0019489012192934752
-0.019195556640625;-0.094635009765625;-1.0142669677734375;-0.001377653214149177;-0.0052179316990077496;-0.0019489012192934752
-0.019195556640625;-0.094635009765625;-1.0142669677734375;-0.001377653214149177;-0.0052179316990077496;-0.0019489012192934752
-0.019195556640625;-0.094635009765625;-1.0142669677734375;-0.002698048483580351;-0.0035635759122669697;0.00016298545233439654
-0.0204010009765625;-0.095184326171875;-1.01348876953125;-0.002698048483580351;-0.0035635759122669697;0.00016298545233439654
-0.0204010009765625;-0.095184326171875;-1.01348876953125;-0.002698048483580351;-0.0035635759122669697;0.00016298545233439654
-0.0204010009765625;-0.095184326171875;-1.01348876953125;-0.002698048483580351;-0.0035635759122669697;0.00016298545233439654
-0.0204010009765625;-0.095184326171875;-1.01348876953125;-0.002698048483580351;-0.0035635759122669697;0.00016298545233439654
-0.0204010009765625;-0.095184326171875;-1.01348876953125;-0.002698048483580351;-0.0035635759122669697;0.00016298545233439654
-0.019775390625;-0.0950775146484375;-1.009918212890625;-0.009023589082062244;-0.008267517201602459;-0.00138084904756397
-0.019775390625;-0.0950775146484375;-1.009918212890625;-0.009023589082062244;-0.008267517201602459;-0.00138084904756397
-0.019775390625;-0.0950775146484375;-1.009918212890625;-0.009023589082062244;-0.008267517201602459;-0.00138084904756397
-0.019775390625;-0.0950775146484375;-1.009918212890625;-0.009023589082062244;-0.008267517201602459;-0.00138084904756397
-0.019775390625;-0.0950775146484375;-1.009918212890625;-0.017663149163126945;-0.006666424684226513;-0.001574194524437189
-0.022064208984375;-0.0933685302734375;-1.0066986083984375;-0.017663149163126945;-0.006666424684226513;-0.001574194524437189
-0.022064208984375;-0.0933685302734375;-1.0066986083984375;-0.017663149163126945;-0.006666424684226513;-0.001574194524437189
-0.022064208984375;-0.0933685302734375;-1.0066986083984375;-0.017663149163126945;-0.006666424684226513;-0.001574194524437189
-0.022064208984375;-0.0933685302734375;-1.0066986083984375;-0.017663149163126945;-0.006666424684226513;-0.001574194524437189
-0.0210418701171875;-0.0931854248046875;-1.0055999755859375;-0.024278441444039345;-0.005781456362456083;0.0007757788407616317
-0.0210418701171875;-0.0931854248046875;-1.0055999755859375;-0.024278441444039345;-0.005781456362456083;0.0007757788407616317
-0.0210418701171875;-0.0931854248046875;-1.0055999755859375;-0.024278441444039345;-0.005781456362456083;0.0007757788407616317
-0.0210418701171875;-0.0931854248046875;-1.0055999755859375;-0.024278441444039345;-0.005781456362456083;0.0007757788407616317
-0.0210418701171875;-0.0931854248046875;-1.0055999755859375;-0.024278441444039345;-0.005781456362456083;0.0007757788407616317
-0.017791748046875;-0.0909423828125;-1.00628662109375;-0.025534121319651604;-0.002793922321870923;0.0009840379934757948
-0.017791748046875;-0.0909423828125;-1.00628662109375;-0.025534121319651604;-0.002793922321870923;0.0009840379934757948
-0.017791748046875;-0.0909423828125;-1.00628662109375;-0.025534121319651604;-0.002793922321870923;0.0009840379934757948
-0.017791748046875;-0.0909423828125;-1.00628662109375;-0.025534121319651604;-0.002793922321870923;0.0009840379934757948
-0.017791748046875;-0.0909423828125;-1.00628662109375;-0.025534121319651604;-0.002793922321870923;0.0009840379934757948
-0.0158843994140625;-0.0893707275390625;-1.0095977783203125;-0.018561434000730515;0.0017904432024806738;0.0033217607997357845
-0.0158843994140625;-0.0893707275390625;-1.0095977783203125;-0.018561434000730515;0.0017904432024806738;0.0033217607997357845
-0.0158843994140625;-0.0893707275390625;-1.0095977783203125;-0.018561434000730515;0.0017904432024806738;0.0033217607997357845
-0.0158843994140625;-0.0893707275390625;-1.0095977783203125;-0.018561434000730515;0.0017904432024806738;0.0033217607997357845
-0.0158843994140625;-0.0893707275390625;-1.0095977783203125;-0.018561434000730515;0.0017904432024806738;0.0033217607997357845
-0.0149993896484375;-0.08837890625;-1.010833740234375;-0.01558455266058445;0.004798483569175005;0.0011619371362030506
-0.0149993896484375;-0.08837890625;-1.010833740234375;-0.01558455266058445;0.004798483569175005;0.0011619371362030506
-0.0149993896484375;-0.08837890625;-1.010833740234375;-0.01558455266058445;0.004798483569175005;0.0011619371362030506
-0.0149993896484375;-0.08837890625;-1.010833740234375;-0.01558455266058445;0.004798483569175005;0.0011619371362030506
-0.0149993896484375;-0.08837890625;-1.010833740234375;-0.01558455266058445;0.004798483569175005;0.0011619371362030506
-0.0145263671875;-0.0894622802734375;-1.009735107421875;-0.011034275405108929;0.00809334684163332;0.0014381069922819734
-0.0145263671875;-0.0894622802734375;-1.009735107421875;-0.011034275405108929;0.00809334684163332;0.0014381069922819734
-0.0145263671875;-0.0894622802734375;-1.009735107421875;-0.011034275405108929;0.00809334684163332;0.0014381069922819734
-0.0145263671875;-0.0894622802734375;-1.009735107421875;-0.011034275405108929;0.00809334684163332;0.0014381069922819734
-0.0145263671875;-0.0894622802734375;-1.009735107421875;-0.011034275405108929;0.00809334684163332;0.0014381069922819734
-0.01483154296875;-0.08770751953125;-1.0096282958984375;-0.009578324854373932;0.01167396642267704;0.0016769925132393837
-0.01483154296875;-0.08770751953125;-1.0096282958984375;-0.009578324854373932;0.01167396642267704;0.0016769925132393837
-0.01483154296875;-0.08770751953125;-1.0096282958984375;-0.009578324854373932;0.01167396642267704;0.0016769925132393837
-0.01483154296875;-0.08770751953125;-1.0096282958984375;-0.009578324854373932;0.01167396642267704;0.0016769925132393837
-0.01483154296875;-0.08770751953125;-1.0096282958984375;-0.009578324854373932;0.01167396642267704;0.0016769925132393837
-0.01806640625;-0.087554931640625;-1.0103912353515625;-0.001988049829378724;0.012833773158490658;0.0008021441171877086
-0.01806640625;-0.087554931640625;-1.0103912353515625;-0.001988049829378724;0.012833773158490658;0.0008021441171877086
-0.01806640625;-0.087554931640625;-1.0103912353515625;-0.001988049829378724;0.012833773158490658;0.0008021441171877086
-0.01806640625;-0.087554931640625;-1.0103912353515625;-0.001988049829378724;0.012833773158490658;0.0008021441171877086
-0.01806640625;-0.087554931640625;-1.0103912353515625;-0.001988049829378724;0.012833773158490658;0.0008021441171877086
-0.0176544189453125;-0.0896759033203125;-1.015472412109375;0.007191866636276245;0.001392566948197782;0.00034727618913166225
-0.0176544189453125;-0.0896759033203125;-1.015472412109375;0.007191866636276245;0.001392566948197782;0.00034727618913166225
-0.0176544189453125;-0.0896759033203125;-1.015472412109375;0.007191866636276245;0.001392566948197782;0.00034727618913166225
-0.0176544189453125;-0.0896759033203125;-1.015472412109375;0.007191866636276245;0.001392566948197782;0.00034727618913166225
-0.0176544189453125;-0.0896759033203125;-1.015472412109375;0.007191866636276245;0.001392566948197782;0.00034727618913166225
-0.018463134765625;-0.090087890625;-1.018585205078125;0.023619309067726135;-0.003712712787091732;-0.002348109148442745
-0.018463134765625;-0.090087890625;-1.018585205078125;0.023619309067726135;-0.003712712787091732;-0.002348109148442745
-0.018463134765625;-0.090087890625;-1.018585205078125;0.023619309067726135;-0.003712712787091732;-0.002348109148442745
-0.018463134765625;-0.090087890625;-1.018585205078125;0.023619309067726135;-0.003712712787091732;-0.002348109148442745
-0.018463134765625;-0.090087890625;-1.018585205078125;0.023619309067726135;-0.003712712787091732;-0.002348109148442745
-0.019134521484375;-0.0911407470703125;-1.0239715576171875;0.03166525065898895;-0.010772486217319965;-0.003064499469473958
-0.019134521484375;-0.0911407470703125;-1.0239715576171875;0.03166525065898895;-0.010772486217319965;-0.003064499469473958
-0.019134521484375;-0.0911407470703125;-1.0239715576171875;0.03166525065898895;-0.010772486217319965;-0.003064499469473958
-0.019134521484375;-0.0911407470703125;-1.0239715576171875;0.03166525065898895;-0.010772486217319965;-0.003064499469473958
-0.019134521484375;-0.0911407470703125;-1.0239715576171875;0.03166525065898895;-0.010772486217319965;-0.003064499469473958
-0.017730712890625;-0.0939178466796875;-1.022552490234375;0.033792585134506226;-0.008537028916180134;0.0008402272942475975
-0.017730712890625;-0.0939178466796875;-1.022552490234375;0.033792585134506226;-0.008537028916180134;0.0008402272942475975
-0.017730712890625;-0.0939178466796875;-1.022552490234375;0.033792585134506226;-0.008537028916180134;0.0008402272942475975
-0.017730712890625;-0.0939178466796875;-1.022552490234375;0.033792585134506226;-0.008537028916180134;0.0008402272942475975
-0.017730712890625;-0.0939178466796875;-1.022552490234375;0.033792585134506226;-0.008537028916180134;0.0008402272942475975
-0.0141448974609375;-0.095947265625;-1.0048980712890625;0.015050055459141731;0.01122335996478796;0.0016194682102650404
-0.0141448974609375;-0.095947265625;-1.0048980712890625;0.015050055459141731;0.01122335996478796;0.0016194682102650404
-0.0141448974609375;-0.095947265625;-1.0048980712890625;0.015050055459141731;0.01122335996478796;0.0016194682102650404
-0.0141448974609375;-0.095947265625;-1.0048980712890625;0.015050055459141731;0.01122335996478796;0.0016194682102650404
-0.0141448974609375;-0.095947265625;-1.0048980712890625;0.015050055459141731;0.01122335996478796;0.0016194682102650404
-0.0172576904296875;-0.09552001953125;-0.9892730712890625;-0.013973339460790157;0.017715880647301674;-0.00022530343267135322
-0.0172576904296875;-0.09552001953125;-0.9892730712890625;-0.013973339460790157;0.017715880647301674;-0.00022530343267135322
-0.0172576904296875;-0.09552001953125;-0.9892730712890625;-0.013973339460790157;0.017715880647301674;-0.00022530343267135322
-0.0172576904296875;-0.09552001953125;-0.9892730712890625;-0.013973339460790157;0.017715880647301674;-0.00022530343267135322
-0.0172576904296875;-0.09552001953125;-0.9892730712890625;-0.013973339460790157;0.017715880647301674;-0.00022530343267135322
-0.01849365234375;-0.097869873046875;-0.9946136474609375;-0.020138824358582497;0.014596785418689251;0.001091896090656519
-0.01849365234375;-0.097869873046875;-0.9946136474609375;-0.020138824358582497;0.014596785418689251;0.001091896090656519
-0.01849365234375;-0.097869873046875;-0.9946136474609375;-0.020138824358582497;0.014596785418689251;0.001091896090656519
-0.01849365234375;-0.097869873046875;-0.9946136474609375;-0.020138824358582497;0.014596785418689251;0.001091896090656519
-0.01849365234375;-0.097869873046875;-0.9946136474609375;-0.020138824358582497;0.014596785418689251;0.001091896090656519
-0.0146942138671875;-0.0960845947265625;-1.016448974609375;-0.01594913937151432;-0.01534540019929409;0.0007360977469943464
-0.0146942138671875;-0.0960845947265625;-1.016448974609375;-0.01594913937151432;-0.01534540019929409;0.0007360977469943464
-0.0146942138671875;-0.0960845947265625;-1.016448974609375;-0.01594913937151432;-0.01534540019929409;0.0007360977469943464
-0.0146942138671875;-0.0960845947265625;-1.016448974609375;-0.01594913937151432;-0.01534540019929409;0.0007360977469943464
-0.0146942138671875;-0.0960845947265625;-1.016448974609375;-0.01594913937151432;-0.01534540019929409;0.0007360977469943464
-0.01776123046875;-0.09197998046875;-1.029510498046875;-0.00902784988284111;-0.03492336347699165;0.0026996464002877474
-0.01776123046875;-0.09197998046875;-1.029510498046875;-0.00902784988284111;-0.03492336347699165;0.0026996464002877474
-0.01776123046875;-0.09197998046875;-1.029510498046875;-0.00902784988284111;-0.03492336347699165;0.0026996464002877474
-0.01776123046875;-0.09197998046875;-1.029510498046875;-0.00902784988284111;-0.03492336347699165;0.0026996464002877474
-0.01776123046875;-0.09197998046875;-1.029510498046875;-0.00902784988284111;-0.03492336347699165;0.0026996464002877474
-0.0189361572265625;-0.0913238525390625;-1.01983642578125;-0.011627627536654472;-0.0320250429213047;0.002808569697663188
-0.0189361572265625;-0.0913238525390625;-1.01983642578125;-0.011627627536654472;-0.0320250429213047;0.002808569697663188
-0.0189361572265625;-0.0913238525390625;-1.01983642578125;-0.011627627536654472;-0.0320250429213047;0.002808569697663188
-0.0189361572265625;-0.0913238525390625;-1.01983642578125;-0.011627627536654472;-0.0320250429213047;0.002808569697663188
-0.0189361572265625;-0.0913238525390625;-1.01983642578125;-0.011627627536654472;-0.0320250429213047;0.002808569697663188
-0.0211334228515625;-0.090850830078125;-1.0066986083984375;-0.017077520489692688;-0.02341344766318798;-0.0005006743012927473
-0.0211334228515625;-0.090850830078125;-1.0066986083984375;-0.017077520489692688;-0.02341344766318798;-0.0005006743012927473
-0.0211334228515625;-0.090850830078125;-1.0066986083984375;-0.017077520489692688;-0.02341344766318798;-0.0005006743012927473
-0.0211334228515625;-0.090850830078125;-1.0066986083984375;-0.017077520489692688;-0.02341344766318798;-0.0005006743012927473
-0.0211334228515625;-0.090850830078125;-1.0066986083984375;-0.017077520489692688;-0.02341344766318798;-0.0005006743012927473
-0.0225982666015625;-0.090972900390625;-1.0078277587890625;-0.02155456133186817;-0.007937817834317684;-0.0024051007349044085
-0.0225982666015625;-0.090972900390625;-1.0078277587890625;-0.02155456133186817;-0.007937817834317684;-0.0024051007349044085
-0.0225982666015625;-0.090972900390625;-1.0078277587890625;-0.02155456133186817;-0.007937817834317684;-0.0024051007349044085
-0.0225982666015625;-0.090972900390625;-1.0078277587890625;-0.02155456133186817;-0.007937817834317684;-0.0024051007349044085
-0.0225982666015625;-0.090972900390625;-1.0078277587890625;-0.02155456133186817;-0.007937817834317684;-0.0024051007349044085
-0.01812744140625;-0.0897216796875;-1.006439208984375;-0.017827998846769333;0.013495835475623608;-0.0016596820205450058
-0.01812744140625;-0.0897216796875;-1.006439208984375;-0.017827998846769333;0.013495835475623608;-0.0016596820205450058
-0.01812744140625;-0.0897216796875;-1.006439208984375;-0.017827998846769333;0.013495835475623608;-0.0016596820205450058
-0.01812744140625;-0.0897216796875;-1.006439208984375;-0.017827998846769333;0.013495835475623608;-0.0016596820205450058
-0.01812744140625;-0.0897216796875;-1.006439208984375;-0.017827998846769333;0.013495835475623608;-0.0016596820205450058
-0.0181427001953125;-0.090087890625;-1.0037841796875;-0.019027220085263252;0.026154372841119766;-0.004232561681419611
-0.0181427001953125;-0.090087890625;-1.0037841796875;-0.019027220085263252;0.026154372841119766;-0.004232561681419611
-0.0181427001953125;-0.090087890625;-1.0037841796875;-0.019027220085263252;0.026154372841119766;-0.004232561681419611
-0.0181427001953125;-0.090087890625;-1.0037841796875;-0.019027220085263252;0.026154372841119766;-0.004232561681419611
-0.0181427001953125;-0.090087890625;-1.0037841796875;-0.019027220085263252;0.026154372841119766;-0.004232561681419611
-0.01971435546875;-0.093780517578125;-1.01055908203125;-0.007059241179376841;0.013132579624652863;-0.00253426400013268
-0.01971435546875;-0.093780517578125;-1.01055908203125;-0.007059241179376841;0.013132579624652863;-0.00253426400013268
-0.01971435546875;-0.093780517578125;-1.01055908203125;-0.007059241179376841;0.013132579624652863;-0.00253426400013268
-0.01971435546875;-0.093780517578125;-1.01055908203125;-0.007059241179376841;0.013132579624652863;-0.00253426400013268
-0.01971435546875;-0.093780517578125;-1.01055908203125;-0.007059241179376841;0.013132579624652863;-0.00253426400013268
-0.01763916015625;-0.0957794189453125;-1.021453857421875;-0.0007637945818714797;0.0005033374181948602;0.0012828446924686432
-0.01763916015625;-0.0957794189453125;-1.021453857421875;-0.0007637945818714797;0.0005033374181948602;0.0012828446924686432
-0.01763916015625;-0.0957794189453125;-1.021453857421875;-0.0007637945818714797;0.0005033374181948602;0.0012828446924686432
-0.01763916015625;-0.0957794189453125;-1.021453857421875;-0.0007637945818714797;0.0005033374181948602;0.0012828446924686432
-0.01763916015625;-0.0957794189453125;-1.021453857421875;-0.0007637945818714797;0.0005033374181948602;0.0012828446924686432
-0.0163421630859375;-0.095794677734375;-1.023223876953125;-0.0014556838432326913;-0.004148405976593494;0.004840561654418707
-0.0163421630859375;-0.095794677734375;-1.023223876953125;-0.0014556838432326913;-0.004148405976593494;0.004840561654418707
-0.0163421630859375;-0.095794677734375;-1.023223876953125;-0.0014556838432326913;-0.004148405976593494;0.004840561654418707
-0.0163421630859375;-0.095794677734375;-1.023223876953125;-0.0014556838432326913;-0.004148405976593494;0.004840561654418707
-0.0163421630859375;-0.095794677734375;-1.023223876953125;-0.0014556838432326913;-0.004148405976593494;0.004840561654418707
-0.017913818359375;-0.0950164794921875;-1.0153961181640625;-0.010326939634978771;4.234426160110161e-05;0.0038535939529538155
-0.017913818359375;-0.0950164794921875;-1.0153961181640625;-0.010326939634978771;4.234426160110161e-05;0.0038535939529538155
-0.017913818359375;-0.0950164794921875;-1.0153961181640625;-0.010326939634978771;4.234426160110161e-05;0.0038535939529538155
-0.017913818359375;-0.0950164794921875;-1.0153961181640625;-0.010326939634978771;4.234426160110161e-05;0.0038535939529538155
-0.017913818359375;-0.0950164794921875;-1.0153961181640625;-0.010326939634978771;4.234426160110161e-05;0.0038535939529538155
-0.019989013671875;-0.095428466796875;-1.008087158203125;-0.020376911386847496;0.010647851042449474;0.0005728459218516946
-0.019989013671875;-0.095428466796875;-1.008087158203125;-0.020376911386847496;0.010647851042449474;0.0005728459218516946
-0.019989013671875;-0.095428466796875;-1.008087158203125;-0.020376911386847496;0.010647851042449474;0.0005728459218516946
-0.019989013671875;-0.095428466796875;-1.008087158203125;-0.020376911386847496;0.010647851042449474;0.0005728459218516946
-0.019989013671875;-0.095428466796875;-1.008087158203125;-0.020376911386847496;0.010647851042449474;0.0005728459218516946
-0.0206756591796875;-0.0940399169921875;-1.008331298828125;-0.02617807500064373;0.009125054813921452;-0.0026642263401299715
-0.0206756591796875;-0.0940399169921875;-1.008331298828125;-0.02617807500064373;0.009125054813921452;-0.0026642263401299715
-0.0206756591796875;-0.0940399169921875;-1.008331298828125;-0.02617807500064373;0.009125054813921452;-0.0026642263401299715
-0.0206756591796875;-0.0940399169921875;-1.008331298828125;-0.02617807500064373;0.009125054813921452;-0.0026642263401299715
-0.0206756591796875;-0.0940399169921875;-1.008331298828125;-0.02617807500064373;0.009125054813921452;-0.0026642263401299715
-0.0181884765625;-0.0925445556640625;-1.014190673828125;-0.023060312494635582;-0.002877545543015003;-0.003013899317011237
-0.0181884765625;-0.0925445556640625;-1.014190673828125;-0.023060312494635582;-0.002877545543015003;-0.003013899317011237
-0.0181884765625;-0.0925445556640625;-1.014190673828125;-0.023060312494635582;-0.002877545543015003;-0.003013899317011237
-0.0181884765625;-0.0925445556640625;-1.014190673828125;-0.023060312494635582;-0.002877545543015003;-0.003013899317011237
-0.0181884765625;-0.0925445556640625;-1.014190673828125;-0.023060312494635582;-0.002877545543015003;-0.003013899317011237
-0.016998291015625;-0.0902862548828125;-1.017486572265625;-0.015052186325192451;-0.006806773599237204;0.0008695221040397882
-0.016998291015625;-0.0902862548828125;-1.017486572265625;-0.015052186325192451;-0.006806773599237204;0.0008695221040397882
-0.016998291015625;-0.0902862548828125;-1.017486572265625;-0.015052186325192451;-0.006806773599237204;0.0008695221040397882
-0.016998291015625;-0.0902862548828125;-1.017486572265625;-0.015052186325192451;-0.006806773599237204;0.0008695221040397882
-0.016998291015625;-0.0902862548828125;-1.017486572265625;-0.015052186325192451;-0.006806773599237204;0.0008695221040397882
-0.0170440673828125;-0.0871734619140625;-1.015228271484375;-0.007514641620218754;0.0006460828590206802;5.965480886516161e-05
-0.0170440673828125;-0.0871734619140625;-1.015228271484375;-0.007514641620218754;0.0006460828590206802;5.965480886516161e-05
-0.0170440673828125;-0.0871734619140625;-1.015228271484375;-0.007514641620218754;0.0006460828590206802;5.965480886516161e-05
-0.0170440673828125;-0.0871734619140625;-1.015228271484375;-0.007514641620218754;0.0006460828590206802;5.965480886516161e-05
-0.0170440673828125;-0.0871734619140625;-1.015228271484375;-0.007514641620218754;0.0006460828590206802;5.965480886516161e-05
-0.017333984375;-0.0870513916015625;-1.011260986328125;-0.004018976353108883;0.006999319884926081;-0.0007691209320910275
-0.017333984375;-0.0870513916015625;-1.011260986328125;-0.004018976353108883;0.006999319884926081;-0.0007691209320910275
-0.017333984375;-0.0870513916015625;-1.011260986328125;-0.004018976353108883;0.006999319884926081;-0.0007691209320910275
-0.017333984375;-0.0870513916015625;-1.011260986328125;-0.004018976353108883;0.006999319884926081;-0.0007691209320910275
-0.017333984375;-0.0870513916015625;-1.011260986328125;-0.004018976353108883;0.006999319884926081;-0.0007691209320910275
-0.0167388916015625;-0.08477783203125;-1.0098876953125;0.0009230516152456403;0.012859606184065342;0.0014937670202925801
-0.0167388916015625;-0.08477783203125;-1.0098876953125;0.0009230516152456403;0.012859606184065342;0.0014937670202925801
-0.0167388916015625;-0.08477783203125;-1.0098876953125;0.0009230516152456403;0.012859606184065342;0.0014937670202925801
-0.0167388916015625;-0.08477783203125;-1.0098876953125;0.0009230516152456403;0.012859606184065342;0.0014937670202925801
-0.0167388916015625;-0.08477783203125;-1.0098876953125;0.0009230516152456403;0.012859606184065342;0.0014937670202925801
-0.0150909423828125;-0.085205078125;-1.0121917724609375;0.007450193166732788;0.008700280450284481;-0.0010101370280608535
-0.0150909423828125;-0.085205078125;-1.0121917724609375;0.007450193166732788;0.008700280450284481;-0.0010101370280608535
-0.0150909423828125;-0.085205078125;-1.0121917724609375;0.007450193166732788;0.008700280450284481;-0.0010101370280608535
-0.0150909423828125;-0.085205078125;-1.0121917724609375;0.007450193166732788;0.008700280450284481;-0.0010101370280608535
-0.0150909423828125;-0.085205078125;-1.0121917724609375;0.007450193166732788;0.008700280450284481;-0.0010101370280608535
-0.0140838623046875;-0.0853118896484375;-1.0146484375;0.012773319147527218;0.0021379857789725065;0.002906573936343193
-0.0140838623046875;-0.0853118896484375;-1.0146484375;0.012773319147527218;0.0021379857789725065;0.002906573936343193
-0.0140838623046875;-0.0853118896484375;-1.0146484375;0.012773319147527218;0.0021379857789725065;0.002906573936343193
-0.0140838623046875;-0.0853118896484375;-1.0146484375;0.012773319147527218;0.0021379857789725065;0.002906573936343193
-0.0140838623046875;-0.0853118896484375;-1.0146484375;0.012773319147527218;0.0021379857789725065;0.002906573936343193
-0.0145721435546875;-0.08544921875;-1.014892578125;0.019113240763545036;-0.006057359743863344;0.0027590349782258272
-0.0145721435546875;-0.08544921875;-1.014892578125;0.019113240763545036;-0.006057359743863344;0.0027590349782258272
-0.0145721435546875;-0.08544921875;-1.014892578125;0.019113240763545036;-0.006057359743863344;0.0027590349782258272
-0.0145721435546875;-0.08544921875;-1.014892578125;0.019113240763545036;-0.006057359743863344;0.0027590349782258272
-0.0145721435546875;-0.08544921875;-1.014892578125;0.019113240763545036;-0.006057359743863344;0.0027590349782258272
-0.01641845703125;-0.0860137939453125;-1.0127716064453125;0.021953236311674118;-0.0064744106493890285;0.0025598304346203804
-0.01641845703125;-0.0860137939453125;-1.0127716064453125;0.021953236311674118;-0.0064744106493890285;0.0025598304346203804
-0.01641845703125;-0.0860137939453125;-1.0127716064453125;0.021953236311674118;-0.0064744106493890285;0.0025598304346203804
-0.01641845703125;-0.0860137939453125;-1.0127716064453125;0.021953236311674118;-0.0064744106493890285;0.0025598304346203804
-0.01641845703125;-0.0860137939453125;-1.0127716064453125;0.021953236311674118;-0.0064744106493890285;0.0025598304346203804
-0.0183868408203125;-0.0882110595703125;-1.0108795166015625;0.023636886849999428;-0.0073684342205524445;0.004622981417924166
-0.0183868408203125;-0.0882110595703125;-1.0108795166015625;0.023636886849999428;-0.0073684342205524445;0.004622981417924166
-0.0183868408203125;-0.0882110595703125;-1.0108795166015625;0.023636886849999428;-0.0073684342205524445;0.004622981417924166
-0.0183868408203125;-0.0882110595703125;-1.0108795166015625;0.023636886849999428;-0.0073684342205524445;0.004622981417924166
-0.0183868408203125;-0.0882110595703125;-1.0108795166015625;0.023636886849999428;-0.0073684342205524445;0.004622981417924166
-0.019195556640625;-0.092132568359375;-1.011383056640625;0.026100309565663338;-0.00443975580856204;0.003269562730565667
-0.019195556640625;-0.092132568359375;-1.011383056640625;0.026100309565663338;-0.00443975580856204;0.003269562730565667
-0.019195556640625;-0.092132568359375;-1.011383056640625;0.026100309565663338;-0.00443975580856204;0.003269562730565667
-0.019195556640625;-0.092132568359375;-1.011383056640625;0.026100309565663338;-0.00443975580856204;0.003269562730565667
-0.019195556640625;-0.092132568359375;-1.011383056640625;0.02008715830743313;-0.003865312086418271;0.0021734058391302824
-0.017791748046875;-0.0936126708984375;-1.0123291015625;0.02008715830743313;-0.003865312086418271;0.0021734058391302824
-0.017791748046875;-0.0936126708984375;-1.0123291015625;0.02008715830743313;-0.003865312086418271;0.0021734058391302824
-0.017791748046875;-0.0936126708984375;-1.0123291015625;0.02008715830743313;-0.003865312086418271;0.0021734058391302824
-0.017791748046875;-0.0936126708984375;-1.0123291015625;0.02008715830743313;-0.003865312086418271;0.0021734058391302824
-0.017791748046875;-0.0936126708984375;-1.0123291015625;0.01642504520714283;-0.005242965184152126;0.0019707391038537025
-0.0176544189453125;-0.0957794189453125;-1.0103759765625;0.01642504520714283;-0.005242965184152126;0.0019707391038537025
-0.0176544189453125;-0.0957794189453125;-1.0103759765625;0.01642504520714283;-0.005242965184152126;0.0019707391038537025
-0.0176544189453125;-0.0957794189453125;-1.0103759765625;0.01642504520714283;-0.005242965184152126;0.0019707391038537025
-0.0176544189453125;-0.0957794189453125;-1.0103759765625;0.01642504520714283;-0.005242965184152126;0.0019707391038537025
-0.0176544189453125;-0.0957794189453125;-1.0103759765625;0.014167217537760735;-0.0021342572290450335;-0.0013009541435167193
-0.0186767578125;-0.0964202880859375;-1.00897216796875;0.014167217537760735;-0.0021342572290450335;-0.0013009541435167193
-0.0186767578125;-0.0964202880859375;-1.00897216796875;0.014167217537760735;-0.0021342572290450335;-0.0013009541435167193
-0.0186767578125;-0.0964202880859375;-1.00897216796875;0.014167217537760735;-0.0021342572290450335;-0.0013009541435167193
-0.0186767578125;-0.0964202880859375;-1.00897216796875;0.014167217537760735;-0.0021342572290450335;-0.0013009541435167193
-0.0186767578125;-0.0964202880859375;-1.00897216796875;0.014038853347301483;-0.002290851203724742;-0.001817341079004109
-0.0174713134765625;-0.0947418212890625;-1.0099334716796875;0.014038853347301483;-0.002290851203724742;-0.001817341079004109
-0.0174713134765625;-0.0947418212890625;-1.0099334716796875;0.014038853347301483;-0.002290851203724742;-0.001817341079004109
-0.0174713134765625;-0.0947418212890625;-1.0099334716796875;0.014038853347301483;-0.002290851203724742;-0.001817341079004109
-0.0174713134765625;-0.0947418212890625;-1.0099334716796875;0.014038853347301483;-0.002290851203724742;-0.001817341079004109
-0.0174713134765625;-0.0947418212890625;-1.0099334716796875;0.014971492812037468;-0.006981743033975363;-0.00029640982393175364
-0.018218994140625;-0.09478759765625;-1.0106201171875;0.014971492812037468;-0.006981743033975363;-0.00029640982393175364
-0.018218994140625;-0.09478759765625;-1.0106201171875;0.014971492812037468;-0.006981743033975363;-0.00029640982393175364
-0.018218994140625;-0.09478759765625;-1.0106201171875;0.014971492812037468;-0.006981743033975363;-0.00029640982393175364
-0.018218994140625;-0.09478759765625;-1.0106201171875;0.014971492812037468;-0.006981743033975363;-0.00029640982393175364
-0.0174713134765625;-0.092742919921875;-1.0115966796875;0.01697445660829544;-0.009107211604714394;0.00033396040089428425
-0.0174713134765625;-0.092742919921875;-1.0115966796875;0.01697445660829544;-0.009107211604714394;0.00033396040089428425
-0.0174713134765625;-0.092742919921875;-1.0115966796875;0.01697445660829544;-0.009107211604714394;0.00033396040089428425
-0.0174713134765625;-0.092742919921875;-1.0115966796875;0.01697445660829544;-0.009107211604714394;0.00033396040089428425
-0.0174713134765625;-0.092742919921875;-1.0115966796875;0.01697445660829544;-0.009107211604714394;0.00033396040089428425
-0.016754150390625;-0.0925750732421875;-1.0128631591796875;0.02015799842774868;-0.014151771552860737;0.0011598066193982959
-0.016754150390625;-0.0925750732421875;-1.0128631591796875;0.02015799842774868;-0.014151771552860737;0.0011598066193982959
-0.016754150390625;-0.0925750732421875;-1.0128631591796875;0.02015799842774868;-0.014151771552860737;0.0011598066193982959
-0.016754150390625;-0.0925750732421875;-1.0128631591796875;0.02015799842774868;-0.014151771552860737;0.0011598066193982959
-0.016754150390625;-0.0925750732421875;-1.0128631591796875;0.02015799842774868;-0.014151771552860737;0.0011598066193982959
-0.016754150390625;-0.0925750732421875;-1.0128631591796875;0.0251008253544569;-0.012266519479453564;0.001065264455974102
-0.0162811279296875;-0.090576171875;-1.0137939453125;0.0251008253544569;-0.012266519479453564;0.001065264455974102
-0.0162811279296875;-0.090576171875;-1.0137939453125;0.0251008253544569;-0.012266519479453564;0.001065264455974102
-0.0162811279296875;-0.090576171875;-1.0137939453125;0.0251008253544569;-0.012266519479453564;0.001065264455974102
-0.0162811279296875;-0.090576171875;-1.0137939453125;0.0251008253544569;-0.012266519479453564;0.001065264455974102
-0.016204833984375;-0.0892333984375;-1.0121307373046875;0.025010278448462486;-0.005028048064559698;0.0016522251535207033
-0.016204833984375;-0.0892333984375;-1.0121307373046875;0.025010278448462486;-0.005028048064559698;0.0016522251535207033
-0.016204833984375;-0.0892333984375;-1.0121307373046875;0.025010278448462486;-0.005028048064559698;0.0016522251535207033
-0.016204833984375;-0.0892333984375;-1.0121307373046875;0.025010278448462486;-0.005028048064559698;0.0016522251535207033
-0.016204833984375;-0.0892333984375;-1.0121307373046875;0.025010278448462486;-0.005028048064559698;0.0016522251535207033
-0.0179595947265625;-0.0888519287109375;-1.0065765380859375;0.0279765073210001;0.002603772561997175;-0.00086872314568609
-0.0179595947265625;-0.0888519287109375;-1.0065765380859375;0.0279765073210001;0.002603772561997175;-0.00086872314568609
-0.0179595947265625;-0.0888519287109375;-1.0065765380859375;0.0279765073210001;0.002603772561997175;-0.00086872314568609
-0.0179595947265625;-0.0888519287109375;-1.0065765380859375;0.0279765073210001;0.002603772561997175;-0.00086872314568609
-0.0179595947265625;-0.0888519287109375;-1.0065765380859375;0.0279765073210001;0.002603772561997175;-0.00086872314568609
-0.0196380615234375;-0.08807373046875;-1.005859375;0.03226206451654434;-0.0018751317402347922;-0.002775812754407525
-0.0196380615234375;-0.08807373046875;-1.005859375;0.03226206451654434;-0.0018751317402347922;-0.002775812754407525
-0.0196380615234375;-0.08807373046875;-1.005859375;0.03226206451654434;-0.0018751317402347922;-0.002775812754407525
-0.0196380615234375;-0.08807373046875;-1.005859375;0.03226206451654434;-0.0018751317402347922;-0.002775812754407525
-0.0196380615234375;-0.08807373046875;-1.005859375;0.03226206451654434;-0.0018751317402347922;-0.002775812754407525
-0.0192108154296875;-0.0865478515625;-1.0088043212890625;0.0441509485244751;-0.004947886802256107;-0.0030250847339630127
-0.0192108154296875;-0.0865478515625;-1.0088043212890625;0.0441509485244751;-0.004947886802256107;-0.0030250847339630127
-0.0192108154296875;-0.0865478515625;-1.0088043212890625;0.0441509485244751;-0.004947886802256107;-0.0030250847339630127
-0.0192108154296875;-0.0865478515625;-1.0088043212890625;0.0441509485244751;-0.004947886802256107;-0.0030250847339630127
-0.0192108154296875;-0.0865478515625;-1.0088043212890625;0.0441509485244751;-0.004947886802256107;-0.0030250847339630127
-0.017242431640625;-0.0859375;-1.0130462646484375;0.06248068809509277;-0.005655222572386265;-0.005078381858766079
-0.017242431640625;-0.0859375;-1.0130462646484375;0.06248068809509277;-0.005655222572386265;-0.005078381858766079
-0.017242431640625;-0.0859375;-1.0130462646484375;0.06248068809509277;-0.005655222572386265;-0.005078381858766079
-0.017242431640625;-0.0859375;-1.0130462646484375;0.06248068809509277;-0.005655222572386265;-0.005078381858766079
-0.017242431640625;-0.0859375;-1.0130462646484375;0.06248068809509277;-0.005655222572386265;-0.005078381858766079
-0.015350341796875;-0.08465576171875;-1.0114288330078125;0.082234688103199;-0.004780374001711607;-0.0032447953708469868
-0.015350341796875;-0.08465576171875;-1.0114288330078125;0.082234688103199;-0.004780374001711607;-0.0032447953708469868
-0.015350341796875;-0.08465576171875;-1.0114288330078125;0.082234688103199;-0.004780374001711607;-0.0032447953708469868
-0.015350341796875;-0.08465576171875;-1.0114288330078125;0.082234688103199;-0.004780374001711607;-0.0032447953708469868
-0.015350341796875;-0.08465576171875;-1.0114288330078125;0.082234688103199;-0.004780374001711607;-0.0032447953708469868
-0.0155487060546875;-0.0843658447265625;-1.0092620849609375;0.09941846877336502;0.005943376570940018;-0.007230482529848814
-0.0155487060546875;-0.0843658447265625;-1.0092620849609375;0.09941846877336502;0.005943376570940018;-0.007230482529848814
-0.0155487060546875;-0.0843658447265625;-1.0092620849609375;0.09941846877336502;0.005943376570940018;-0.007230482529848814
-0.0155487060546875;-0.0843658447265625;-1.0092620849609375;0.09941846877336502;0.005943376570940018;-0.007230482529848814
-0.0155487060546875;-0.0843658447265625;-1.0092620849609375;0.09941846877336502;0.005943376570940018;-0.007230482529848814
-0.0167236328125;-0.0853271484375;-1.007415771484375;0.11706990003585815;0.0065567027777433395;-0.0038272286765277386
-0.0167236328125;-0.0853271484375;-1.007415771484375;0.11706990003585815;0.0065567027777433395;-0.0038272286765277386
-0.0167236328125;-0.0853271484375;-1.007415771484375;0.11706990003585815;0.0065567027777433395;-0.0038272286765277386
-0.0167236328125;-0.0853271484375;-1.007415771484375;0.11706990003585815;0.0065567027777433395;-0.0038272286765277386
-0.0167236328125;-0.0853271484375;-1.007415771484375;0.11706990003585815;0.0065567027777433395;-0.0038272286765277386
-0.01715087890625;-0.08819580078125;-1.008575439453125;0.12143029272556305;0.0013630058383569121;-0.006882140878587961
-0.01715087890625;-0.08819580078125;-1.008575439453125;0.12143029272556305;0.0013630058383569121;-0.006882140878587961
-0.01715087890625;-0.08819580078125;-1.008575439453125;0.12143029272556305;0.0013630058383569121;-0.006882140878587961
-0.01715087890625;-0.08819580078125;-1.008575439453125;0.12143029272556305;0.0013630058383569121;-0.006882140878587961
-0.01715087890625;-0.08819580078125;-1.008575439453125;0.12143029272556305;0.0013630058383569121;-0.006882140878587961
-0.0171051025390625;-0.09149169921875;-1.010040283203125;0.12378479540348053;-0.015683088451623917;-0.006343383342027664
-0.0171051025390625;-0.09149169921875;-1.010040283203125;0.12378479540348053;-0.015683088451623917;-0.006343383342027664
-0.0171051025390625;-0.09149169921875;-1.010040283203125;0.12378479540348053;-0.015683088451623917;-0.006343383342027664
-0.0171051025390625;-0.09149169921875;-1.010040283203125;0.12378479540348053;-0.015683088451623917;-0.006343383342027664
-0.0171051025390625;-0.09149169921875;-1.010040283203125;0.12378479540348053;-0.015683088451623917;-0.006343383342027664
-0.0169219970703125;-0.0953369140625;-1.0082244873046875;0.117865651845932;-0.01998808979988098;-0.0073745595291256905
-0.0169219970703125;-0.0953369140625;-1.0082244873046875;0.117865651845932;-0.01998808979988098;-0.0073745595291256905
-0.0169219970703125;-0.0953369140625;-1.0082244873046875;0.117865651845932;-0.01998808979988098;-0.0073745595291256905
-0.0169219970703125;-0.0953369140625;-1.0082244873046875;0.117865651845932;-0.01998808979988098;-0.0073745595291256905
-0.0169219970703125;-0.0953369140625;-1.0082244873046875;0.117865651845932;-0.01998808979988098;-0.0073745595291256905
-0.017425537109375;-0.1007537841796875;-1.0034637451171875;0.10978082567453384;-0.02070634439587593;-0.009859554469585419
-0.017425537109375;-0.1007537841796875;-1.0034637451171875;0.10978082567453384;-0.02070634439587593;-0.009859554469585419
-0.017425537109375;-0.1007537841796875;-1.0034637451171875;0.10978082567453384;-0.02070634439587593;-0.009859554469585419
-0.017425537109375;-0.1007537841796875;-1.0034637451171875;0.10978082567453384;-0.02070634439587593;-0.009859554469585419
-0.017425537109375;-0.1007537841796875;-1.0034637451171875;0.10978082567453384;-0.02070634439587593;-0.009859554469585419
-0.017486572265625;-0.105712890625;-1.001312255859375;0.09213445335626602;-0.016513995826244354;-0.011697934940457344
-0.017486572265625;-0.105712890625;-1.001312255859375;0.09213445335626602;-0.016513995826244354;-0.011697934940457344
-0.017486572265625;-0.105712890625;-1.001312255859375;0.09213445335626602;-0.016513995826244354;-0.011697934940457344
-0.017486572265625;-0.105712890625;-1.001312255859375;0.09213445335626602;-0.016513995826244354;-0.011697934940457344
-0.017486572265625;-0.105712890625;-1.001312255859375;0.09213445335626602;-0.016513995826244354;-0.011697934940457344
-0.018829345703125;-0.111114501953125;-1.001312255859375;0.07272373884916306;-0.010792726650834084;-0.01107688620686531
-0.018829345703125;-0.111114501953125;-1.001312255859375;0.07272373884916306;-0.010792726650834084;-0.01107688620686531
-0.018829345703125;-0.111114501953125;-1.001312255859375;0.07272373884916306;-0.010792726650834084;-0.01107688620686531
-0.018829345703125;-0.111114501953125;-1.001312255859375;0.07272373884916306;-0.010792726650834084;-0.01107688620686531
-0.018829345703125;-0.111114501953125;-1.001312255859375;0.07272373884916306;-0.010792726650834084;-0.01107688620686531
-0.0173797607421875;-0.112091064453125;-1.003875732421875;0.055922120809555054;-0.017523866146802902;-0.012348811142146587
-0.0173797607421875;-0.112091064453125;-1.003875732421875;0.055922120809555054;-0.017523866146802902;-0.012348811142146587
-0.0173797607421875;-0.112091064453125;-1.003875732421875;0.055922120809555054;-0.017523866146802902;-0.012348811142146587
-0.0173797607421875;-0.112091064453125;-1.003875732421875;0.055922120809555054;-0.017523866146802902;-0.012348811142146587
-0.0173797607421875;-0.112091064453125;-1.003875732421875;0.055922120809555054;-0.017523866146802902;-0.012348811142146587
-0.016998291015625;-0.112060546875;-1.00701904296875;0.04592834413051605;-0.026728017255663872;-0.013412478379905224
-0.016998291015625;-0.112060546875;-1.00701904296875;0.04592834413051605;-0.026728017255663872;-0.013412478379905224
-0.016998291015625;-0.112060546875;-1.00701904296875;0.04592834413051605;-0.026728017255663872;-0.013412478379905224
-0.016998291015625;-0.112060546875;-1.00701904296875;0.04592834413051605;-0.026728017255663872;-0.013412478379905224
-0.016998291015625;-0.112060546875;-1.00701904296875;0.04592834413051605;-0.026728017255663872;-0.013412478379905224
-0.0157928466796875;-0.115386962890625;-1.00799560546875;0.028605544939637184;-0.03181758522987366;-0.013695838861167431
-0.0157928466796875;-0.115386962890625;-1.00799560546875;0.028605544939637184;-0.03181758522987366;-0.013695838861167431
-0.0157928466796875;-0.115386962890625;-1.00799560546875;0.028605544939637184;-0.03181758522987366;-0.013695838861167431
-0.0157928466796875;-0.115386962890625;-1.00799560546875;0.028605544939637184;-0.03181758522987366;-0.013695838861167431
-0.0157928466796875;-0.115386962890625;-1.00799560546875;0.028605544939637184;-0.03181758522987366;-0.013695838861167431
-0.015411376953125;-0.113922119140625;-1.0079498291015625;0.0236456748098135;-0.030712105333805084;-0.008905344642698765
-0.015411376953125;-0.113922119140625;-1.0079498291015625;0.0236456748098135;-0.030712105333805084;-0.008905344642698765
-0.015411376953125;-0.113922119140625;-1.0079498291015625;0.0236456748098135;-0.030712105333805084;-0.008905344642698765
-0.015411376953125;-0.113922119140625;-1.0079498291015625;0.0236456748098135;-0.030712105333805084;-0.008905344642698765
-0.015411376953125;-0.113922119140625;-1.0079498291015625;0.0236456748098135;-0.030712105333805084;-0.008905344642698765
-0.01678466796875;-0.1123504638671875;-1.0078125;0.02232234925031662;-0.026977023109793663;-0.010404171422123909
-0.01678466796875;-0.1123504638671875;-1.0078125;0.02232234925031662;-0.026977023109793663;-0.010404171422123909
-0.01678466796875;-0.1123504638671875;-1.0078125;0.02232234925031662;-0.026977023109793663;-0.010404171422123909
-0.01678466796875;-0.1123504638671875;-1.0078125;0.02232234925031662;-0.026977023109793663;-0.010404171422123909
-0.01678466796875;-0.1123504638671875;-1.0078125;0.02232234925031662;-0.026977023109793663;-0.010404171422123909
-0.0188446044921875;-0.110443115234375;-1.014373779296875;0.02876879833638668;-0.025975408032536507;-0.003980360459536314
-0.0188446044921875;-0.110443115234375;-1.014373779296875;0.02876879833638668;-0.025975408032536507;-0.003980360459536314
-0.0188446044921875;-0.110443115234375;-1.014373779296875;0.02876879833638668;-0.025975408032536507;-0.003980360459536314
-0.0188446044921875;-0.110443115234375;-1.014373779296875;0.02876879833638668;-0.025975408032536507;-0.003980360459536314
-0.0188446044921875;-0.110443115234375;-1.014373779296875;0.02876879833638668;-0.025975408032536507;-0.003980360459536314
-0.021881103515625;-0.1095733642578125;-1.017791748046875;0.03894047439098358;-0.030128873884677887;-0.006454969756305218
-0.021881103515625;-0.1095733642578125;-1.017791748046875;0.03894047439098358;-0.030128873884677887;-0.006454969756305218
-0.021881103515625;-0.1095733642578125;-1.017791748046875;0.03894047439098358;-0.030128873884677887;-0.006454969756305218
-0.021881103515625;-0.1095733642578125;-1.017791748046875;0.03894047439098358;-0.030128873884677887;-0.006454969756305218
-0.021881103515625;-0.1095733642578125;-1.017791748046875;0.03894047439098358;-0.030128873884677887;-0.006454969756305218
-0.02410888671875;-0.1085205078125;-1.0197601318359375;0.04862372949719429;-0.025651300325989723;-0.0028514466248452663
-0.02410888671875;-0.1085205078125;-1.0197601318359375;0.04862372949719429;-0.025651300325989723;-0.0028514466248452663
-0.02410888671875;-0.1085205078125;-1.0197601318359375;0.04862372949719429;-0.025651300325989723;-0.0028514466248452663
-0.02410888671875;-0.1085205078125;-1.0197601318359375;0.04862372949719429;-0.025651300325989723;-0.0028514466248452663
-0.02410888671875;-0.1085205078125;-1.0197601318359375;0.04862372949719429;-0.025651300325989723;-0.0028514466248452663
-0.02642822265625;-0.107330322265625;-1.018798828125;0.05655036121606827;-0.018383001908659935;-0.0029824741650372744
-0.02642822265625;-0.107330322265625;-1.018798828125;0.05655036121606827;-0.018383001908659935;-0.0029824741650372744
-0.02642822265625;-0.107330322265625;-1.018798828125;0.05655036121606827;-0.018383001908659935;-0.0029824741650372744
-0.02642822265625;-0.107330322265625;-1.018798828125;0.05655036121606827;-0.018383001908659935;-0.0029824741650372744
-0.02642822265625;-0.107330322265625;-1.018798828125;0.05655036121606827;-0.018383001908659935;-0.0029824741650372744
-0.027252197265625;-0.1068572998046875;-1.0163421630859375;0.05907716974616051;-0.00714552728459239;-0.00646695401519537
-0.027252197265625;-0.1068572998046875;-1.0163421630859375;0.05907716974616051;-0.00714552728459239;-0.00646695401519537
-0.027252197265625;-0.1068572998046875;-1.0163421630859375;0.05907716974616051;-0.00714552728459239;-0.00646695401519537
-0.027252197265625;-0.1068572998046875;-1.0163421630859375;0.05907716974616051;-0.00714552728459239;-0.00646695401519537
-0.027252197265625;-0.1068572998046875;-1.0163421630859375;0.05907716974616051;-0.00714552728459239;-0.00646695401519537
-0.02569580078125;-0.1062469482421875;-1.014862060546875;0.05389998480677605;0.0004223773430567235;-0.005391569808125496
-0.02569580078125;-0.1062469482421875;-1.014862060546875;0.05389998480677605;0.0004223773430567235;-0.005391569808125496
-0.02569580078125;-0.1062469482421875;-1.014862060546875;0.05389998480677605;0.0004223773430567235;-0.005391569808125496
-0.02569580078125;-0.1062469482421875;-1.014862060546875;0.05389998480677605;0.0004223773430567235;-0.005391569808125496
-0.02569580078125;-0.1062469482421875;-1.014862060546875;0.05389998480677605;0.0004223773430567235;-0.005391569808125496
-0.023590087890625;-0.1047210693359375;-1.015899658203125;0.05848567932844162;0.01002413872629404;-0.007059507537633181
-0.023590087890625;-0.1047210693359375;-1.015899658203125;0.05848567932844162;0.01002413872629404;-0.007059507537633181
-0.023590087890625;-0.1047210693359375;-1.015899658203125;0.05848567932844162;0.01002413872629404;-0.007059507537633181
-0.023590087890625;-0.1047210693359375;-1.015899658203125;0.05848567932844162;0.01002413872629404;-0.007059507537633181
-0.023590087890625;-0.1047210693359375;-1.015899658203125;0.05848567932844162;0.01002413872629404;-0.007059507537633181
-0.0220489501953125;-0.1031951904296875;-1.01824951171875;0.06367325037717819;0.005650694947689772;-0.013273727148771286
-0.0220489501953125;-0.1031951904296875;-1.01824951171875;0.06367325037717819;0.005650694947689772;-0.013273727148771286
-0.0220489501953125;-0.1031951904296875;-1.01824951171875;0.06367325037717819;0.005650694947689772;-0.013273727148771286
-0.0220489501953125;-0.1031951904296875;-1.01824951171875;0.06367325037717819;0.005650694947689772;-0.013273727148771286
-0.0220489501953125;-0.1031951904296875;-1.01824951171875;0.06367325037717819;0.005650694947689772;-0.013273727148771286
-0.02069091796875;-0.1022491455078125;-1.018829345703125;0.06963660567998886;0.006334594916552305;-0.011480088345706463
-0.02069091796875;-0.1022491455078125;-1.018829345703125;0.06963660567998886;0.006334594916552305;-0.011480088345706463
-0.02069091796875;-0.1022491455078125;-1.018829345703125;0.06963660567998886;0.006334594916552305;-0.011480088345706463
-0.02069091796875;-0.1022491455078125;-1.018829345703125;0.06963660567998886;0.006334594916552305;-0.011480088345706463
-0.02069091796875;-0.1022491455078125;-1.018829345703125;0.06963660567998886;0.006334594916552305;-0.011480088345706463
-0.0209808349609375;-0.1024169921875;-1.019500732421875;0.08198834210634232;-0.00040320257539860904;-0.01708284579217434
-0.0209808349609375;-0.1024169921875;-1.019500732421875;0.08198834210634232;-0.00040320257539860904;-0.01708284579217434
-0.0209808349609375;-0.1024169921875;-1.019500732421875;0.08198834210634232;-0.00040320257539860904;-0.01708284579217434
-0.0209808349609375;-0.1024169921875;-1.019500732421875;0.08198834210634232;-0.00040320257539860904;-0.01708284579217434
-0.0209808349609375;-0.1024169921875;-1.019500732421875;0.08198834210634232;-0.00040320257539860904;-0.01708284579217434
-0.01983642578125;-0.1029205322265625;-1.0164794921875;0.09083270281553268;0.00038056570338085294;-0.012202870100736618
-0.01983642578125;-0.1029205322265625;-1.0164794921875;0.09083270281553268;0.00038056570338085294;-0.012202870100736618
-0.01983642578125;-0.1029205322265625;-1.0164794921875;0.09083270281553268;0.00038056570338085294;-0.012202870100736618
-0.01983642578125;-0.1029205322265625;-1.0164794921875;0.09083270281553268;0.00038056570338085294;-0.012202870100736618
-0.01983642578125;-0.1029205322265625;-1.0164794921875;0.09083270281553268;0.00038056570338085294;-0.012202870100736618
-0.0186309814453125;-0.1050872802734375;-1.0124969482421875;0.09568098932504654;-0.002898318227380514;-0.009600961580872536
-0.0186309814453125;-0.1050872802734375;-1.0124969482421875;0.09568098932504654;-0.002898318227380514;-0.009600961580872536
-0.0186309814453125;-0.1050872802734375;-1.0124969482421875;0.09568098932504654;-0.002898318227380514;-0.009600961580872536
-0.0186309814453125;-0.1050872802734375;-1.0124969482421875;0.09568098932504654;-0.002898318227380514;-0.009600961580872536
-0.0186309814453125;-0.1050872802734375;-1.0124969482421875;0.09295923262834549;-0.0054152715019881725;-0.007016364019364119
-0.0186004638671875;-0.109710693359375;-1.0061492919921875;0.09295923262834549;-0.0054152715019881725;-0.007016364019364119
-0.0186004638671875;-0.109710693359375;-1.0061492919921875;0.09295923262834549;-0.0054152715019881725;-0.007016364019364119
-0.0186004638671875;-0.109710693359375;-1.0061492919921875;0.09295923262834549;-0.0054152715019881725;-0.007016364019364119
-0.0186004638671875;-0.109710693359375;-1.0061492919921875;0.09295923262834549;-0.0054152715019881725;-0.007016364019364119
-0.0186004638671875;-0.109710693359375;-1.0061492919921875;0.09295923262834549;-0.0054152715019881725;-0.007016364019364119
-0.016448974609375;-0.1134796142578125;-0.9999237060546875;0.08593301475048065;-0.00583791546523571;-0.004147606901824474
-0.016448974609375;-0.1134796142578125;-0.9999237060546875;0.08593301475048065;-0.00583791546523571;-0.004147606901824474
-0.016448974609375;-0.1134796142578125;-0.9999237060546875;0.08593301475048065;-0.00583791546523571;-0.004147606901824474
-0.016448974609375;-0.1134796142578125;-0.9999237060546875;0.08593301475048065;-0.00583791546523571;-0.004147606901824474
-0.016448974609375;-0.1134796142578125;-0.9999237060546875;0.07722821086645126;-0.007255782373249531;-0.002532399957999587
-0.0147552490234375;-0.116546630859375;-0.997711181640625;0.07722821086645126;-0.007255782373249531;-0.002532399957999587
