Acell X;Acell Y;Acell Z;Gyro X;Gyro Y;Gyro Z

-0.0262298583984375;-0.0801239013671875;-0.993560791015625;-0.02075800858438015;0.1048494502902031;0.012012987397611141
-0.0262298583984375;-0.0801239013671875;-0.993560791015625;-0.02075800858438015;0.1048494502902031;0.012012987397611141
-0.010406494140625;-0.0934295654296875;-0.9898223876953125;-0.0448409728705883;0.04909830540418625;0.007516239304095507
-0.010406494140625;-0.0934295654296875;-0.9898223876953125;-0.0448409728705883;0.04909830540418625;0.007516239304095507
-0.010406494140625;-0.0934295654296875;-0.9898223876953125;-0.0448409728705883;0.04909830540418625;0.007516239304095507
-0.010406494140625;-0.0934295654296875;-0.9898223876953125;-0.0448409728705883;0.04909830540418625;0.007516239304095507
-0.0105133056640625;-0.092376708984375;-1.0062255859375;-0.05032016336917877;-0.016764333471655846;0.00430260319262743
-0.0105133056640625;-0.092376708984375;-1.0062255859375;-0.05032016336917877;-0.016764333471655846;0.00430260319262743
-0.0105133056640625;-0.092376708984375;-1.0062255859375;-0.05032016336917877;-0.016764333471655846;0.00430260319262743
-0.0105133056640625;-0.092376708984375;-1.0062255859375;-0.05032016336917877;-0.016764333471655846;0.00430260319262743
-0.0105133056640625;-0.092376708984375;-1.0062255859375;-0.05032016336917877;-0.016764333471655846;0.00430260319262743
-0.0094757080078125;-0.08831787109375;-1.01397705078125;-0.0423024483025074;-0.043890759348869324;0.005109274294227362
-0.0094757080078125;-0.08831787109375;-1.01397705078125;-0.0423024483025074;-0.043890759348869324;0.005109274294227362
-0.0094757080078125;-0.08831787109375;-1.01397705078125;-0.0423024483025074;-0.043890759348869324;0.005109274294227362
-0.0094757080078125;-0.08831787109375;-1.01397705078125;-0.0423024483025074;-0.043890759348869324;0.005109274294227362
-0.0094757080078125;-0.08831787109375;-1.01397705078125;-0.0423024483025074;-0.043890759348869324;0.005109274294227362
-0.0131683349609375;-0.0845489501953125;-1.013671875;-0.02857571840286255;-0.02707795612514019;0.0017438378417864442
-0.0131683349609375;-0.0845489501953125;-1.013671875;-0.02857571840286255;-0.02707795612514019;0.0017438378417864442
-0.0131683349609375;-0.0845489501953125;-1.013671875;-0.02857571840286255;-0.02707795612514019;0.0017438378417864442
-0.0131683349609375;-0.0845489501953125;-1.013671875;-0.02857571840286255;-0.02707795612514019;0.0017438378417864442
-0.0131683349609375;-0.0845489501953125;-1.013671875;-0.02857571840286255;-0.02707795612514019;0.0017438378417864442
-0.01837158203125;-0.08050537109375;-1.01202392578125;-0.01624874398112297;0.007270696107298136;0.003057841444388032
-0.01837158203125;-0.08050537109375;-1.01202392578125;-0.01624874398112297;0.007270696107298136;0.003057841444388032
-0.01837158203125;-0.08050537109375;-1.01202392578125;-0.01624874398112297;0.007270696107298136;0.003057841444388032
-0.01837158203125;-0.08050537109375;-1.01202392578125;-0.01624874398112297;0.007270696107298136;0.003057841444388032
-0.01837158203125;-0.08050537109375;-1.01202392578125;-0.01624874398112297;0.007270696107298136;0.003057841444388032
-0.0186767578125;-0.0788421630859375;-1.0127410888671875;-0.0030192257836461067;0.02628752961754799;0.001327053178101778
-0.0186767578125;-0.0788421630859375;-1.0127410888671875;-0.0030192257836461067;0.02628752961754799;0.001327053178101778
-0.0186767578125;-0.0788421630859375;-1.0127410888671875;-0.0030192257836461067;0.02628752961754799;0.001327053178101778
-0.0186767578125;-0.0788421630859375;-1.0127410888671875;-0.0030192257836461067;0.02628752961754799;0.001327053178101778
-0.0186767578125;-0.0788421630859375;-1.0127410888671875;-0.0030192257836461067;0.02628752961754799;0.001327053178101778
-0.0169219970703125;-0.0792236328125;-1.0155792236328125;-0.0031337416730821133;0.02057931013405323;-0.0008649947121739388
-0.0169219970703125;-0.0792236328125;-1.0155792236328125;-0.0031337416730821133;0.02057931013405323;-0.0008649947121739388
-0.0169219970703125;-0.0792236328125;-1.0155792236328125;-0.0031337416730821133;0.02057931013405323;-0.0008649947121739388
-0.0169219970703125;-0.0792236328125;-1.0155792236328125;-0.0031337416730821133;0.02057931013405323;-0.0008649947121739388
-0.0169219970703125;-0.0792236328125;-1.0155792236328125;-0.0031337416730821133;0.02057931013405323;-0.0008649947121739388
-0.0157012939453125;-0.0806427001953125;-1.0184478759765625;-0.004622715059667826;0.006025668233633041;0.0011432950850576162
-0.0157012939453125;-0.0806427001953125;-1.0184478759765625;-0.004622715059667826;0.006025668233633041;0.0011432950850576162
-0.0157012939453125;-0.0806427001953125;-1.0184478759765625;-0.004622715059667826;0.006025668233633041;0.0011432950850576162
-0.0157012939453125;-0.0806427001953125;-1.0184478759765625;-0.004622715059667826;0.006025668233633041;0.0011432950850576162
-0.0157012939453125;-0.0806427001953125;-1.0184478759765625;-0.004622715059667826;0.006025668233633041;0.0011432950850576162
-0.0165557861328125;-0.081329345703125;-1.0200653076171875;-0.004460262134671211;-0.004890362732112408;-0.001996838254854083
-0.0165557861328125;-0.081329345703125;-1.0200653076171875;-0.004460262134671211;-0.004890362732112408;-0.001996838254854083
-0.0165557861328125;-0.081329345703125;-1.0200653076171875;-0.004460262134671211;-0.004890362732112408;-0.001996838254854083
-0.0165557861328125;-0.081329345703125;-1.0200653076171875;-0.004460262134671211;-0.004890362732112408;-0.001996838254854083
-0.0165557861328125;-0.081329345703125;-1.0200653076171875;-0.004460262134671211;-0.004890362732112408;-0.001996838254854083
-0.0162506103515625;-0.0826416015625;-1.0195159912109375;-0.003311640815809369;-0.006041114684194326;0.001415736391209066
-0.0162506103515625;-0.0826416015625;-1.0195159912109375;-0.003311640815809369;-0.006041114684194326;0.001415736391209066
-0.0162506103515625;-0.0826416015625;-1.0195159912109375;-0.003311640815809369;-0.006041114684194326;0.001415736391209066
-0.0162506103515625;-0.0826416015625;-1.0195159912109375;-0.003311640815809369;-0.006041114684194326;0.001415736391209066
-0.0162506103515625;-0.0826416015625;-1.0195159912109375;-0.003311640815809369;-0.006041114684194326;0.001415736391209066
-0.0160369873046875;-0.0831451416015625;-1.017608642578125;-0.006940464023500681;-0.007660849019885063;0.0030541131272912025
-0.0160369873046875;-0.0831451416015625;-1.017608642578125;-0.006940464023500681;-0.007660849019885063;0.0030541131272912025
-0.0160369873046875;-0.0831451416015625;-1.017608642578125;-0.006940464023500681;-0.007660849019885063;0.0030541131272912025
-0.0160369873046875;-0.0831451416015625;-1.017608642578125;-0.006940464023500681;-0.007660849019885063;0.0030541131272912025
-0.0160369873046875;-0.0831451416015625;-1.017608642578125;-0.006940464023500681;-0.007660849019885063;0.0030541131272912025
-0.0162811279296875;-0.085052490234375;-1.0179443359375;-0.007734352257102728;-0.003935619257390499;0.0026700852904468775
-0.0162811279296875;-0.085052490234375;-1.0179443359375;-0.007734352257102728;-0.003935619257390499;0.0026700852904468775
-0.0162811279296875;-0.085052490234375;-1.0179443359375;-0.007734352257102728;-0.003935619257390499;0.0026700852904468775
-0.0162811279296875;-0.085052490234375;-1.0179443359375;-0.007734352257102728;-0.003935619257390499;0.0026700852904468775
-0.0162811279296875;-0.085052490234375;-1.0179443359375;-0.007734352257102728;-0.003935619257390499;0.0026700852904468775
-0.0168609619140625;-0.0858612060546875;-1.0177764892578125;-0.009214803576469421;-0.007680290378630161;0.0031276163645088673
-0.0168609619140625;-0.0858612060546875;-1.0177764892578125;-0.009214803576469421;-0.007680290378630161;0.0031276163645088673
-0.0168609619140625;-0.0858612060546875;-1.0177764892578125;-0.009214803576469421;-0.007680290378630161;0.0031276163645088673
-0.0168609619140625;-0.0858612060546875;-1.0177764892578125;-0.009214803576469421;-0.007680290378630161;0.0031276163645088673
-0.0168609619140625;-0.0858612060546875;-1.0177764892578125;-0.009214803576469421;-0.007680290378630161;0.0031276163645088673
-0.015625;-0.085662841796875;-1.014617919921875;-0.019213374704122543;-0.009877397678792477;0.003896470880135894
-0.015625;-0.085662841796875;-1.014617919921875;-0.019213374704122543;-0.009877397678792477;0.003896470880135894
-0.015625;-0.085662841796875;-1.014617919921875;-0.019213374704122543;-0.009877397678792477;0.003896470880135894
-0.015625;-0.085662841796875;-1.014617919921875;-0.019213374704122543;-0.009877397678792477;0.003896470880135894
-0.015625;-0.085662841796875;-1.014617919921875;-0.019213374704122543;-0.009877397678792477;0.003896470880135894
-0.0167236328125;-0.0850982666015625;-1.0117950439453125;-0.03020024672150612;-0.009571933187544346;0.006431800313293934
-0.0167236328125;-0.0850982666015625;-1.0117950439453125;-0.03020024672150612;-0.009571933187544346;0.006431800313293934
-0.0167236328125;-0.0850982666015625;-1.0117950439453125;-0.03020024672150612;-0.009571933187544346;0.006431800313293934
-0.0167236328125;-0.0850982666015625;-1.0117950439453125;-0.03020024672150612;-0.009571933187544346;0.006431800313293934
-0.0167236328125;-0.0850982666015625;-1.0117950439453125;-0.03020024672150612;-0.009571933187544346;0.006431800313293934
-0.016357421875;-0.0850982666015625;-1.0089569091796875;-0.03977377712726593;-0.010337325744330883;0.004941495135426521
-0.016357421875;-0.0850982666015625;-1.0089569091796875;-0.03977377712726593;-0.010337325744330883;0.004941495135426521
-0.016357421875;-0.0850982666015625;-1.0089569091796875;-0.03977377712726593;-0.010337325744330883;0.004941495135426521
-0.016357421875;-0.0850982666015625;-1.0089569091796875;-0.03977377712726593;-0.010337325744330883;0.004941495135426521
-0.016357421875;-0.0850982666015625;-1.0089569091796875;-0.03977377712726593;-0.010337325744330883;0.004941495135426521
-0.01611328125;-0.0824432373046875;-1.007537841796875;-0.051784366369247437;-0.0036855486687272787;0.007212639320641756
-0.01611328125;-0.0824432373046875;-1.007537841796875;-0.051784366369247437;-0.0036855486687272787;0.007212639320641756
-0.01611328125;-0.0824432373046875;-1.007537841796875;-0.051784366369247437;-0.0036855486687272787;0.007212639320641756
-0.01611328125;-0.0824432373046875;-1.007537841796875;-0.051784366369247437;-0.0036855486687272787;0.007212639320641756
-0.01611328125;-0.0824432373046875;-1.007537841796875;-0.051784366369247437;-0.0036855486687272787;0.007212639320641756
-0.0172119140625;-0.07989501953125;-1.006134033203125;-0.05384432151913643;0.0018274611793458462;0.008668323047459126
-0.0172119140625;-0.07989501953125;-1.006134033203125;-0.05384432151913643;0.0018274611793458462;0.008668323047459126
-0.0172119140625;-0.07989501953125;-1.006134033203125;-0.05384432151913643;0.0018274611793458462;0.008668323047459126
-0.0172119140625;-0.07989501953125;-1.006134033203125;-0.05384432151913643;0.0018274611793458462;0.008668323047459126
-0.0172119140625;-0.07989501953125;-1.006134033203125;-0.05384432151913643;0.0018274611793458462;0.008668323047459126
-0.0185699462890625;-0.0775146484375;-1.0085601806640625;-0.057381268590688705;0.00270736962556839;0.008354336023330688
-0.0185699462890625;-0.0775146484375;-1.0085601806640625;-0.057381268590688705;0.00270736962556839;0.008354336023330688
-0.0185699462890625;-0.0775146484375;-1.0085601806640625;-0.057381268590688705;0.00270736962556839;0.008354336023330688
-0.0185699462890625;-0.0775146484375;-1.0085601806640625;-0.057381268590688705;0.00270736962556839;0.008354336023330688
-0.0185699462890625;-0.0775146484375;-1.0085601806640625;-0.057381268590688705;0.00270736962556839;0.008354336023330688
-0.018585205078125;-0.07489013671875;-1.0113525390625;-0.05107783153653145;0.005544168874621391;0.006253368686884642
-0.018585205078125;-0.07489013671875;-1.0113525390625;-0.05107783153653145;0.005544168874621391;0.006253368686884642
-0.018585205078125;-0.07489013671875;-1.0113525390625;-0.05107783153653145;0.005544168874621391;0.006253368686884642
-0.018585205078125;-0.07489013671875;-1.0113525390625;-0.05107783153653145;0.005544168874621391;0.006253368686884642
-0.018585205078125;-0.07489013671875;-1.0113525390625;-0.05107783153653145;0.005544168874621391;0.006253368686884642
-0.017791748046875;-0.072906494140625;-1.012420654296875;-0.04576961696147919;0.0021433120127767324;0.007756190374493599
-0.017791748046875;-0.072906494140625;-1.012420654296875;-0.04576961696147919;0.0021433120127767324;0.007756190374493599
-0.017791748046875;-0.072906494140625;-1.012420654296875;-0.04576961696147919;0.0021433120127767324;0.007756190374493599
-0.017791748046875;-0.072906494140625;-1.012420654296875;-0.04576961696147919;0.0021433120127767324;0.007756190374493599
-0.017791748046875;-0.072906494140625;-1.012420654296875;-0.04576961696147919;0.0021433120127767324;0.007756190374493599
-0.0194549560546875;-0.0724639892578125;-1.0136566162109375;-0.037689320743083954;0.007582552265375853;0.0035958001390099525
-0.0194549560546875;-0.0724639892578125;-1.0136566162109375;-0.037689320743083954;0.007582552265375853;0.0035958001390099525
-0.0194549560546875;-0.0724639892578125;-1.0136566162109375;-0.037689320743083954;0.007582552265375853;0.0035958001390099525
-0.0194549560546875;-0.0724639892578125;-1.0136566162109375;-0.037689320743083954;0.007582552265375853;0.0035958001390099525
-0.0194549560546875;-0.0724639892578125;-1.0136566162109375;-0.037689320743083954;0.007582552265375853;0.0035958001390099525
-0.01947021484375;-0.071990966796875;-1.0133209228515625;-0.027242006734013557;0.0171507578343153;0.004817125853151083
-0.01947021484375;-0.071990966796875;-1.0133209228515625;-0.027242006734013557;0.0171507578343153;0.004817125853151083
-0.01947021484375;-0.071990966796875;-1.0133209228515625;-0.027242006734013557;0.0171507578343153;0.004817125853151083
-0.01947021484375;-0.071990966796875;-1.0133209228515625;-0.027242006734013557;0.0171507578343153;0.004817125853151083
-0.01947021484375;-0.071990966796875;-1.0133209228515625;-0.027242006734013557;0.0171507578343153;0.004817125853151083
-0.0185089111328125;-0.0727691650390625;-1.015625;-0.02418416552245617;0.012733105570077896;0.005797169171273708
-0.0185089111328125;-0.0727691650390625;-1.015625;-0.02418416552245617;0.012733105570077896;0.005797169171273708
-0.0185089111328125;-0.0727691650390625;-1.015625;-0.02418416552245617;0.012733105570077896;0.005797169171273708
-0.0185089111328125;-0.0727691650390625;-1.015625;-0.02418416552245617;0.012733105570077896;0.005797169171273708
-0.0185089111328125;-0.0727691650390625;-1.015625;-0.02418416552245617;0.012733105570077896;0.005797169171273708
-0.0191802978515625;-0.07476806640625;-1.0165557861328125;-0.02280837669968605;0.014192784205079079;0.004818989895284176
-0.0191802978515625;-0.07476806640625;-1.0165557861328125;-0.02280837669968605;0.014192784205079079;0.004818989895284176
-0.0191802978515625;-0.07476806640625;-1.0165557861328125;-0.02280837669968605;0.014192784205079079;0.004818989895284176
-0.0191802978515625;-0.07476806640625;-1.0165557861328125;-0.02280837669968605;0.014192784205079079;0.004818989895284176
-0.0191802978515625;-0.07476806640625;-1.0165557861328125;-0.02280837669968605;0.014192784205079079;0.004818989895284176
-0.0179290771484375;-0.075958251953125;-1.015869140625;-0.02015506848692894;0.009251821786165237;0.007812383119016886
-0.0179290771484375;-0.075958251953125;-1.015869140625;-0.02015506848692894;0.009251821786165237;0.007812383119016886
-0.0179290771484375;-0.075958251953125;-1.015869140625;-0.02015506848692894;0.009251821786165237;0.007812383119016886
-0.0179290771484375;-0.075958251953125;-1.015869140625;-0.02015506848692894;0.009251821786165237;0.007812383119016886
-0.0179290771484375;-0.075958251953125;-1.015869140625;-0.02015506848692894;0.009251821786165237;0.007812383119016886
-0.017486572265625;-0.077667236328125;-1.0161895751953125;-0.02243713289499283;0.005122590344399214;0.00788641907274723
-0.017486572265625;-0.077667236328125;-1.0161895751953125;-0.02243713289499283;0.005122590344399214;0.00788641907274723
-0.017486572265625;-0.077667236328125;-1.0161895751953125;-0.02243713289499283;0.005122590344399214;0.00788641907274723
-0.017486572265625;-0.077667236328125;-1.0161895751953125;-0.02243713289499283;0.005122590344399214;0.00788641907274723
-0.017486572265625;-0.077667236328125;-1.0161895751953125;-0.02243713289499283;0.005122590344399214;0.00788641907274723
-0.0167694091796875;-0.0796356201171875;-1.01861572265625;-0.023975374177098274;0.00044554684427566826;0.005588111001998186
-0.0167694091796875;-0.0796356201171875;-1.01861572265625;-0.023975374177098274;0.00044554684427566826;0.005588111001998186
-0.0167694091796875;-0.0796356201171875;-1.01861572265625;-0.023975374177098274;0.00044554684427566826;0.005588111001998186
-0.0167694091796875;-0.0796356201171875;-1.01861572265625;-0.023975374177098274;0.00044554684427566826;0.005588111001998186
-0.0167694091796875;-0.0796356201171875;-1.01861572265625;-0.023975374177098274;0.00044554684427566826;0.005588111001998186
-0.0177764892578125;-0.080718994140625;-1.0190887451171875;-0.021827533841133118;-0.005336708389222622;0.006072273477911949
-0.0177764892578125;-0.080718994140625;-1.0190887451171875;-0.021827533841133118;-0.005336708389222622;0.006072273477911949
-0.0177764892578125;-0.080718994140625;-1.0190887451171875;-0.021827533841133118;-0.005336708389222622;0.006072273477911949
-0.0177764892578125;-0.080718994140625;-1.0190887451171875;-0.021827533841133118;-0.005336708389222622;0.006072273477911949
-0.0177764892578125;-0.080718994140625;-1.0190887451171875;-0.021827533841133118;-0.005336708389222622;0.006072273477911949
-0.01727294921875;-0.0805511474609375;-1.017486572265625;-0.019777698442339897;-6.0986389144090936e-05;0.0063798688352108
-0.01727294921875;-0.0805511474609375;-1.017486572265625;-0.019777698442339897;-6.0986389144090936e-05;0.0063798688352108
-0.01727294921875;-0.0805511474609375;-1.017486572265625;-0.019777698442339897;-6.0986389144090936e-05;0.0063798688352108
-0.01727294921875;-0.0805511474609375;-1.017486572265625;-0.019777698442339897;-6.0986389144090936e-05;0.0063798688352108
-0.01727294921875;-0.0805511474609375;-1.017486572265625;-0.019777698442339897;-6.0986389144090936e-05;0.0063798688352108
-0.01690673828125;-0.0794830322265625;-1.0154571533203125;-0.023840084671974182;0.0018628811230883002;0.00487092137336731
-0.01690673828125;-0.0794830322265625;-1.0154571533203125;-0.023840084671974182;0.0018628811230883002;0.00487092137336731
-0.01690673828125;-0.0794830322265625;-1.0154571533203125;-0.023840084671974182;0.0018628811230883002;0.00487092137336731
-0.01690673828125;-0.0794830322265625;-1.0154571533203125;-0.023840084671974182;0.0018628811230883002;0.00487092137336731
-0.01690673828125;-0.0794830322265625;-1.0154571533203125;-0.023840084671974182;0.0018628811230883002;0.00487092137336731
-0.01690673828125;-0.0792388916015625;-1.016265869140625;-0.022669626399874687;0.002033855998888612;0.00503870053216815
-0.01690673828125;-0.0792388916015625;-1.016265869140625;-0.022669626399874687;0.002033855998888612;0.00503870053216815
-0.01690673828125;-0.0792388916015625;-1.016265869140625;-0.022669626399874687;0.002033855998888612;0.00503870053216815
-0.01690673828125;-0.0792388916015625;-1.016265869140625;-0.022669626399874687;0.002033855998888612;0.00503870053216815
-0.01690673828125;-0.0792388916015625;-1.016265869140625;-0.022669626399874687;0.002033855998888612;0.00503870053216815
-0.0157623291015625;-0.077392578125;-1.016082763671875;-0.02395486831665039;0.002046106616035104;0.005652559455484152
-0.0157623291015625;-0.077392578125;-1.016082763671875;-0.02395486831665039;0.002046106616035104;0.005652559455484152
-0.0157623291015625;-0.077392578125;-1.016082763671875;-0.02395486831665039;0.002046106616035104;0.005652559455484152
-0.0157623291015625;-0.077392578125;-1.016082763671875;-0.02395486831665039;0.002046106616035104;0.005652559455484152
-0.0157623291015625;-0.077392578125;-1.016082763671875;-0.02395486831665039;0.002046106616035104;0.005652559455484152
-0.0158233642578125;-0.076446533203125;-1.0145721435546875;-0.027901405468583107;-0.0014450311427935958;0.006987601984292269
-0.0158233642578125;-0.076446533203125;-1.0145721435546875;-0.027901405468583107;-0.0014450311427935958;0.006987601984292269
-0.0158233642578125;-0.076446533203125;-1.0145721435546875;-0.027901405468583107;-0.0014450311427935958;0.006987601984292269
-0.0158233642578125;-0.076446533203125;-1.0145721435546875;-0.027901405468583107;-0.0014450311427935958;0.006987601984292269
-0.0158233642578125;-0.076446533203125;-1.0145721435546875;-0.027901405468583107;-0.0014450311427935958;0.006987601984292269
-0.0158233642578125;-0.0760955810546875;-1.0136566162109375;-0.028779450803995132;-0.0024314660113304853;0.00541340745985508
-0.0158233642578125;-0.0760955810546875;-1.0136566162109375;-0.028779450803995132;-0.0024314660113304853;0.00541340745985508
-0.0158233642578125;-0.0760955810546875;-1.0136566162109375;-0.028779450803995132;-0.0024314660113304853;0.00541340745985508
-0.0158233642578125;-0.0760955810546875;-1.0136566162109375;-0.028779450803995132;-0.0024314660113304853;0.00541340745985508
-0.0158233642578125;-0.0760955810546875;-1.0136566162109375;-0.030668430030345917;-0.0006623281515203416;0.00827843602746725
-0.0150604248046875;-0.073516845703125;-1.01373291015625;-0.030668430030345917;-0.0006623281515203416;0.00827843602746725
-0.0150604248046875;-0.073516845703125;-1.01373291015625;-0.030668430030345917;-0.0006623281515203416;0.00827843602746725
-0.0150604248046875;-0.073516845703125;-1.01373291015625;-0.030668430030345917;-0.0006623281515203416;0.00827843602746725
-0.0150604248046875;-0.073516845703125;-1.01373291015625;-0.030668430030345917;-0.0006623281515203416;0.00827843602746725
-0.0150604248046875;-0.073516845703125;-1.01373291015625;-0.030668430030345917;-0.0006623281515203416;0.00827843602746725
-0.016021728515625;-0.0726165771484375;-1.013671875;-0.030128341168165207;-0.0036163064651191235;0.003693005535751581
-0.016021728515625;-0.0726165771484375;-1.013671875;-0.030128341168165207;-0.0036163064651191235;0.003693005535751581
-0.016021728515625;-0.0726165771484375;-1.013671875;-0.030128341168165207;-0.0036163064651191235;0.003693005535751581
-0.016021728515625;-0.0726165771484375;-1.013671875;-0.030128341168165207;-0.0036163064651191235;0.003693005535751581
-0.016021728515625;-0.0726165771484375;-1.013671875;-0.03362160921096802;-0.0014426343841478229;0.004077299498021603
-0.01629638671875;-0.07196044921875;-1.0142669677734375;-0.03362160921096802;-0.0014426343841478229;0.004077299498021603
-0.01629638671875;-0.07196044921875;-1.0142669677734375;-0.03362160921096802;-0.0014426343841478229;0.004077299498021603
-0.01629638671875;-0.07196044921875;-1.0142669677734375;-0.03362160921096802;-0.0014426343841478229;0.004077299498021603
-0.01629638671875;-0.07196044921875;-1.0142669677734375;-0.03362160921096802;-0.0014426343841478229;0.004077299498021603
-0.01629638671875;-0.07196044921875;-1.0142669677734375;-0.03362160921096802;-0.0014426343841478229;0.004077299498021603
-0.0157470703125;-0.0711822509765625;-1.01348876953125;-0.03522243723273277;0.005353220272809267;0.0029108349699527025
-0.0157470703125;-0.0711822509765625;-1.01348876953125;-0.03522243723273277;0.005353220272809267;0.0029108349699527025
-0.0157470703125;-0.0711822509765625;-1.01348876953125;-0.03522243723273277;0.005353220272809267;0.0029108349699527025
-0.0157470703125;-0.0711822509765625;-1.01348876953125;-0.03522243723273277;0.005353220272809267;0.0029108349699527025
-0.0154266357421875;-0.0705413818359375;-1.0118865966796875;-0.03946511819958687;0.005286108236759901;0.0030184267088770866
-0.0154266357421875;-0.0705413818359375;-1.0118865966796875;-0.03946511819958687;0.005286108236759901;0.0030184267088770866
-0.0154266357421875;-0.0705413818359375;-1.0118865966796875;-0.03946511819958687;0.005286108236759901;0.0030184267088770866
-0.0154266357421875;-0.0705413818359375;-1.0118865966796875;-0.03946511819958687;0.005286108236759901;0.0030184267088770866
-0.0154266357421875;-0.0705413818359375;-1.0118865966796875;-0.03946511819958687;0.005286108236759901;0.0030184267088770866
-0.0154266357421875;-0.0705413818359375;-1.0118865966796875;-0.042206842452287674;0.00430233683437109;0.0022272015921771526
-0.01531982421875;-0.0703277587890625;-1.0104522705078125;-0.042206842452287674;0.00430233683437109;0.0022272015921771526
-0.01531982421875;-0.0703277587890625;-1.0104522705078125;-0.042206842452287674;0.00430233683437109;0.0022272015921771526
-0.01531982421875;-0.0703277587890625;-1.0104522705078125;-0.042206842452287674;0.00430233683437109;0.0022272015921771526
-0.01531982421875;-0.0703277587890625;-1.0104522705078125;-0.042206842452287674;0.00430233683437109;0.0022272015921771526
-0.01531982421875;-0.0703277587890625;-1.0104522705078125;-0.04228700324892998;0.006636863574385643;0.002811499172821641
-0.0148773193359375;-0.0709228515625;-1.01312255859375;-0.04228700324892998;0.006636863574385643;0.002811499172821641
-0.0148773193359375;-0.0709228515625;-1.01312255859375;-0.04228700324892998;0.006636863574385643;0.002811499172821641
-0.0148773193359375;-0.0709228515625;-1.01312255859375;-0.04228700324892998;0.006636863574385643;0.002811499172821641
-0.0148773193359375;-0.0709228515625;-1.01312255859375;-0.04228700324892998;0.006636863574385643;0.002811499172821641
-0.01422119140625;-0.0703277587890625;-1.01361083984375;-0.042576223611831665;0.00019734023953787982;0.001303351018577814
-0.01422119140625;-0.0703277587890625;-1.01361083984375;-0.042576223611831665;0.00019734023953787982;0.001303351018577814
-0.01422119140625;-0.0703277587890625;-1.01361083984375;-0.042576223611831665;0.00019734023953787982;0.001303351018577814
-0.01422119140625;-0.0703277587890625;-1.01361083984375;-0.042576223611831665;0.00019734023953787982;0.001303351018577814
-0.01422119140625;-0.0703277587890625;-1.01361083984375;-0.042576223611831665;0.00019734023953787982;0.001303351018577814
-0.014190673828125;-0.07061767578125;-1.0159149169921875;-0.03707333281636238;0.0010804444318637252;0.0035505264531821012
-0.014190673828125;-0.07061767578125;-1.0159149169921875;-0.03707333281636238;0.0010804444318637252;0.0035505264531821012
-0.014190673828125;-0.07061767578125;-1.0159149169921875;-0.03707333281636238;0.0010804444318637252;0.0035505264531821012
-0.014190673828125;-0.07061767578125;-1.0159149169921875;-0.03707333281636238;0.0010804444318637252;0.0035505264531821012
-0.014190673828125;-0.07061767578125;-1.0159149169921875;-0.03707333281636238;0.0010804444318637252;0.0035505264531821012
-0.0146942138671875;-0.071990966796875;-1.018524169921875;-0.03339630737900734;-0.00013688647595699877;0.0023821976501494646
-0.0146942138671875;-0.071990966796875;-1.018524169921875;-0.03339630737900734;-0.00013688647595699877;0.0023821976501494646
-0.0146942138671875;-0.071990966796875;-1.018524169921875;-0.03339630737900734;-0.00013688647595699877;0.0023821976501494646
-0.0146942138671875;-0.071990966796875;-1.018524169921875;-0.03339630737900734;-0.00013688647595699877;0.0023821976501494646
-0.0146942138671875;-0.071990966796875;-1.018524169921875;-0.03339630737900734;-0.00013688647595699877;0.0023821976501494646
-0.014068603515625;-0.07220458984375;-1.0171356201171875;-0.03291294351220131;-0.0023062974214553833;0.0022804648615419865
-0.014068603515625;-0.07220458984375;-1.0171356201171875;-0.03291294351220131;-0.0023062974214553833;0.0022804648615419865
-0.014068603515625;-0.07220458984375;-1.0171356201171875;-0.03291294351220131;-0.0023062974214553833;0.0022804648615419865
-0.014068603515625;-0.07220458984375;-1.0171356201171875;-0.03291294351220131;-0.0023062974214553833;0.0022804648615419865
-0.014068603515625;-0.07220458984375;-1.0171356201171875;-0.03291294351220131;-0.0023062974214553833;0.0022804648615419865
-0.01470947265625;-0.0728912353515625;-1.0169219970703125;-0.03442774713039398;-0.009131712839007378;0.0019206717843189836
-0.01470947265625;-0.0728912353515625;-1.0169219970703125;-0.03442774713039398;-0.009131712839007378;0.0019206717843189836
-0.01470947265625;-0.0728912353515625;-1.0169219970703125;-0.03442774713039398;-0.009131712839007378;0.0019206717843189836
-0.01470947265625;-0.0728912353515625;-1.0169219970703125;-0.03442774713039398;-0.009131712839007378;0.0019206717843189836
-0.01470947265625;-0.0728912353515625;-1.0169219970703125;-0.03442774713039398;-0.009131712839007378;0.0019206717843189836
-0.0158843994140625;-0.072235107421875;-1.0164947509765625;-0.040657948702573776;-0.0089391665533185;0.003718305379152298
-0.0158843994140625;-0.072235107421875;-1.0164947509765625;-0.040657948702573776;-0.0089391665533185;0.003718305379152298
-0.0158843994140625;-0.072235107421875;-1.0164947509765625;-0.040657948702573776;-0.0089391665533185;0.003718305379152298
-0.0158843994140625;-0.072235107421875;-1.0164947509765625;-0.040657948702573776;-0.0089391665533185;0.003718305379152298
-0.0158843994140625;-0.072235107421875;-1.0164947509765625;-0.040657948702573776;-0.0089391665533185;0.003718305379152298
-0.0165557861328125;-0.0718994140625;-1.0129547119140625;-0.05064266920089722;-0.008503207005560398;0.003945739474147558
-0.0165557861328125;-0.0718994140625;-1.0129547119140625;-0.05064266920089722;-0.008503207005560398;0.003945739474147558
-0.0165557861328125;-0.0718994140625;-1.0129547119140625;-0.05064266920089722;-0.008503207005560398;0.003945739474147558
-0.0165557861328125;-0.0718994140625;-1.0129547119140625;-0.05064266920089722;-0.008503207005560398;0.003945739474147558
-0.0165557861328125;-0.0718994140625;-1.0129547119140625;-0.05064266920089722;-0.008503207005560398;0.003945739474147558
-0.01544189453125;-0.072265625;-1.0079803466796875;-0.06374036520719528;-0.004373176954686642;0.007074953522533178
-0.01544189453125;-0.072265625;-1.0079803466796875;-0.06374036520719528;-0.004373176954686642;0.007074953522533178
-0.01544189453125;-0.072265625;-1.0079803466796875;-0.06374036520719528;-0.004373176954686642;0.007074953522533178
-0.01544189453125;-0.072265625;-1.0079803466796875;-0.06374036520719528;-0.004373176954686642;0.007074953522533178
-0.01544189453125;-0.072265625;-1.0079803466796875;-0.06374036520719528;-0.004373176954686642;0.007074953522533178
-0.0149993896484375;-0.07122802734375;-1.0052337646484375;-0.08040722459554672;-0.0014178669080138206;0.007182012777775526
-0.0149993896484375;-0.07122802734375;-1.0052337646484375;-0.08040722459554672;-0.0014178669080138206;0.007182012777775526
-0.0149993896484375;-0.07122802734375;-1.0052337646484375;-0.08040722459554672;-0.0014178669080138206;0.007182012777775526
-0.0149993896484375;-0.07122802734375;-1.0052337646484375;-0.08040722459554672;-0.0014178669080138206;0.007182012777775526
-0.0149993896484375;-0.07122802734375;-1.0052337646484375;-0.08040722459554672;-0.0014178669080138206;0.007182012777775526
-0.0146484375;-0.0706939697265625;-1.0056304931640625;-0.09280530363321304;0.00501206936314702;0.003612045431509614
-0.0146484375;-0.0706939697265625;-1.0056304931640625;-0.09280530363321304;0.00501206936314702;0.003612045431509614
-0.0146484375;-0.0706939697265625;-1.0056304931640625;-0.09280530363321304;0.00501206936314702;0.003612045431509614
-0.0146484375;-0.0706939697265625;-1.0056304931640625;-0.09280530363321304;0.00501206936314702;0.003612045431509614
-0.0146484375;-0.0706939697265625;-1.0056304931640625;-0.09280530363321304;0.00501206936314702;0.003612045431509614
-0.015350341796875;-0.0683135986328125;-1.0120391845703125;-0.09053762257099152;0.003722300287336111;0.003157177474349737
-0.015350341796875;-0.0683135986328125;-1.0120391845703125;-0.09053762257099152;0.003722300287336111;0.003157177474349737
-0.015350341796875;-0.0683135986328125;-1.0120391845703125;-0.09053762257099152;0.003722300287336111;0.003157177474349737
-0.015350341796875;-0.0683135986328125;-1.0120391845703125;-0.09053762257099152;0.003722300287336111;0.003157177474349737
-0.015350341796875;-0.0683135986328125;-1.0120391845703125;-0.09053762257099152;0.003722300287336111;0.003157177474349737
-0.0157928466796875;-0.0650482177734375;-1.0182037353515625;-0.08560864627361298;-0.0041521345265209675;0.006857106927782297
-0.0157928466796875;-0.0650482177734375;-1.0182037353515625;-0.08560864627361298;-0.0041521345265209675;0.006857106927782297
-0.0157928466796875;-0.0650482177734375;-1.0182037353515625;-0.08560864627361298;-0.0041521345265209675;0.006857106927782297
-0.0157928466796875;-0.0650482177734375;-1.0182037353515625;-0.08560864627361298;-0.0041521345265209675;0.006857106927782297
-0.0157928466796875;-0.0650482177734375;-1.0182037353515625;-0.08560864627361298;-0.0041521345265209675;0.006857106927782297
-0.016082763671875;-0.0648956298828125;-1.02099609375;-0.07359885424375534;-0.0029316076543182135;0.010306433774530888
-0.016082763671875;-0.0648956298828125;-1.02099609375;-0.07359885424375534;-0.0029316076543182135;0.010306433774530888
-0.016082763671875;-0.0648956298828125;-1.02099609375;-0.07359885424375534;-0.0029316076543182135;0.010306433774530888
-0.016082763671875;-0.0648956298828125;-1.02099609375;-0.07359885424375534;-0.0029316076543182135;0.010306433774530888
-0.016082763671875;-0.0648956298828125;-1.02099609375;-0.07359885424375534;-0.0029316076543182135;0.010306433774530888
-0.016021728515625;-0.0634918212890625;-1.018280029296875;-0.060613278299570084;0.001967277145013213;0.006906642112880945
-0.016021728515625;-0.0634918212890625;-1.018280029296875;-0.060613278299570084;0.001967277145013213;0.006906642112880945
-0.016021728515625;-0.0634918212890625;-1.018280029296875;-0.060613278299570084;0.001967277145013213;0.006906642112880945
-0.016021728515625;-0.0634918212890625;-1.018280029296875;-0.060613278299570084;0.001967277145013213;0.006906642112880945
-0.016021728515625;-0.0634918212890625;-1.018280029296875;-0.060613278299570084;0.001967277145013213;0.006906642112880945
-0.0168304443359375;-0.06121826171875;-1.013214111328125;-0.059420984238386154;0.011508317664265633;0.009501625783741474
-0.0168304443359375;-0.06121826171875;-1.013214111328125;-0.059420984238386154;0.011508317664265633;0.009501625783741474
-0.0168304443359375;-0.06121826171875;-1.013214111328125;-0.059420984238386154;0.011508317664265633;0.009501625783741474
-0.0168304443359375;-0.06121826171875;-1.013214111328125;-0.059420984238386154;0.011508317664265633;0.009501625783741474
-0.0168304443359375;-0.06121826171875;-1.013214111328125;-0.059420984238386154;0.011508317664265633;0.009501625783741474
-0.018707275390625;-0.06005859375;-1.0122833251953125;-0.059909671545028687;0.014036723412573338;0.012940299697220325
-0.018707275390625;-0.06005859375;-1.0122833251953125;-0.059909671545028687;0.014036723412573338;0.012940299697220325
-0.018707275390625;-0.06005859375;-1.0122833251953125;-0.059909671545028687;0.014036723412573338;0.012940299697220325
-0.018707275390625;-0.06005859375;-1.0122833251953125;-0.059909671545028687;0.014036723412573338;0.012940299697220325
-0.018707275390625;-0.06005859375;-1.0122833251953125;-0.059909671545028687;0.014036723412573338;0.012940299697220325
-0.0193328857421875;-0.06085205078125;-1.018768310546875;-0.05128555744886398;0.008652077987790108;0.010112554766237736
-0.0193328857421875;-0.06085205078125;-1.018768310546875;-0.05128555744886398;0.008652077987790108;0.010112554766237736
-0.0193328857421875;-0.06085205078125;-1.018768310546875;-0.05128555744886398;0.008652077987790108;0.010112554766237736
-0.0193328857421875;-0.06085205078125;-1.018768310546875;-0.05128555744886398;0.008652077987790108;0.010112554766237736
-0.0193328857421875;-0.06085205078125;-1.018768310546875;-0.05128555744886398;0.008652077987790108;0.010112554766237736
-0.01837158203125;-0.06103515625;-1.028350830078125;-0.039204925298690796;-0.012478507123887539;0.008990298956632614
-0.01837158203125;-0.06103515625;-1.028350830078125;-0.039204925298690796;-0.012478507123887539;0.008990298956632614
-0.01837158203125;-0.06103515625;-1.028350830078125;-0.039204925298690796;-0.012478507123887539;0.008990298956632614
-0.01837158203125;-0.06103515625;-1.028350830078125;-0.039204925298690796;-0.012478507123887539;0.008990298956632614
-0.01837158203125;-0.06103515625;-1.028350830078125;-0.039204925298690796;-0.012478507123887539;0.008990298956632614
-0.0178375244140625;-0.06201171875;-1.033050537109375;-0.03407061845064163;-0.026853984221816063;0.007994276471436024
-0.0178375244140625;-0.06201171875;-1.033050537109375;-0.03407061845064163;-0.026853984221816063;0.007994276471436024
-0.0178375244140625;-0.06201171875;-1.033050537109375;-0.03407061845064163;-0.026853984221816063;0.007994276471436024
-0.0178375244140625;-0.06201171875;-1.033050537109375;-0.03407061845064163;-0.026853984221816063;0.007994276471436024
-0.0178375244140625;-0.06201171875;-1.033050537109375;-0.03407061845064163;-0.026853984221816063;0.007994276471436024
-0.01513671875;-0.0665130615234375;-1.022369384765625;-0.04633394256234169;-0.020794494077563286;0.009937585331499577
-0.01513671875;-0.0665130615234375;-1.022369384765625;-0.04633394256234169;-0.020794494077563286;0.009937585331499577
-0.01513671875;-0.0665130615234375;-1.022369384765625;-0.04633394256234169;-0.020794494077563286;0.009937585331499577
-0.01513671875;-0.0665130615234375;-1.022369384765625;-0.04633394256234169;-0.020794494077563286;0.009937585331499577
-0.01513671875;-0.0665130615234375;-1.022369384765625;-0.04633394256234169;-0.020794494077563286;0.009937585331499577
-0.013580322265625;-0.066192626953125;-1.0038604736328125;-0.06962967664003372;0.005788380745798349;0.011938418261706829
-0.013580322265625;-0.066192626953125;-1.0038604736328125;-0.06962967664003372;0.005788380745798349;0.011938418261706829
-0.013580322265625;-0.066192626953125;-1.0038604736328125;-0.06962967664003372;0.005788380745798349;0.011938418261706829
-0.013580322265625;-0.066192626953125;-1.0038604736328125;-0.06962967664003372;0.005788380745798349;0.011938418261706829
-0.013580322265625;-0.066192626953125;-1.0038604736328125;-0.06962967664003372;0.005788380745798349;0.011938418261706829
-0.0175018310546875;-0.0686798095703125;-1.0012664794921875;-0.08488693088293076;0.009562079794704914;0.009852897375822067
-0.0175018310546875;-0.0686798095703125;-1.0012664794921875;-0.08488693088293076;0.009562079794704914;0.009852897375822067
-0.0175018310546875;-0.0686798095703125;-1.0012664794921875;-0.08488693088293076;0.009562079794704914;0.009852897375822067
-0.0175018310546875;-0.0686798095703125;-1.0012664794921875;-0.08488693088293076;0.009562079794704914;0.009852897375822067
-0.0175018310546875;-0.0686798095703125;-1.0012664794921875;-0.08488693088293076;0.009562079794704914;0.009852897375822067
-0.019927978515625;-0.0675201416015625;-1.0152435302734375;-0.08628109097480774;-0.002700711600482464;0.01139832939952612
-0.019927978515625;-0.0675201416015625;-1.0152435302734375;-0.08628109097480774;-0.002700711600482464;0.01139832939952612
-0.019927978515625;-0.0675201416015625;-1.0152435302734375;-0.08628109097480774;-0.002700711600482464;0.01139832939952612
-0.019927978515625;-0.0675201416015625;-1.0152435302734375;-0.08628109097480774;-0.002700711600482464;0.01139832939952612
-0.019927978515625;-0.0675201416015625;-1.0152435302734375;-0.08628109097480774;-0.002700711600482464;0.01139832939952612
-0.01629638671875;-0.060333251953125;-1.0277099609375;-0.0783533975481987;-0.016700683161616325;0.011180482804775238
-0.01629638671875;-0.060333251953125;-1.0277099609375;-0.0783533975481987;-0.016700683161616325;0.011180482804775238
-0.01629638671875;-0.060333251953125;-1.0277099609375;-0.0783533975481987;-0.016700683161616325;0.011180482804775238
-0.01629638671875;-0.060333251953125;-1.0277099609375;-0.0783533975481987;-0.016700683161616325;0.011180482804775238
-0.01629638671875;-0.060333251953125;-1.0277099609375;-0.0783533975481987;-0.016700683161616325;0.011180482804775238
-0.0146484375;-0.0543060302734375;-1.02349853515625;-0.07667693495750427;-0.02881540358066559;0.009649697691202164
-0.0146484375;-0.0543060302734375;-1.02349853515625;-0.07667693495750427;-0.02881540358066559;0.009649697691202164
-0.0146484375;-0.0543060302734375;-1.02349853515625;-0.07667693495750427;-0.02881540358066559;0.009649697691202164
-0.0146484375;-0.0543060302734375;-1.02349853515625;-0.07667693495750427;-0.02881540358066559;0.009649697691202164
-0.0146484375;-0.0543060302734375;-1.02349853515625;-0.07667693495750427;-0.02881540358066559;0.009649697691202164
-0.0195465087890625;-0.0527496337890625;-1.0205230712890625;-0.06810368597507477;-0.032950226217508316;0.0075726984068751335
-0.0195465087890625;-0.0527496337890625;-1.0205230712890625;-0.06810368597507477;-0.032950226217508316;0.0075726984068751335
-0.0195465087890625;-0.0527496337890625;-1.0205230712890625;-0.06810368597507477;-0.032950226217508316;0.0075726984068751335
-0.0195465087890625;-0.0527496337890625;-1.0205230712890625;-0.06810368597507477;-0.032950226217508316;0.0075726984068751335
-0.0195465087890625;-0.0527496337890625;-1.0205230712890625;-0.06810368597507477;-0.032950226217508316;0.0075726984068751335
-0.0182037353515625;-0.0511322021484375;-1.017181396484375;-0.06505143642425537;-0.015063105151057243;0.008204400539398193
-0.0182037353515625;-0.0511322021484375;-1.017181396484375;-0.06505143642425537;-0.015063105151057243;0.008204400539398193
-0.0182037353515625;-0.0511322021484375;-1.017181396484375;-0.06505143642425537;-0.015063105151057243;0.008204400539398193
-0.0182037353515625;-0.0511322021484375;-1.017181396484375;-0.06505143642425537;-0.015063105151057243;0.008204400539398193
-0.0182037353515625;-0.0511322021484375;-1.017181396484375;-0.06505143642425537;-0.015063105151057243;0.008204400539398193
-0.013458251953125;-0.050079345703125;-1.00604248046875;-0.06304687261581421;0.016957411542534828;0.005958290304988623
-0.013458251953125;-0.050079345703125;-1.00604248046875;-0.06304687261581421;0.016957411542534828;0.005958290304988623
-0.013458251953125;-0.050079345703125;-1.00604248046875;-0.06304687261581421;0.016957411542534828;0.005958290304988623
-0.013458251953125;-0.050079345703125;-1.00604248046875;-0.06304687261581421;0.016957411542534828;0.005958290304988623
-0.013458251953125;-0.050079345703125;-1.00604248046875;-0.06304687261581421;0.016957411542534828;0.005958290304988623
-0.01580810546875;-0.050750732421875;-0.998748779296875;-0.06127480790019035;0.03819345682859421;0.005841377656906843
-0.01580810546875;-0.050750732421875;-0.998748779296875;-0.06127480790019035;0.03819345682859421;0.005841377656906843
-0.01580810546875;-0.050750732421875;-0.998748779296875;-0.06127480790019035;0.03819345682859421;0.005841377656906843
-0.01580810546875;-0.050750732421875;-0.998748779296875;-0.06127480790019035;0.03819345682859421;0.005841377656906843
-0.01580810546875;-0.050750732421875;-0.998748779296875;-0.06127480790019035;0.03819345682859421;0.005841377656906843
-0.0185699462890625;-0.0536651611328125;-1.0047760009765625;-0.05829579755663872;0.039695482701063156;0.004920722916722298
-0.0185699462890625;-0.0536651611328125;-1.0047760009765625;-0.05829579755663872;0.039695482701063156;0.004920722916722298
-0.0185699462890625;-0.0536651611328125;-1.0047760009765625;-0.05829579755663872;0.039695482701063156;0.004920722916722298
-0.0185699462890625;-0.0536651611328125;-1.0047760009765625;-0.05829579755663872;0.039695482701063156;0.004920722916722298
-0.0185699462890625;-0.0536651611328125;-1.0047760009765625;-0.05829579755663872;0.039695482701063156;0.004920722916722298
-0.0176239013671875;-0.0573883056640625;-1.017852783203125;-0.04812198877334595;0.020199278369545937;0.006779875606298447
-0.0176239013671875;-0.0573883056640625;-1.017852783203125;-0.04812198877334595;0.020199278369545937;0.006779875606298447
-0.0176239013671875;-0.0573883056640625;-1.017852783203125;-0.04812198877334595;0.020199278369545937;0.006779875606298447
-0.0176239013671875;-0.0573883056640625;-1.017852783203125;-0.04812198877334595;0.020199278369545937;0.006779875606298447
-0.0176239013671875;-0.0573883056640625;-1.017852783203125;-0.04812198877334595;0.020199278369545937;0.006779875606298447
-0.01519775390625;-0.05828857421875;-1.0242767333984375;-0.03901024907827377;0.00760998297482729;0.0067846691235899925
-0.01519775390625;-0.05828857421875;-1.0242767333984375;-0.03901024907827377;0.00760998297482729;0.0067846691235899925
-0.01519775390625;-0.05828857421875;-1.0242767333984375;-0.03901024907827377;0.00760998297482729;0.0067846691235899925
-0.01519775390625;-0.05828857421875;-1.0242767333984375;-0.03901024907827377;0.00760998297482729;0.0067846691235899925
-0.01519775390625;-0.05828857421875;-1.0242767333984375;-0.03901024907827377;0.00760998297482729;0.0067846691235899925
-0.013946533203125;-0.058013916015625;-1.0195770263671875;-0.04265958070755005;0.009320264682173729;0.008167648687958717
-0.013946533203125;-0.058013916015625;-1.0195770263671875;-0.04265958070755005;0.009320264682173729;0.008167648687958717
-0.013946533203125;-0.058013916015625;-1.0195770263671875;-0.04265958070755005;0.009320264682173729;0.008167648687958717
-0.013946533203125;-0.058013916015625;-1.0195770263671875;-0.04265958070755005;0.009320264682173729;0.008167648687958717
-0.013946533203125;-0.058013916015625;-1.0195770263671875;-0.04951295629143715;0.0246060099452734;0.010448113083839417
-0.014434814453125;-0.0563507080078125;-1.011810302734375;-0.04951295629143715;0.0246060099452734;0.010448113083839417
-0.014434814453125;-0.0563507080078125;-1.011810302734375;-0.04951295629143715;0.0246060099452734;0.010448113083839417
-0.014434814453125;-0.0563507080078125;-1.011810302734375;-0.04951295629143715;0.0246060099452734;0.010448113083839417
-0.014434814453125;-0.0563507080078125;-1.011810302734375;-0.04951295629143715;0.0246060099452734;0.010448113083839417
-0.014434814453125;-0.0563507080078125;-1.011810302734375;-0.04951295629143715;0.0246060099452734;0.010448113083839417
-0.0146636962890625;-0.0541839599609375;-1.009033203125;-0.060681190341711044;0.02582653798162937;0.01187876332551241
-0.0146636962890625;-0.0541839599609375;-1.009033203125;-0.060681190341711044;0.02582653798162937;0.01187876332551241
-0.0146636962890625;-0.0541839599609375;-1.009033203125;-0.060681190341711044;0.02582653798162937;0.01187876332551241
-0.0146636962890625;-0.0541839599609375;-1.009033203125;-0.060681190341711044;0.02582653798162937;0.01187876332551241
-0.0146636962890625;-0.0541839599609375;-1.009033203125;-0.06921475380659103;0.021078120917081833;0.0135656101629138
-0.014190673828125;-0.0524749755859375;-1.0110626220703125;-0.06921475380659103;0.021078120917081833;0.0135656101629138
-0.014190673828125;-0.0524749755859375;-1.0110626220703125;-0.06921475380659103;0.021078120917081833;0.0135656101629138
-0.014190673828125;-0.0524749755859375;-1.0110626220703125;-0.06921475380659103;0.021078120917081833;0.0135656101629138
-0.014190673828125;-0.0524749755859375;-1.0110626220703125;-0.06921475380659103;0.021078120917081833;0.0135656101629138
-0.014190673828125;-0.0524749755859375;-1.0110626220703125;-0.0672815665602684;0.010151703841984272;0.012115252204239368
-0.0113372802734375;-0.0486602783203125;-1.0149688720703125;-0.0672815665602684;0.010151703841984272;0.012115252204239368
-0.0113372802734375;-0.0486602783203125;-1.0149688720703125;-0.0672815665602684;0.010151703841984272;0.012115252204239368
-0.0113372802734375;-0.0486602783203125;-1.0149688720703125;-0.0672815665602684;0.010151703841984272;0.012115252204239368
-0.0113372802734375;-0.0486602783203125;-1.0149688720703125;-0.0672815665602684;0.010151703841984272;0.012115252204239368
-0.0111541748046875;-0.0469512939453125;-1.0157012939453125;-0.06759768724441528;0.003573429537937045;0.013650298118591309
-0.0111541748046875;-0.0469512939453125;-1.0157012939453125;-0.06759768724441528;0.003573429537937045;0.013650298118591309
-0.0111541748046875;-0.0469512939453125;-1.0157012939453125;-0.06759768724441528;0.003573429537937045;0.013650298118591309
-0.0111541748046875;-0.0469512939453125;-1.0157012939453125;-0.06759768724441528;0.003573429537937045;0.013650298118591309
-0.0111541748046875;-0.0469512939453125;-1.0157012939453125;-0.06759768724441528;0.003573429537937045;0.013650298118591309
-0.0111541748046875;-0.0469512939453125;-1.0157012939453125;-0.06759768724441528;0.003573429537937045;0.013650298118591309
-0.0118865966796875;-0.045379638671875;-1.0152740478515625;-0.06506075710058212;0.0096273273229599;0.012036423198878765
-0.0118865966796875;-0.045379638671875;-1.0152740478515625;-0.06506075710058212;0.0096273273229599;0.012036423198878765
-0.0118865966796875;-0.045379638671875;-1.0152740478515625;-0.06506075710058212;0.0096273273229599;0.012036423198878765
-0.0118865966796875;-0.045379638671875;-1.0152740478515625;-0.06506075710058212;0.0096273273229599;0.012036423198878765
-0.0118865966796875;-0.045379638671875;-1.0152740478515625;-0.05462702736258507;0.011718175373971462;0.013716611079871655
-0.0123138427734375;-0.0434112548828125;-1.0157470703125;-0.05462702736258507;0.011718175373971462;0.013716611079871655
-0.0123138427734375;-0.0434112548828125;-1.0157470703125;-0.05462702736258507;0.011718175373971462;0.013716611079871655
-0.0123138427734375;-0.0434112548828125;-1.0157470703125;-0.05462702736258507;0.011718175373971462;0.013716611079871655
-0.0123138427734375;-0.0434112548828125;-1.0157470703125;-0.05462702736258507;0.011718175373971462;0.013716611079871655
-0.0123138427734375;-0.0434112548828125;-1.0157470703125;-0.04271044582128525;0.013055081479251385;0.01555525790899992
-0.0114593505859375;-0.0413055419921875;-1.0184478759765625;-0.04271044582128525;0.013055081479251385;0.01555525790899992
-0.0114593505859375;-0.0413055419921875;-1.0184478759765625;-0.04271044582128525;0.013055081479251385;0.01555525790899992
-0.0114593505859375;-0.0413055419921875;-1.0184478759765625;-0.04271044582128525;0.013055081479251385;0.01555525790899992
-0.0114593505859375;-0.0413055419921875;-1.0184478759765625;-0.04271044582128525;0.013055081479251385;0.01555525790899992
-0.011016845703125;-0.0410614013671875;-1.0198974609375;-0.03237684816122055;0.01194001641124487;0.008986837230622768
-0.011016845703125;-0.0410614013671875;-1.0198974609375;-0.03237684816122055;0.01194001641124487;0.008986837230622768
-0.011016845703125;-0.0410614013671875;-1.0198974609375;-0.03237684816122055;0.01194001641124487;0.008986837230622768
-0.011016845703125;-0.0410614013671875;-1.0198974609375;-0.03237684816122055;0.01194001641124487;0.008986837230622768
-0.011016845703125;-0.0410614013671875;-1.0198974609375;-0.03237684816122055;0.01194001641124487;0.008986837230622768
-0.0124969482421875;-0.0411834716796875;-1.021514892578125;-0.024636104702949524;0.002029062481597066;0.015973640605807304
-0.0124969482421875;-0.0411834716796875;-1.021514892578125;-0.024636104702949524;0.002029062481597066;0.015973640605807304
-0.0124969482421875;-0.0411834716796875;-1.021514892578125;-0.024636104702949524;0.002029062481597066;0.015973640605807304
-0.0124969482421875;-0.0411834716796875;-1.021514892578125;-0.024636104702949524;0.002029062481597066;0.015973640605807304
-0.0124969482421875;-0.0411834716796875;-1.021514892578125;-0.024636104702949524;0.002029062481597066;0.015973640605807304
-0.0129241943359375;-0.04327392578125;-1.0196990966796875;-0.025610821321606636;-0.003977697342634201;0.011031345464289188
-0.0129241943359375;-0.04327392578125;-1.0196990966796875;-0.025610821321606636;-0.003977697342634201;0.011031345464289188
-0.0129241943359375;-0.04327392578125;-1.0196990966796875;-0.025610821321606636;-0.003977697342634201;0.011031345464289188
-0.0129241943359375;-0.04327392578125;-1.0196990966796875;-0.025610821321606636;-0.003977697342634201;0.011031345464289188
-0.0129241943359375;-0.04327392578125;-1.0196990966796875;-0.025610821321606636;-0.003977697342634201;0.011031345464289188
-0.0123291015625;-0.0444793701171875;-1.0162811279296875;-0.02725851908326149;0.0004492752777878195;0.01350595522671938
-0.0123291015625;-0.0444793701171875;-1.0162811279296875;-0.02725851908326149;0.0004492752777878195;0.01350595522671938
-0.0123291015625;-0.0444793701171875;-1.0162811279296875;-0.02725851908326149;0.0004492752777878195;0.01350595522671938
-0.0123291015625;-0.0444793701171875;-1.0162811279296875;-0.02725851908326149;0.0004492752777878195;0.01350595522671938
-0.0123291015625;-0.0444793701171875;-1.0162811279296875;-0.02725851908326149;0.0004492752777878195;0.01350595522671938
-0.012908935546875;-0.045440673828125;-1.013580322265625;-0.03339337557554245;0.0012777847005054355;0.01101456768810749
-0.012908935546875;-0.045440673828125;-1.013580322265625;-0.03339337557554245;0.0012777847005054355;0.01101456768810749
-0.012908935546875;-0.045440673828125;-1.013580322265625;-0.03339337557554245;0.0012777847005054355;0.01101456768810749
-0.012908935546875;-0.045440673828125;-1.013580322265625;-0.03339337557554245;0.0012777847005054355;0.01101456768810749
-0.012908935546875;-0.045440673828125;-1.013580322265625;-0.03339337557554245;0.0012777847005054355;0.01101456768810749
-0.013092041015625;-0.044921875;-1.0140228271484375;-0.03388899192214012;0.003623230615630746;0.009846239350736141
-0.013092041015625;-0.044921875;-1.0140228271484375;-0.03388899192214012;0.003623230615630746;0.009846239350736141
-0.013092041015625;-0.044921875;-1.0140228271484375;-0.03388899192214012;0.003623230615630746;0.009846239350736141
-0.013092041015625;-0.044921875;-1.0140228271484375;-0.03388899192214012;0.003623230615630746;0.009846239350736141
-0.013092041015625;-0.044921875;-1.0140228271484375;-0.03388899192214012;0.003623230615630746;0.009846239350736141
-0.012786865234375;-0.0461883544921875;-1.0152587890625;-0.03099040687084198;0.0019345202017575502;0.011670238338410854
-0.012786865234375;-0.0461883544921875;-1.0152587890625;-0.03099040687084198;0.0019345202017575502;0.011670238338410854
-0.012786865234375;-0.0461883544921875;-1.0152587890625;-0.03099040687084198;0.0019345202017575502;0.011670238338410854
-0.012786865234375;-0.0461883544921875;-1.0152587890625;-0.03099040687084198;0.0019345202017575502;0.011670238338410854
-0.012786865234375;-0.0461883544921875;-1.0152587890625;-0.03099040687084198;0.0019345202017575502;0.011670238338410854
-0.0133056640625;-0.045745849609375;-1.014190673828125;-0.026262495666742325;-0.0013456953456625342;0.011236143298447132
-0.0133056640625;-0.045745849609375;-1.014190673828125;-0.026262495666742325;-0.0013456953456625342;0.011236143298447132
-0.0133056640625;-0.045745849609375;-1.014190673828125;-0.026262495666742325;-0.0013456953456625342;0.011236143298447132
-0.0133056640625;-0.045745849609375;-1.014190673828125;-0.026262495666742325;-0.0013456953456625342;0.011236143298447132
-0.0133056640625;-0.045745849609375;-1.014190673828125;-0.026262495666742325;-0.0013456953456625342;0.011236143298447132
-0.0138092041015625;-0.0481109619140625;-1.015167236328125;-0.023028353229165077;-0.006478671915829182;0.011840147897601128
-0.0138092041015625;-0.0481109619140625;-1.015167236328125;-0.023028353229165077;-0.006478671915829182;0.011840147897601128
-0.0138092041015625;-0.0481109619140625;-1.015167236328125;-0.023028353229165077;-0.006478671915829182;0.011840147897601128
-0.0138092041015625;-0.0481109619140625;-1.015167236328125;-0.023028353229165077;-0.006478671915829182;0.011840147897601128
-0.0138092041015625;-0.0481109619140625;-1.015167236328125;-0.023028353229165077;-0.006478671915829182;0.011840147897601128
-0.0143585205078125;-0.0484619140625;-1.01361083984375;-0.02251170016825199;-0.00845873262733221;0.01002227421849966
-0.0143585205078125;-0.0484619140625;-1.01361083984375;-0.02251170016825199;-0.00845873262733221;0.01002227421849966
-0.0143585205078125;-0.0484619140625;-1.01361083984375;-0.02251170016825199;-0.00845873262733221;0.01002227421849966
-0.0143585205078125;-0.0484619140625;-1.01361083984375;-0.02251170016825199;-0.00845873262733221;0.01002227421849966
-0.0143585205078125;-0.0484619140625;-1.01361083984375;-0.02251170016825199;-0.00845873262733221;0.01002227421849966
-0.014862060546875;-0.0473785400390625;-1.0130157470703125;-0.023087741807103157;-0.002909237053245306;0.009410546161234379
-0.014862060546875;-0.0473785400390625;-1.0130157470703125;-0.023087741807103157;-0.002909237053245306;0.009410546161234379
-0.014862060546875;-0.0473785400390625;-1.0130157470703125;-0.023087741807103157;-0.002909237053245306;0.009410546161234379
-0.014862060546875;-0.0473785400390625;-1.0130157470703125;-0.023087741807103157;-0.002909237053245306;0.009410546161234379
-0.014862060546875;-0.0473785400390625;-1.0130157470703125;-0.023087741807103157;-0.002909237053245306;0.009410546161234379
-0.01483154296875;-0.0477142333984375;-1.0123291015625;-0.025741050019860268;-0.0011110707418993115;0.00998951680958271
-0.01483154296875;-0.0477142333984375;-1.0123291015625;-0.025741050019860268;-0.0011110707418993115;0.00998951680958271
-0.01483154296875;-0.0477142333984375;-1.0123291015625;-0.025741050019860268;-0.0011110707418993115;0.00998951680958271
-0.01483154296875;-0.0477142333984375;-1.0123291015625;-0.025741050019860268;-0.0011110707418993115;0.00998951680958271
-0.01483154296875;-0.0477142333984375;-1.0123291015625;-0.025741050019860268;-0.0011110707418993115;0.00998951680958271
-0.0141754150390625;-0.0463714599609375;-1.0114898681640625;-0.031319040805101395;0.0022357236593961716;0.009325590915977955
-0.0141754150390625;-0.0463714599609375;-1.0114898681640625;-0.031319040805101395;0.0022357236593961716;0.009325590915977955
-0.0141754150390625;-0.0463714599609375;-1.0114898681640625;-0.031319040805101395;0.0022357236593961716;0.009325590915977955
-0.0141754150390625;-0.0463714599609375;-1.0114898681640625;-0.031319040805101395;0.0022357236593961716;0.009325590915977955
-0.0141754150390625;-0.0463714599609375;-1.0114898681640625;-0.031319040805101395;0.0022357236593961716;0.009325590915977955
-0.0141754150390625;-0.0458221435546875;-1.0101470947265625;-0.03597371280193329;0.007466704584658146;0.007351922336965799
-0.0141754150390625;-0.0458221435546875;-1.0101470947265625;-0.03597371280193329;0.007466704584658146;0.007351922336965799
-0.0141754150390625;-0.0458221435546875;-1.0101470947265625;-0.03597371280193329;0.007466704584658146;0.007351922336965799
-0.0141754150390625;-0.0458221435546875;-1.0101470947265625;-0.03597371280193329;0.007466704584658146;0.007351922336965799
-0.0141754150390625;-0.0458221435546875;-1.0101470947265625;-0.03597371280193329;0.007466704584658146;0.007351922336965799
-0.0141448974609375;-0.0451812744140625;-1.011962890625;-0.032162729650735855;0.011916047893464565;0.008438492193818092
-0.0141448974609375;-0.0451812744140625;-1.011962890625;-0.032162729650735855;0.011916047893464565;0.008438492193818092
-0.0141448974609375;-0.0451812744140625;-1.011962890625;-0.032162729650735855;0.011916047893464565;0.008438492193818092
-0.0141448974609375;-0.0451812744140625;-1.011962890625;-0.032162729650735855;0.011916047893464565;0.008438492193818092
-0.0141448974609375;-0.0451812744140625;-1.011962890625;-0.032162729650735855;0.011916047893464565;0.008438492193818092
-0.014251708984375;-0.04278564453125;-1.0162506103515625;-0.02563532255589962;0.00316063966602087;0.011753062717616558
-0.014251708984375;-0.04278564453125;-1.0162506103515625;-0.02563532255589962;0.00316063966602087;0.011753062717616558
-0.014251708984375;-0.04278564453125;-1.0162506103515625;-0.02563532255589962;0.00316063966602087;0.011753062717616558
-0.014251708984375;-0.04278564453125;-1.0162506103515625;-0.02563532255589962;0.00316063966602087;0.011753062717616558
-0.014251708984375;-0.04278564453125;-1.0162506103515625;-0.02563532255589962;0.00316063966602087;0.011753062717616558
-0.0137176513671875;-0.0428466796875;-1.02105712890625;-0.018278872594237328;-0.0021174794528633356;0.010937069542706013
-0.0137176513671875;-0.0428466796875;-1.02105712890625;-0.018278872594237328;-0.0021174794528633356;0.010937069542706013
-0.0137176513671875;-0.0428466796875;-1.02105712890625;-0.018278872594237328;-0.0021174794528633356;0.010937069542706013
-0.0137176513671875;-0.0428466796875;-1.02105712890625;-0.018278872594237328;-0.0021174794528633356;0.010937069542706013
-0.0137176513671875;-0.0428466796875;-1.02105712890625;-0.018278872594237328;-0.0021174794528633356;0.010937069542706013
-0.011138916015625;-0.0423126220703125;-1.0192413330078125;-0.012592757120728493;-1.944107498275116e-05;0.013516074977815151
-0.011138916015625;-0.0423126220703125;-1.0192413330078125;-0.012592757120728493;-1.944107498275116e-05;0.013516074977815151
-0.011138916015625;-0.0423126220703125;-1.0192413330078125;-0.012592757120728493;-1.944107498275116e-05;0.013516074977815151
-0.011138916015625;-0.0423126220703125;-1.0192413330078125;-0.012592757120728493;-1.944107498275116e-05;0.013516074977815151
-0.0125885009765625;-0.0405120849609375;-1.0120849609375;-0.014425012283027172;-0.0018732674652710557;0.01492355577647686
-0.0125885009765625;-0.0405120849609375;-1.0120849609375;-0.014425012283027172;-0.0018732674652710557;0.01492355577647686
-0.0125885009765625;-0.0405120849609375;-1.0120849609375;-0.014425012283027172;-0.0018732674652710557;0.01492355577647686
-0.0125885009765625;-0.0405120849609375;-1.0120849609375;-0.014425012283027172;-0.0018732674652710557;0.01492355577647686
-0.0125885009765625;-0.0405120849609375;-1.0120849609375;-0.014425012283027172;-0.0018732674652710557;0.01492355577647686
-0.01409912109375;-0.0417938232421875;-1.010650634765625;-0.015721438452601433;-0.0016871124971657991;0.014193583279848099
-0.01409912109375;-0.0417938232421875;-1.010650634765625;-0.015721438452601433;-0.0016871124971657991;0.014193583279848099
-0.01409912109375;-0.0417938232421875;-1.010650634765625;-0.015721438452601433;-0.0016871124971657991;0.014193583279848099
-0.01409912109375;-0.0417938232421875;-1.010650634765625;-0.015721438452601433;-0.0016871124971657991;0.014193583279848099
-0.01409912109375;-0.0417938232421875;-1.010650634765625;-0.015721438452601433;-0.0016871124971657991;0.014193583279848099
-0.014617919921875;-0.0428314208984375;-1.0146636962890625;-0.01635926589369774;-0.0009028115891851485;0.016393620520830154
-0.014617919921875;-0.0428314208984375;-1.0146636962890625;-0.01635926589369774;-0.0009028115891851485;0.016393620520830154
-0.014617919921875;-0.0428314208984375;-1.0146636962890625;-0.01635926589369774;-0.0009028115891851485;0.016393620520830154
-0.014617919921875;-0.0428314208984375;-1.0146636962890625;-0.01635926589369774;-0.0009028115891851485;0.016393620520830154
-0.014617919921875;-0.0428314208984375;-1.0146636962890625;-0.01635926589369774;-0.0009028115891851485;0.016393620520830154
-0.0148773193359375;-0.0407257080078125;-1.017730712890625;-0.014607172459363937;-0.009006810374557972;0.013582121580839157
-0.0148773193359375;-0.0407257080078125;-1.017730712890625;-0.014607172459363937;-0.009006810374557972;0.013582121580839157
-0.0148773193359375;-0.0407257080078125;-1.017730712890625;-0.014607172459363937;-0.009006810374557972;0.013582121580839157
-0.0148773193359375;-0.0407257080078125;-1.017730712890625;-0.014607172459363937;-0.009006810374557972;0.013582121580839157
-0.0148773193359375;-0.0407257080078125;-1.017730712890625;-0.014607172459363937;-0.009006810374557972;0.013582121580839157
-0.015655517578125;-0.041351318359375;-1.01873779296875;-0.012449745088815689;-0.006078931502997875;0.015538745559751987
-0.015655517578125;-0.041351318359375;-1.01873779296875;-0.012449745088815689;-0.006078931502997875;0.015538745559751987
-0.015655517578125;-0.041351318359375;-1.01873779296875;-0.012449745088815689;-0.006078931502997875;0.015538745559751987
-0.015655517578125;-0.041351318359375;-1.01873779296875;-0.012449745088815689;-0.006078931502997875;0.015538745559751987
-0.015655517578125;-0.041351318359375;-1.01873779296875;-0.012449745088815689;-0.006078931502997875;0.015538745559751987
-0.0156097412109375;-0.04327392578125;-1.0174407958984375;-0.01082548312842846;-0.0034328147303313017;0.012684635818004608
-0.0156097412109375;-0.04327392578125;-1.0174407958984375;-0.01082548312842846;-0.0034328147303313017;0.012684635818004608
-0.0156097412109375;-0.04327392578125;-1.0174407958984375;-0.01082548312842846;-0.0034328147303313017;0.012684635818004608
-0.0156097412109375;-0.04327392578125;-1.0174407958984375;-0.01082548312842846;-0.0034328147303313017;0.012684635818004608
-0.0156097412109375;-0.04327392578125;-1.0174407958984375;-0.01082548312842846;-0.0034328147303313017;0.012684635818004608
-0.015289306640625;-0.0422515869140625;-1.0145721435546875;-0.01649109274148941;0.007706922013312578;0.015748070552945137
-0.015289306640625;-0.0422515869140625;-1.0145721435546875;-0.01649109274148941;0.007706922013312578;0.015748070552945137
-0.015289306640625;-0.0422515869140625;-1.0145721435546875;-0.01649109274148941;0.007706922013312578;0.015748070552945137
-0.015289306640625;-0.0422515869140625;-1.0145721435546875;-0.01649109274148941;0.007706922013312578;0.015748070552945137
-0.015289306640625;-0.0422515869140625;-1.0145721435546875;-0.01649109274148941;0.007706922013312578;0.015748070552945137
-0.0139007568359375;-0.04168701171875;-1.012847900390625;-0.019207250326871872;0.010630007833242416;0.014308631420135498
-0.0139007568359375;-0.04168701171875;-1.012847900390625;-0.019207250326871872;0.010630007833242416;0.014308631420135498
-0.0139007568359375;-0.04168701171875;-1.012847900390625;-0.019207250326871872;0.010630007833242416;0.014308631420135498
-0.0139007568359375;-0.04168701171875;-1.012847900390625;-0.019207250326871872;0.010630007833242416;0.014308631420135498
-0.0139007568359375;-0.04168701171875;-1.012847900390625;-0.019207250326871872;0.010630007833242416;0.014308631420135498
-0.013885498046875;-0.04052734375;-1.0135498046875;-0.020845361053943634;0.010631871409714222;0.01281752809882164
-0.013885498046875;-0.04052734375;-1.0135498046875;-0.020845361053943634;0.010631871409714222;0.01281752809882164
-0.013885498046875;-0.04052734375;-1.0135498046875;-0.020845361053943634;0.010631871409714222;0.01281752809882164
-0.013885498046875;-0.04052734375;-1.0135498046875;-0.020845361053943634;0.010631871409714222;0.01281752809882164
-0.013885498046875;-0.04052734375;-1.0135498046875;-0.020845361053943634;0.010631871409714222;0.01281752809882164
-0.0122833251953125;-0.040313720703125;-1.0160980224609375;-0.02275058627128601;0.004971855320036411;0.012402607128024101
-0.0122833251953125;-0.040313720703125;-1.0160980224609375;-0.02275058627128601;0.004971855320036411;0.012402607128024101
-0.0122833251953125;-0.040313720703125;-1.0160980224609375;-0.02275058627128601;0.004971855320036411;0.012402607128024101
-0.0122833251953125;-0.040313720703125;-1.0160980224609375;-0.02275058627128601;0.004971855320036411;0.012402607128024101
-0.0122833251953125;-0.040313720703125;-1.0160980224609375;-0.02275058627128601;0.004971855320036411;0.012402607128024101
-0.0120697021484375;-0.0378875732421875;-1.0148468017578125;-0.019699402153491974;0.005345230456441641;0.009623066522181034
-0.0120697021484375;-0.0378875732421875;-1.0148468017578125;-0.019699402153491974;0.005345230456441641;0.009623066522181034
-0.0120697021484375;-0.0378875732421875;-1.0148468017578125;-0.019699402153491974;0.005345230456441641;0.009623066522181034
-0.0120697021484375;-0.0378875732421875;-1.0148468017578125;-0.019699402153491974;0.005345230456441641;0.009623066522181034
-0.0120697021484375;-0.0378875732421875;-1.0148468017578125;-0.019699402153491974;0.005345230456441641;0.009623066522181034
-0.012420654296875;-0.0370025634765625;-1.0137939453125;-0.016351010650396347;0.0033547841012477875;0.011166101321578026
-0.012420654296875;-0.0370025634765625;-1.0137939453125;-0.016351010650396347;0.0033547841012477875;0.011166101321578026
-0.012420654296875;-0.0370025634765625;-1.0137939453125;-0.016351010650396347;0.0033547841012477875;0.011166101321578026
-0.012420654296875;-0.0370025634765625;-1.0137939453125;-0.016351010650396347;0.0033547841012477875;0.011166101321578026
-0.012420654296875;-0.0370025634765625;-1.0137939453125;-0.016351010650396347;0.0033547841012477875;0.011166101321578026
-0.0128173828125;-0.036041259765625;-1.0134429931640625;-0.004749481566250324;0.007415039464831352;0.012166118249297142
-0.0128173828125;-0.036041259765625;-1.0134429931640625;-0.004749481566250324;0.007415039464831352;0.012166118249297142
-0.0128173828125;-0.036041259765625;-1.0134429931640625;-0.004749481566250324;0.007415039464831352;0.012166118249297142
-0.0128173828125;-0.036041259765625;-1.0134429931640625;-0.004749481566250324;0.007415039464831352;0.012166118249297142
-0.0128173828125;-0.036041259765625;-1.0134429931640625;-0.004749481566250324;0.007415039464831352;0.012166118249297142
-0.0116424560546875;-0.037078857421875;-1.0107269287109375;0.0010522148804739118;0.012225773185491562;0.01739523559808731
-0.0116424560546875;-0.037078857421875;-1.0107269287109375;0.0010522148804739118;0.012225773185491562;0.01739523559808731
-0.0116424560546875;-0.037078857421875;-1.0107269287109375;0.0010522148804739118;0.012225773185491562;0.01739523559808731
-0.0116424560546875;-0.037078857421875;-1.0107269287109375;0.0010522148804739118;0.012225773185491562;0.01739523559808731
-0.0116424560546875;-0.037078857421875;-1.0107269287109375;0.0010522148804739118;0.012225773185491562;0.01739523559808731
-0.011688232421875;-0.03643798828125;-1.0117034912109375;0.00830879621207714;0.016764333471655846;0.013265738263726234
-0.011688232421875;-0.03643798828125;-1.0117034912109375;0.00830879621207714;0.016764333471655846;0.013265738263726234
-0.011688232421875;-0.03643798828125;-1.0117034912109375;0.00830879621207714;0.016764333471655846;0.013265738263726234
-0.011688232421875;-0.03643798828125;-1.0117034912109375;0.00830879621207714;0.016764333471655846;0.013265738263726234
-0.011688232421875;-0.03643798828125;-1.0117034912109375;0.00830879621207714;0.016764333471655846;0.013265738263726234
-0.0111236572265625;-0.0377197265625;-1.0146636962890625;0.014055364765226841;0.008698150515556335;0.014214888215065002
-0.0111236572265625;-0.0377197265625;-1.0146636962890625;0.014055364765226841;0.008698150515556335;0.014214888215065002
-0.0111236572265625;-0.0377197265625;-1.0146636962890625;0.014055364765226841;0.008698150515556335;0.014214888215065002
-0.0111236572265625;-0.0377197265625;-1.0146636962890625;0.014055364765226841;0.008698150515556335;0.014214888215065002
-0.0111236572265625;-0.0377197265625;-1.0146636962890625;0.014055364765226841;0.008698150515556335;0.014214888215065002
-0.009674072265625;-0.0380096435546875;-1.0136260986328125;0.017121462151408195;0.0051657333970069885;0.011665178462862968
-0.009674072265625;-0.0380096435546875;-1.0136260986328125;0.017121462151408195;0.0051657333970069885;0.011665178462862968
-0.009674072265625;-0.0380096435546875;-1.0136260986328125;0.017121462151408195;0.0051657333970069885;0.011665178462862968
-0.009674072265625;-0.0380096435546875;-1.0136260986328125;0.017121462151408195;0.0051657333970069885;0.011665178462862968
-0.009674072265625;-0.0380096435546875;-1.0136260986328125;0.017121462151408195;0.0051657333970069885;0.011665178462862968
-0.01019287109375;-0.038360595703125;-1.0147705078125;0.02160862274467945;0.003955326974391937;0.013229252770543098
-0.01019287109375;-0.038360595703125;-1.0147705078125;0.02160862274467945;0.003955326974391937;0.013229252770543098
-0.01019287109375;-0.038360595703125;-1.0147705078125;0.02160862274467945;0.003955326974391937;0.013229252770543098
-0.01019287109375;-0.038360595703125;-1.0147705078125;0.02160862274467945;0.003955326974391937;0.013229252770543098
-0.010498046875;-0.0404205322265625;-1.0139312744140625;0.025346368551254272;0.004723116289824247;0.011753062717616558
-0.010498046875;-0.0404205322265625;-1.0139312744140625;0.025346368551254272;0.004723116289824247;0.011753062717616558
-0.010498046875;-0.0404205322265625;-1.0139312744140625;0.025346368551254272;0.004723116289824247;0.011753062717616558
-0.010498046875;-0.0404205322265625;-1.0139312744140625;0.025346368551254272;0.004723116289824247;0.011753062717616558
-0.010498046875;-0.0404205322265625;-1.0139312744140625;0.025346368551254272;0.004723116289824247;0.011753062717616558
-0.010498046875;-0.0404205322265625;-1.0139312744140625;0.026624687016010284;0.004596616141498089;0.010935205966234207
-0.0107269287109375;-0.0399627685546875;-1.0132293701171875;0.026624687016010284;0.004596616141498089;0.010935205966234207
-0.0107269287109375;-0.0399627685546875;-1.0132293701171875;0.026624687016010284;0.004596616141498089;0.010935205966234207
-0.0107269287109375;-0.0399627685546875;-1.0132293701171875;0.026624687016010284;0.004596616141498089;0.010935205966234207
-0.0107269287109375;-0.0399627685546875;-1.0132293701171875;0.026624687016010284;0.004596616141498089;0.010935205966234207
-0.009124755859375;-0.0422210693359375;-1.013580322265625;0.02383076399564743;0.0070363376289606094;0.009605223312973976
-0.009124755859375;-0.0422210693359375;-1.013580322265625;0.02383076399564743;0.0070363376289606094;0.009605223312973976
-0.009124755859375;-0.0422210693359375;-1.013580322265625;0.02383076399564743;0.0070363376289606094;0.009605223312973976
-0.009124755859375;-0.0422210693359375;-1.013580322265625;0.02383076399564743;0.0070363376289606094;0.009605223312973976
-0.009124755859375;-0.0422210693359375;-1.013580322265625;0.02383076399564743;0.0070363376289606094;0.009605223312973976
-0.0098419189453125;-0.04327392578125;-1.013763427734375;0.022404640913009644;-0.00032144354190677404;0.011532019823789597
-0.0098419189453125;-0.04327392578125;-1.013763427734375;0.022404640913009644;-0.00032144354190677404;0.011532019823789597
-0.0098419189453125;-0.04327392578125;-1.013763427734375;0.022404640913009644;-0.00032144354190677404;0.011532019823789597
-0.0098419189453125;-0.04327392578125;-1.013763427734375;0.022404640913009644;-0.00032144354190677404;0.011532019823789597
-0.0098419189453125;-0.04327392578125;-1.013763427734375;0.022404640913009644;-0.00032144354190677404;0.011532019823789597
-0.0098419189453125;-0.04327392578125;-1.013763427734375;0.025367675349116325;-0.0034493261482566595;0.008257663808763027
-0.01055908203125;-0.0426788330078125;-1.0162200927734375;0.025367675349116325;-0.0034493261482566595;0.008257663808763027
-0.01055908203125;-0.0426788330078125;-1.0162200927734375;0.025367675349116325;-0.0034493261482566595;0.008257663808763027
-0.01055908203125;-0.0426788330078125;-1.0162200927734375;0.025367675349116325;-0.0034493261482566595;0.008257663808763027
-0.01055908203125;-0.0426788330078125;-1.0162200927734375;0.025367675349116325;-0.0034493261482566595;0.008257663808763027
-0.0103759765625;-0.0456695556640625;-1.01611328125;0.020662134513258934;-0.008226770907640457;0.009388175792992115
-0.0103759765625;-0.0456695556640625;-1.01611328125;0.020662134513258934;-0.008226770907640457;0.009388175792992115
-0.0103759765625;-0.0456695556640625;-1.01611328125;0.020662134513258934;-0.008226770907640457;0.009388175792992115
-0.0103759765625;-0.0456695556640625;-1.01611328125;0.020662134513258934;-0.008226770907640457;0.009388175792992115
-0.0103759765625;-0.0456695556640625;-1.01611328125;0.020662134513258934;-0.008226770907640457;0.009388175792992115
-0.01104736328125;-0.0465850830078125;-1.01214599609375;0.008956477046012878;-0.011082478798925877;0.007634483743458986
-0.01104736328125;-0.0465850830078125;-1.01214599609375;0.008956477046012878;-0.011082478798925877;0.007634483743458986
-0.01104736328125;-0.0465850830078125;-1.01214599609375;0.008956477046012878;-0.011082478798925877;0.007634483743458986
-0.01104736328125;-0.0465850830078125;-1.01214599609375;0.008956477046012878;-0.011082478798925877;0.007634483743458986
-0.01104736328125;-0.0465850830078125;-1.01214599609375;0.008956477046012878;-0.011082478798925877;0.007634483743458986
-0.0114288330078125;-0.0461273193359375;-1.00848388671875;-0.0006471481174230576;-0.005303152836859226;0.010387926362454891
-0.0114288330078125;-0.0461273193359375;-1.00848388671875;-0.0006471481174230576;-0.005303152836859226;0.010387926362454891
-0.0114288330078125;-0.0461273193359375;-1.00848388671875;-0.0006471481174230576;-0.005303152836859226;0.010387926362454891
-0.0114288330078125;-0.0461273193359375;-1.00848388671875;-0.0006471481174230576;-0.005303152836859226;0.010387926362454891
-0.0114288330078125;-0.0461273193359375;-1.00848388671875;-0.0006471481174230576;-0.005303152836859226;0.010387926362454891
-0.0115814208984375;-0.0455169677734375;-1.0059661865234375;-0.007895207032561302;0.000505734293255955;0.015200524590909481
-0.0115814208984375;-0.0455169677734375;-1.0059661865234375;-0.007895207032561302;0.000505734293255955;0.015200524590909481
-0.0115814208984375;-0.0455169677734375;-1.0059661865234375;-0.007895207032561302;0.000505734293255955;0.015200524590909481
-0.0115814208984375;-0.0455169677734375;-1.0059661865234375;-0.007895207032561302;0.000505734293255955;0.015200524590909481
-0.0115814208984375;-0.0455169677734375;-1.0059661865234375;-0.007895207032561302;0.000505734293255955;0.015200524590909481
-0.011932373046875;-0.0431060791015625;-1.0058746337890625;-0.001876995898783207;-0.004376106429845095;0.011884089559316635
-0.011932373046875;-0.0431060791015625;-1.0058746337890625;-0.001876995898783207;-0.004376106429845095;0.011884089559316635
-0.011932373046875;-0.0431060791015625;-1.0058746337890625;-0.001876995898783207;-0.004376106429845095;0.011884089559316635
-0.011932373046875;-0.0431060791015625;-1.0058746337890625;-0.001876995898783207;-0.004376106429845095;0.011884089559316635
-0.011932373046875;-0.0431060791015625;-1.0058746337890625;-0.001876995898783207;-0.004376106429845095;0.011884089559316635
-0.012786865234375;-0.0435028076171875;-1.0119171142578125;0.006898652296513319;-0.00875940266996622;0.00887977797538042
-0.012786865234375;-0.0435028076171875;-1.0119171142578125;0.006898652296513319;-0.00875940266996622;0.00887977797538042
-0.012786865234375;-0.0435028076171875;-1.0119171142578125;0.006898652296513319;-0.00875940266996622;0.00887977797538042
-0.012786865234375;-0.0435028076171875;-1.0119171142578125;0.006898652296513319;-0.00875940266996622;0.00887977797538042
-0.012786865234375;-0.0435028076171875;-1.0119171142578125;0.006898652296513319;-0.00875940266996622;0.00887977797538042
-0.01275634765625;-0.04351806640625;-1.0126953125;0.019937222823500633;-0.004457066301256418;0.002802178030833602
-0.01275634765625;-0.04351806640625;-1.0126953125;0.019937222823500633;-0.004457066301256418;0.002802178030833602
-0.01275634765625;-0.04351806640625;-1.0126953125;0.019937222823500633;-0.004457066301256418;0.002802178030833602
-0.01275634765625;-0.04351806640625;-1.0126953125;0.019937222823500633;-0.004457066301256418;0.002802178030833602
-0.01275634765625;-0.04351806640625;-1.0126953125;0.019937222823500633;-0.004457066301256418;0.002802178030833602
-0.012359619140625;-0.03875732421875;-1.009185791015625;0.026317091658711433;0.007465905509889126;0.005028580781072378
-0.012359619140625;-0.03875732421875;-1.009185791015625;0.026317091658711433;0.007465905509889126;0.005028580781072378
-0.012359619140625;-0.03875732421875;-1.009185791015625;0.026317091658711433;0.007465905509889126;0.005028580781072378
-0.012359619140625;-0.03875732421875;-1.009185791015625;0.026317091658711433;0.007465905509889126;0.005028580781072378
-0.012359619140625;-0.03875732421875;-1.009185791015625;0.026317091658711433;0.007465905509889126;0.005028580781072378
-0.01361083984375;-0.0425567626953125;-1.0109405517578125;0.03628610074520111;0.008264588192105293;0.0018194715958088636
-0.01361083984375;-0.0425567626953125;-1.0109405517578125;0.03628610074520111;0.008264588192105293;0.0018194715958088636
-0.01361083984375;-0.0425567626953125;-1.0109405517578125;0.03628610074520111;0.008264588192105293;0.0018194715958088636
-0.01361083984375;-0.0425567626953125;-1.0109405517578125;0.03628610074520111;0.008264588192105293;0.0018194715958088636
-0.01361083984375;-0.0425567626953125;-1.0109405517578125;0.03628610074520111;0.008264588192105293;0.0018194715958088636
-0.0133209228515625;-0.0449676513671875;-1.0113372802734375;0.026137860491871834;0.017468472942709923;0.0009395632077939808
-0.0133209228515625;-0.0449676513671875;-1.0113372802734375;0.026137860491871834;0.017468472942709923;0.0009395632077939808
-0.0133209228515625;-0.0449676513671875;-1.0113372802734375;0.026137860491871834;0.017468472942709923;0.0009395632077939808
-0.0133209228515625;-0.0449676513671875;-1.0113372802734375;0.026137860491871834;0.017468472942709923;0.0009395632077939808
-0.0133209228515625;-0.0449676513671875;-1.0113372802734375;0.026137860491871834;0.017468472942709923;0.0009395632077939808
-0.012054443359375;-0.036773681640625;-1.0124664306640625;0.012737100012600422;0.010067014954984188;0.0010050770360976458
-0.012054443359375;-0.036773681640625;-1.0124664306640625;0.012737100012600422;0.010067014954984188;0.0010050770360976458
-0.012054443359375;-0.036773681640625;-1.0124664306640625;0.012737100012600422;0.010067014954984188;0.0010050770360976458
-0.012054443359375;-0.036773681640625;-1.0124664306640625;0.012737100012600422;0.010067014954984188;0.0010050770360976458
-0.012054443359375;-0.036773681640625;-1.0124664306640625;0.012737100012600422;0.010067014954984188;0.0010050770360976458
-0.0111846923828125;-0.0419464111328125;-1.0195465087890625;0.004704474005848169;0.0038541266694664955;0.0006149238906800747
-0.0111846923828125;-0.0419464111328125;-1.0195465087890625;0.004704474005848169;0.0038541266694664955;0.0006149238906800747
-0.0111846923828125;-0.0419464111328125;-1.0195465087890625;0.004704474005848169;0.0038541266694664955;0.0006149238906800747
-0.0111846923828125;-0.0419464111328125;-1.0195465087890625;0.004704474005848169;0.0038541266694664955;0.0006149238906800747
-0.0111846923828125;-0.0419464111328125;-1.0195465087890625;0.004704474005848169;0.0038541266694664955;0.0006149238906800747
-0.0102996826171875;-0.0433807373046875;-1.0208282470703125;0.00038988678716123104;-0.003299922915175557;0.0021108214277774096
-0.0102996826171875;-0.0433807373046875;-1.0208282470703125;0.00038988678716123104;-0.003299922915175557;0.0021108214277774096
-0.0102996826171875;-0.0433807373046875;-1.0208282470703125;0.00038988678716123104;-0.003299922915175557;0.0021108214277774096
-0.0102996826171875;-0.0433807373046875;-1.0208282470703125;0.00038988678716123104;-0.003299922915175557;0.0021108214277774096
-0.0102996826171875;-0.0433807373046875;-1.0208282470703125;0.00038988678716123104;-0.003299922915175557;0.0021108214277774096
-0.0097808837890625;-0.04107666015625;-1.0192413330078125;0.0024458470288664103;-0.002971288748085499;0.004737497307360172
-0.0097808837890625;-0.04107666015625;-1.0192413330078125;0.0024458470288664103;-0.002971288748085499;0.004737497307360172
-0.0097808837890625;-0.04107666015625;-1.0192413330078125;0.0024458470288664103;-0.002971288748085499;0.004737497307360172
-0.0097808837890625;-0.04107666015625;-1.0192413330078125;0.0024458470288664103;-0.002971288748085499;0.004737497307360172
-0.0097808837890625;-0.04107666015625;-1.0192413330078125;0.0024458470288664103;-0.002971288748085499;0.004737497307360172
-0.0089569091796875;-0.040191650390625;-1.014129638671875;0.0009531453251838684;0.004265584982931614;0.004475708585232496
-0.0089569091796875;-0.040191650390625;-1.014129638671875;0.0009531453251838684;0.004265584982931614;0.004475708585232496
-0.0089569091796875;-0.040191650390625;-1.014129638671875;0.0009531453251838684;0.004265584982931614;0.004475708585232496
-0.0089569091796875;-0.040191650390625;-1.014129638671875;0.0009531453251838684;0.004265584982931614;0.004475708585232496
-0.0089569091796875;-0.040191650390625;-1.014129638671875;0.0009531453251838684;0.004265584982931614;0.004475708585232496
-0.009765625;-0.0415802001953125;-1.0030059814453125;-0.0063063655979931355;0.020236562937498093;0.006987868342548609
-0.009765625;-0.0415802001953125;-1.0030059814453125;-0.0063063655979931355;0.020236562937498093;0.006987868342548609
-0.009765625;-0.0415802001953125;-1.0030059814453125;-0.0063063655979931355;0.020236562937498093;0.006987868342548609
-0.009765625;-0.0415802001953125;-1.0030059814453125;-0.0063063655979931355;0.020236562937498093;0.006987868342548609
-0.009765625;-0.0415802001953125;-1.0030059814453125;-0.0063063655979931355;0.020236562937498093;0.006987868342548609
-0.0116729736328125;-0.04486083984375;-1.002349853515625;-0.014385064132511616;0.009499229490756989;0.010510165244340897
-0.0116729736328125;-0.04486083984375;-1.002349853515625;-0.014385064132511616;0.009499229490756989;0.010510165244340897
-0.0116729736328125;-0.04486083984375;-1.002349853515625;-0.014385064132511616;0.009499229490756989;0.010510165244340897
-0.0116729736328125;-0.04486083984375;-1.002349853515625;-0.014385064132511616;0.009499229490756989;0.010510165244340897
-0.0116729736328125;-0.04486083984375;-1.002349853515625;-0.014385064132511616;0.009499229490756989;0.010510165244340897
-0.0152130126953125;-0.0456390380859375;-1.01715087890625;-0.011771970428526402;-0.014610900543630123;0.011961054988205433
-0.0152130126953125;-0.0456390380859375;-1.01715087890625;-0.011771970428526402;-0.014610900543630123;0.011961054988205433
-0.0152130126953125;-0.0456390380859375;-1.01715087890625;-0.011771970428526402;-0.014610900543630123;0.011961054988205433
-0.0152130126953125;-0.0456390380859375;-1.01715087890625;-0.011771970428526402;-0.014610900543630123;0.011961054988205433
-0.0152130126953125;-0.0456390380859375;-1.01715087890625;-0.011771970428526402;-0.014610900543630123;0.011961054988205433
-0.0140380859375;-0.042144775390625;-1.02386474609375;-0.012211925350129604;-0.04184172302484512;0.014790131710469723
-0.0140380859375;-0.042144775390625;-1.02386474609375;-0.012211925350129604;-0.04184172302484512;0.014790131710469723
-0.0140380859375;-0.042144775390625;-1.02386474609375;-0.012211925350129604;-0.04184172302484512;0.014790131710469723
-0.0140380859375;-0.042144775390625;-1.02386474609375;-0.012211925350129604;-0.04184172302484512;0.014790131710469723
-0.0140380859375;-0.042144775390625;-1.02386474609375;-0.012211925350129604;-0.04184172302484512;0.014790131710469723
-0.01422119140625;-0.041229248046875;-1.0157928466796875;-0.013827398419380188;-0.047336090356111526;0.012584500946104527
-0.01422119140625;-0.041229248046875;-1.0157928466796875;-0.013827398419380188;-0.047336090356111526;0.012584500946104527
-0.01422119140625;-0.041229248046875;-1.0157928466796875;-0.013827398419380188;-0.047336090356111526;0.012584500946104527
-0.01422119140625;-0.041229248046875;-1.0157928466796875;-0.013827398419380188;-0.047336090356111526;0.012584500946104527
-0.01422119140625;-0.041229248046875;-1.0157928466796875;-0.013827398419380188;-0.047336090356111526;0.012584500946104527
-0.01629638671875;-0.0406951904296875;-1.01019287109375;-0.01495471503585577;-0.029165875166654587;0.0116148442029953
-0.01629638671875;-0.0406951904296875;-1.01019287109375;-0.01495471503585577;-0.029165875166654587;0.0116148442029953
-0.01629638671875;-0.0406951904296875;-1.01019287109375;-0.01495471503585577;-0.029165875166654587;0.0116148442029953
-0.01629638671875;-0.0406951904296875;-1.01019287109375;-0.01495471503585577;-0.029165875166654587;0.0116148442029953
-0.01629638671875;-0.0406951904296875;-1.01019287109375;-0.01495471503585577;-0.029165875166654587;0.0116148442029953
-0.014862060546875;-0.036346435546875;-1.0068206787109375;-0.01158874575048685;0.005919141694903374;0.006897320970892906
-0.014862060546875;-0.036346435546875;-1.0068206787109375;-0.01158874575048685;0.005919141694903374;0.006897320970892906
-0.014862060546875;-0.036346435546875;-1.0068206787109375;-0.01158874575048685;0.005919141694903374;0.006897320970892906
-0.014862060546875;-0.036346435546875;-1.0068206787109375;-0.01158874575048685;0.005919141694903374;0.006897320970892906
-0.014862060546875;-0.036346435546875;-1.0068206787109375;-0.01158874575048685;0.005919141694903374;0.006897320970892906
-0.0103607177734375;-0.0353240966796875;-0.9991455078125;-0.007506918627768755;0.0398976132273674;0.004208859521895647
-0.0103607177734375;-0.0353240966796875;-0.9991455078125;-0.007506918627768755;0.0398976132273674;0.004208859521895647
-0.0103607177734375;-0.0353240966796875;-0.9991455078125;-0.007506918627768755;0.0398976132273674;0.004208859521895647
-0.0103607177734375;-0.0353240966796875;-0.9991455078125;-0.007506918627768755;0.0398976132273674;0.004208859521895647
-0.0103607177734375;-0.0353240966796875;-0.9991455078125;-0.007506918627768755;0.0398976132273674;0.004208859521895647
-0.0117034912109375;-0.0391693115234375;-1.0018463134765625;-0.001457548001781106;0.04296078160405159;6.924218905624002e-05
-0.0117034912109375;-0.0391693115234375;-1.0018463134765625;-0.001457548001781106;0.04296078160405159;6.924218905624002e-05
-0.0117034912109375;-0.0391693115234375;-1.0018463134765625;-0.001457548001781106;0.04296078160405159;6.924218905624002e-05
-0.0117034912109375;-0.0391693115234375;-1.0018463134765625;-0.001457548001781106;0.04296078160405159;6.924218905624002e-05
-0.0117034912109375;-0.0391693115234375;-1.0018463134765625;-0.001457548001781106;0.04296078160405159;6.924218905624002e-05
-0.0113372802734375;-0.0443878173828125;-1.01422119140625;0.005982525181025267;0.01642824150621891;0.0010775149567052722
-0.0113372802734375;-0.0443878173828125;-1.01422119140625;0.005982525181025267;0.01642824150621891;0.0010775149567052722
-0.0113372802734375;-0.0443878173828125;-1.01422119140625;0.005982525181025267;0.01642824150621891;0.0010775149567052722
-0.0113372802734375;-0.0443878173828125;-1.01422119140625;0.005982525181025267;0.01642824150621891;0.0010775149567052722
-0.0113372802734375;-0.0443878173828125;-1.01422119140625;0.005982525181025267;0.01642824150621891;0.0010775149567052722
-0.0088958740234375;-0.0462493896484375;-1.0229644775390625;0.01299569383263588;-0.010132262483239174;-2.3169501218944788e-05
-0.0088958740234375;-0.0462493896484375;-1.0229644775390625;0.01299569383263588;-0.010132262483239174;-2.3169501218944788e-05
-0.0088958740234375;-0.0462493896484375;-1.0229644775390625;0.01299569383263588;-0.010132262483239174;-2.3169501218944788e-05
-0.0088958740234375;-0.0462493896484375;-1.0229644775390625;0.01299569383263588;-0.010132262483239174;-2.3169501218944788e-05
-0.0088958740234375;-0.0462493896484375;-1.0229644775390625;0.01299569383263588;-0.010132262483239174;-2.3169501218944788e-05
-0.0110015869140625;-0.0467681884765625;-1.0194854736328125;0.006725813262164593;-0.02165922336280346;0.0016391756944358349
-0.0110015869140625;-0.0467681884765625;-1.0194854736328125;0.006725813262164593;-0.02165922336280346;0.0016391756944358349
-0.0110015869140625;-0.0467681884765625;-1.0194854736328125;0.006725813262164593;-0.02165922336280346;0.0016391756944358349
-0.0110015869140625;-0.0467681884765625;-1.0194854736328125;0.006725813262164593;-0.02165922336280346;0.0016391756944358349
-0.0110015869140625;-0.0467681884765625;-1.0194854736328125;0.006725813262164593;-0.02165922336280346;0.0016391756944358349
-0.013275146484375;-0.0486907958984375;-1.0096282958984375;-0.005305549595504999;-0.0073074474930763245;0.006803577765822411
-0.013275146484375;-0.0486907958984375;-1.0096282958984375;-0.005305549595504999;-0.0073074474930763245;0.006803577765822411
-0.013275146484375;-0.0486907958984375;-1.0096282958984375;-0.005305549595504999;-0.0073074474930763245;0.006803577765822411
-0.013275146484375;-0.0486907958984375;-1.0096282958984375;-0.005305549595504999;-0.0073074474930763245;0.006803577765822411
-0.013275146484375;-0.0486907958984375;-1.0096282958984375;-0.005305549595504999;-0.0073074474930763245;0.006803577765822411
-0.0152740478515625;-0.0482940673828125;-1.004425048828125;-0.022591594606637955;0.008261924609541893;0.0073234266601502895
-0.0152740478515625;-0.0482940673828125;-1.004425048828125;-0.022591594606637955;0.008261924609541893;0.0073234266601502895
-0.0152740478515625;-0.0482940673828125;-1.004425048828125;-0.022591594606637955;0.008261924609541893;0.0073234266601502895
-0.0152740478515625;-0.0482940673828125;-1.004425048828125;-0.022591594606637955;0.008261924609541893;0.0073234266601502895
-0.0152740478515625;-0.0482940673828125;-1.004425048828125;-0.022591594606637955;0.008261924609541893;0.0073234266601502895
-0.0145263671875;-0.04620361328125;-1.00701904296875;-0.026766633614897728;0.01667138747870922;0.003829359309747815
-0.0145263671875;-0.04620361328125;-1.00701904296875;-0.026766633614897728;0.01667138747870922;0.003829359309747815
-0.0145263671875;-0.04620361328125;-1.00701904296875;-0.026766633614897728;0.01667138747870922;0.003829359309747815
-0.0145263671875;-0.04620361328125;-1.00701904296875;-0.026766633614897728;0.01667138747870922;0.003829359309747815
-0.0145263671875;-0.04620361328125;-1.00701904296875;-0.026766633614897728;0.01667138747870922;0.003829359309747815
-0.0117645263671875;-0.04315185546875;-1.01544189453125;-0.02316124550998211;0.008853944949805737;0.0013353090034797788
-0.0117645263671875;-0.04315185546875;-1.01544189453125;-0.02316124550998211;0.008853944949805737;0.0013353090034797788
-0.0117645263671875;-0.04315185546875;-1.01544189453125;-0.02316124550998211;0.008853944949805737;0.0013353090034797788
-0.0117645263671875;-0.04315185546875;-1.01544189453125;-0.02316124550998211;0.008853944949805737;0.0013353090034797788
-0.0117645263671875;-0.04315185546875;-1.01544189453125;-0.02316124550998211;0.008853944949805737;0.0013353090034797788
-0.00897216796875;-0.04144287109375;-1.0173187255859375;-0.016168050467967987;0.0007813714328221977;0.004286890383809805
-0.00897216796875;-0.04144287109375;-1.0173187255859375;-0.016168050467967987;0.0007813714328221977;0.004286890383809805
-0.00897216796875;-0.04144287109375;-1.0173187255859375;-0.016168050467967987;0.0007813714328221977;0.004286890383809805
-0.00897216796875;-0.04144287109375;-1.0173187255859375;-0.016168050467967987;0.0007813714328221977;0.004286890383809805
-0.00897216796875;-0.04144287109375;-1.0173187255859375;-0.016168050467967987;0.0007813714328221977;0.004286890383809805
-0.0073089599609375;-0.0410003662109375;-1.014617919921875;-0.008955677971243858;0.007631554268300533;0.0044197821989655495
-0.0073089599609375;-0.0410003662109375;-1.014617919921875;-0.008955677971243858;0.007631554268300533;0.0044197821989655495
-0.0073089599609375;-0.0410003662109375;-1.014617919921875;-0.008955677971243858;0.007631554268300533;0.0044197821989655495
-0.0073089599609375;-0.0410003662109375;-1.014617919921875;-0.008955677971243858;0.007631554268300533;0.0044197821989655495
-0.0073089599609375;-0.0410003662109375;-1.014617919921875;-0.008955677971243858;0.007631554268300533;0.0044197821989655495
-0.007659912109375;-0.040008544921875;-1.0129852294921875;-0.010044111870229244;0.018384067341685295;0.003181145992130041
-0.007659912109375;-0.040008544921875;-1.0129852294921875;-0.010044111870229244;0.018384067341685295;0.003181145992130041
-0.007659912109375;-0.040008544921875;-1.0129852294921875;-0.010044111870229244;0.018384067341685295;0.003181145992130041
-0.007659912109375;-0.040008544921875;-1.0129852294921875;-0.010044111870229244;0.018384067341685295;0.003181145992130041
-0.007659912109375;-0.040008544921875;-1.0129852294921875;-0.007624896243214607;0.022476013749837875;0.00330338510684669
-0.0071868896484375;-0.0395050048828125;-1.013427734375;-0.007624896243214607;0.022476013749837875;0.00330338510684669
-0.0071868896484375;-0.0395050048828125;-1.013427734375;-0.007624896243214607;0.022476013749837875;0.00330338510684669
-0.0071868896484375;-0.0395050048828125;-1.013427734375;-0.007624896243214607;0.022476013749837875;0.00330338510684669
-0.0071868896484375;-0.0395050048828125;-1.013427734375;-0.007624896243214607;0.022476013749837875;0.00330338510684669
-0.0071868896484375;-0.0395050048828125;-1.013427734375;-0.007624896243214607;0.022476013749837875;0.00330338510684669
-0.007354736328125;-0.0386810302734375;-1.01739501953125;-0.007850466296076775;0.014227405190467834;-0.003008306724950671
-0.007354736328125;-0.0386810302734375;-1.01739501953125;-0.007850466296076775;0.014227405190467834;-0.003008306724950671
-0.007354736328125;-0.0386810302734375;-1.01739501953125;-0.007850466296076775;0.014227405190467834;-0.003008306724950671
-0.007354736328125;-0.0386810302734375;-1.01739501953125;-0.007850466296076775;0.014227405190467834;-0.003008306724950671
-0.0076751708984375;-0.038177490234375;-1.020233154296875;-0.0005044027348048985;0.0011259844759479165;-0.0032288164366036654
-0.0076751708984375;-0.038177490234375;-1.020233154296875;-0.0005044027348048985;0.0011259844759479165;-0.0032288164366036654
-0.0076751708984375;-0.038177490234375;-1.020233154296875;-0.0005044027348048985;0.0011259844759479165;-0.0032288164366036654
-0.0076751708984375;-0.038177490234375;-1.020233154296875;-0.0005044027348048985;0.0011259844759479165;-0.0032288164366036654
-0.0076751708984375;-0.038177490234375;-1.020233154296875;-0.0005044027348048985;0.0011259844759479165;-0.0032288164366036654
-0.0076751708984375;-0.038177490234375;-1.020233154296875;0.0067846691235899925;-0.005530320107936859;1.7843178284238093e-05
-0.00775146484375;-0.0374603271484375;-1.0204620361328125;0.0067846691235899925;-0.005530320107936859;1.7843178284238093e-05
-0.00775146484375;-0.0374603271484375;-1.0204620361328125;0.0067846691235899925;-0.005530320107936859;1.7843178284238093e-05
-0.00775146484375;-0.0374603271484375;-1.0204620361328125;0.0067846691235899925;-0.005530320107936859;1.7843178284238093e-05
-0.00775146484375;-0.0374603271484375;-1.0204620361328125;0.0067846691235899925;-0.005530320107936859;1.7843178284238093e-05
-0.00775146484375;-0.0374603271484375;-1.0204620361328125;0.010978614911437035;-0.006269347388297319;-0.0033364081755280495
-0.0084381103515625;-0.03857421875;-1.01947021484375;0.010978614911437035;-0.006269347388297319;-0.0033364081755280495
-0.0084381103515625;-0.03857421875;-1.01947021484375;0.010978614911437035;-0.006269347388297319;-0.0033364081755280495
-0.0084381103515625;-0.03857421875;-1.01947021484375;0.010978614911437035;-0.006269347388297319;-0.0033364081755280495
-0.0084381103515625;-0.03857421875;-1.01947021484375;0.010978614911437035;-0.006269347388297319;-0.0033364081755280495
-0.0084381103515625;-0.03857421875;-1.01947021484375;0.01119140163064003;-0.0033808830194175243;-0.004161987919360399
-0.00946044921875;-0.0400390625;-1.0166778564453125;0.01119140163064003;-0.0033808830194175243;-0.004161987919360399
-0.00946044921875;-0.0400390625;-1.0166778564453125;0.01119140163064003;-0.0033808830194175243;-0.004161987919360399
-0.00946044921875;-0.0400390625;-1.0166778564453125;0.01119140163064003;-0.0033808830194175243;-0.004161987919360399
-0.00946044921875;-0.0400390625;-1.0166778564453125;0.01119140163064003;-0.0033808830194175243;-0.004161987919360399
-0.00946044921875;-0.0400390625;-1.0166778564453125;0.011991148814558983;0.0016812535468488932;-0.004304999951273203
-0.00970458984375;-0.0408172607421875;-1.01531982421875;0.011991148814558983;0.0016812535468488932;-0.004304999951273203
-0.00970458984375;-0.0408172607421875;-1.01531982421875;0.011991148814558983;0.0016812535468488932;-0.004304999951273203
-0.00970458984375;-0.0408172607421875;-1.01531982421875;0.011991148814558983;0.0016812535468488932;-0.004304999951273203
-0.00970458984375;-0.0408172607421875;-1.01531982421875;0.011991148814558983;0.0016812535468488932;-0.004304999951273203
-0.0094757080078125;-0.043182373046875;-1.014801025390625;0.008388158865272999;0.002822684356942773;-0.0008833705214783549
-0.0094757080078125;-0.043182373046875;-1.014801025390625;0.008388158865272999;0.002822684356942773;-0.0008833705214783549
-0.0094757080078125;-0.043182373046875;-1.014801025390625;0.008388158865272999;0.002822684356942773;-0.0008833705214783549
-0.0094757080078125;-0.043182373046875;-1.014801025390625;0.008388158865272999;0.002822684356942773;-0.0008833705214783549
-0.0094757080078125;-0.043182373046875;-1.014801025390625;0.008388158865272999;0.002822684356942773;-0.0008833705214783549
-0.0087890625;-0.0450439453125;-1.0166168212890625;0.0005765743553638458;-0.0017811221769079566;-0.0006487460341304541
-0.0087890625;-0.0450439453125;-1.0166168212890625;0.0005765743553638458;-0.0017811221769079566;-0.0006487460341304541
-0.0087890625;-0.0450439453125;-1.0166168212890625;0.0005765743553638458;-0.0017811221769079566;-0.0006487460341304541
-0.0087890625;-0.0450439453125;-1.0166168212890625;0.0005765743553638458;-0.0017811221769079566;-0.0006487460341304541
-0.0087890625;-0.0450439453125;-1.0166168212890625;0.0005765743553638458;-0.0017811221769079566;-0.0006487460341304541
-0.0095977783203125;-0.04461669921875;-1.0145111083984375;-0.006491455249488354;-0.006494384724646807;0.003637877991423011
-0.0095977783203125;-0.04461669921875;-1.0145111083984375;-0.006491455249488354;-0.006494384724646807;0.003637877991423011
-0.0095977783203125;-0.04461669921875;-1.0145111083984375;-0.006491455249488354;-0.006494384724646807;0.003637877991423011
-0.0095977783203125;-0.04461669921875;-1.0145111083984375;-0.006491455249488354;-0.006494384724646807;0.003637877991423011
-0.0095977783203125;-0.04461669921875;-1.0145111083984375;-0.006491455249488354;-0.006494384724646807;0.003637877991423011
-0.010009765625;-0.04437255859375;-1.01397705078125;-0.011694739572703838;-0.008390022441744804;0.0031822111923247576
-0.010009765625;-0.04437255859375;-1.01397705078125;-0.011694739572703838;-0.008390022441744804;0.0031822111923247576
-0.010009765625;-0.04437255859375;-1.01397705078125;-0.011694739572703838;-0.008390022441744804;0.0031822111923247576
-0.010009765625;-0.04437255859375;-1.01397705078125;-0.011694739572703838;-0.008390022441744804;0.0031822111923247576
-0.010009765625;-0.04437255859375;-1.01397705078125;-0.011694739572703838;-0.008390022441744804;0.0031822111923247576
-0.01226806640625;-0.045257568359375;-1.01361083984375;-0.0078571243211627;-0.00948138628154993;0.004994492046535015
-0.01226806640625;-0.045257568359375;-1.01361083984375;-0.0078571243211627;-0.00948138628154993;0.004994492046535015
-0.01226806640625;-0.045257568359375;-1.01361083984375;-0.0078571243211627;-0.00948138628154993;0.004994492046535015
-0.01226806640625;-0.045257568359375;-1.01361083984375;-0.0078571243211627;-0.00948138628154993;0.004994492046535015
-0.01226806640625;-0.045257568359375;-1.01361083984375;-0.0078571243211627;-0.00948138628154993;0.004994492046535015
-0.0127410888671875;-0.045440673828125;-1.014678955078125;-0.008551410399377346;-0.010073672980070114;0.0037763623986393213
-0.0127410888671875;-0.045440673828125;-1.014678955078125;-0.008551410399377346;-0.010073672980070114;0.0037763623986393213
-0.0127410888671875;-0.045440673828125;-1.014678955078125;-0.008551410399377346;-0.010073672980070114;0.0037763623986393213
-0.0127410888671875;-0.045440673828125;-1.014678955078125;-0.008551410399377346;-0.010073672980070114;0.0037763623986393213
-0.0127410888671875;-0.045440673828125;-1.014678955078125;-0.008551410399377346;-0.010073672980070114;0.0037763623986393213
-0.0124053955078125;-0.044525146484375;-1.0146484375;-0.008569786325097084;-0.008643289096653461;0.0015928366919979453
-0.0124053955078125;-0.044525146484375;-1.0146484375;-0.008569786325097084;-0.008643289096653461;0.0015928366919979453
-0.0124053955078125;-0.044525146484375;-1.0146484375;-0.008569786325097084;-0.008643289096653461;0.0015928366919979453
-0.0124053955078125;-0.044525146484375;-1.0146484375;-0.008569786325097084;-0.008643289096653461;0.0015928366919979453
-0.0124053955078125;-0.044525146484375;-1.0146484375;-0.008569786325097084;-0.008643289096653461;0.0015928366919979453
-0.0120391845703125;-0.042633056640625;-1.0122833251953125;-0.01010696217417717;-0.005566539242863655;0.0015688681742176414
-0.0120391845703125;-0.042633056640625;-1.0122833251953125;-0.01010696217417717;-0.005566539242863655;0.0015688681742176414
-0.0120391845703125;-0.042633056640625;-1.0122833251953125;-0.01010696217417717;-0.005566539242863655;0.0015688681742176414
-0.0120391845703125;-0.042633056640625;-1.0122833251953125;-0.01010696217417717;-0.005566539242863655;0.0015688681742176414
-0.0120391845703125;-0.042633056640625;-1.0122833251953125;-0.01010696217417717;-0.005566539242863655;0.0015688681742176414
-0.0117034912109375;-0.0419769287109375;-1.0098724365234375;-0.01190992258489132;0.0005773733137175441;0.003584881080314517
-0.0117034912109375;-0.0419769287109375;-1.0098724365234375;-0.01190992258489132;0.0005773733137175441;0.003584881080314517
-0.0117034912109375;-0.0419769287109375;-1.0098724365234375;-0.01190992258489132;0.0005773733137175441;0.003584881080314517
-0.0117034912109375;-0.0419769287109375;-1.0098724365234375;-0.01190992258489132;0.0005773733137175441;0.003584881080314517
-0.0117034912109375;-0.0419769287109375;-1.0098724365234375;-0.01190992258489132;0.0005773733137175441;0.003584881080314517
-0.0120697021484375;-0.0420074462890625;-1.0088653564453125;-0.013184244744479656;0.0006213154993019998;0.0033182986080646515
-0.0120697021484375;-0.0420074462890625;-1.0088653564453125;-0.013184244744479656;0.0006213154993019998;0.0033182986080646515
-0.0120697021484375;-0.0420074462890625;-1.0088653564453125;-0.013184244744479656;0.0006213154993019998;0.0033182986080646515
-0.0120697021484375;-0.0420074462890625;-1.0088653564453125;-0.013184244744479656;0.0006213154993019998;0.0033182986080646515
-0.0120697021484375;-0.0420074462890625;-1.0088653564453125;-0.013184244744479656;0.0006213154993019998;0.0033182986080646515
-0.0128631591796875;-0.041717529296875;-1.0099945068359375;-0.006042712368071079;-0.004736431874334812;0.0038519962690770626
-0.0128631591796875;-0.041717529296875;-1.0099945068359375;-0.006042712368071079;-0.004736431874334812;0.0038519962690770626
-0.0128631591796875;-0.041717529296875;-1.0099945068359375;-0.006042712368071079;-0.004736431874334812;0.0038519962690770626
-0.0128631591796875;-0.041717529296875;-1.0099945068359375;-0.006042712368071079;-0.004736431874334812;0.0038519962690770626
-0.0128631591796875;-0.041717529296875;-1.0099945068359375;-0.006042712368071079;-0.004736431874334812;0.0038519962690770626
-0.01373291015625;-0.040435791015625;-1.0164337158203125;0.0017739315517246723;-0.017469804733991623;0.0008013451588340104
-0.01373291015625;-0.040435791015625;-1.0164337158203125;0.0017739315517246723;-0.017469804733991623;0.0008013451588340104
-0.01373291015625;-0.040435791015625;-1.0164337158203125;0.0017739315517246723;-0.017469804733991623;0.0008013451588340104
-0.01373291015625;-0.040435791015625;-1.0164337158203125;0.0017739315517246723;-0.017469804733991623;0.0008013451588340104
-0.01373291015625;-0.040435791015625;-1.0164337158203125;0.0017739315517246723;-0.017469804733991623;0.0008013451588340104
-0.012603759765625;-0.0406341552734375;-1.0185089111328125;0.006332730874419212;-0.014207964763045311;0.0020841897930949926
-0.012603759765625;-0.0406341552734375;-1.0185089111328125;0.006332730874419212;-0.014207964763045311;0.0020841897930949926
-0.012603759765625;-0.0406341552734375;-1.0185089111328125;0.006332730874419212;-0.014207964763045311;0.0020841897930949926
-0.012603759765625;-0.0406341552734375;-1.0185089111328125;0.006332730874419212;-0.014207964763045311;0.0020841897930949926
-0.012603759765625;-0.0406341552734375;-1.0185089111328125;0.006332730874419212;-0.014207964763045311;0.0020841897930949926
-0.01104736328125;-0.0417022705078125;-1.0138092041015625;0.005321528296917677;-0.001781921018846333;0.0010149306617677212
-0.01104736328125;-0.0417022705078125;-1.0138092041015625;0.005321528296917677;-0.001781921018846333;0.0010149306617677212
-0.01104736328125;-0.0417022705078125;-1.0138092041015625;0.005321528296917677;-0.001781921018846333;0.0010149306617677212
-0.01104736328125;-0.0417022705078125;-1.0138092041015625;0.005321528296917677;-0.001781921018846333;0.0010149306617677212
-0.01104736328125;-0.0417022705078125;-1.0138092041015625;0.005321528296917677;-0.001781921018846333;0.0010149306617677212
-0.0120391845703125;-0.041107177734375;-1.00836181640625;-0.0015515576815232635;0.01011122390627861;0.003171824850142002
-0.0120391845703125;-0.041107177734375;-1.00836181640625;-0.0015515576815232635;0.01011122390627861;0.003171824850142002
-0.0120391845703125;-0.041107177734375;-1.00836181640625;-0.0015515576815232635;0.01011122390627861;0.003171824850142002
-0.0120391845703125;-0.041107177734375;-1.00836181640625;-0.0015515576815232635;0.01011122390627861;0.003171824850142002
-0.0120391845703125;-0.041107177734375;-1.00836181640625;-0.0015515576815232635;0.01011122390627861;0.003171824850142002
-0.012237548828125;-0.0419464111328125;-1.0083465576171875;-0.013731790706515312;0.008815329521894455;0.0012716593919321895
-0.012237548828125;-0.0419464111328125;-1.0083465576171875;-0.013731790706515312;0.008815329521894455;0.0012716593919321895
-0.012237548828125;-0.0419464111328125;-1.0083465576171875;-0.013731790706515312;0.008815329521894455;0.0012716593919321895
-0.012237548828125;-0.0419464111328125;-1.0083465576171875;-0.013731790706515312;0.008815329521894455;0.0012716593919321895
-0.012237548828125;-0.0419464111328125;-1.0083465576171875;-0.013731790706515312;0.008815329521894455;0.0012716593919321895
-0.01104736328125;-0.0424652099609375;-1.0127105712890625;-0.019597403705120087;-0.00037284253630787134;0.00170761882327497
-0.01104736328125;-0.0424652099609375;-1.0127105712890625;-0.019597403705120087;-0.00037284253630787134;0.00170761882327497
-0.01104736328125;-0.0424652099609375;-1.0127105712890625;-0.019597403705120087;-0.00037284253630787134;0.00170761882327497
-0.01104736328125;-0.0424652099609375;-1.0127105712890625;-0.019597403705120087;-0.00037284253630787134;0.00170761882327497
-0.01104736328125;-0.0424652099609375;-1.0127105712890625;-0.019597403705120087;-0.00037284253630787134;0.00170761882327497
-0.010711669921875;-0.04193115234375;-1.017486572265625;-0.0231748279184103;-0.01495151873677969;0.0024533038958907127
-0.010711669921875;-0.04193115234375;-1.017486572265625;-0.0231748279184103;-0.01495151873677969;0.0024533038958907127
-0.010711669921875;-0.04193115234375;-1.017486572265625;-0.0231748279184103;-0.01495151873677969;0.0024533038958907127
-0.010711669921875;-0.04193115234375;-1.017486572265625;-0.0231748279184103;-0.01495151873677969;0.0024533038958907127
-0.010711669921875;-0.04193115234375;-1.017486572265625;-0.0231748279184103;-0.01495151873677969;0.0024533038958907127
-0.0103912353515625;-0.0420684814453125;-1.01702880859375;-0.017799237743020058;-0.017727864906191826;0.004539357963949442
-0.0103912353515625;-0.0420684814453125;-1.01702880859375;-0.017799237743020058;-0.017727864906191826;0.004539357963949442
-0.0103912353515625;-0.0420684814453125;-1.01702880859375;-0.017799237743020058;-0.017727864906191826;0.004539357963949442
-0.0103912353515625;-0.0420684814453125;-1.01702880859375;-0.017799237743020058;-0.017727864906191826;0.004539357963949442
-0.0103912353515625;-0.0420684814453125;-1.01702880859375;-0.017799237743020058;-0.017727864906191826;0.004539357963949442
-0.011016845703125;-0.040985107421875;-1.0160064697265625;-0.010153568349778652;-0.010279535315930843;0.001814677962101996
-0.011016845703125;-0.040985107421875;-1.0160064697265625;-0.010153568349778652;-0.010279535315930843;0.001814677962101996
-0.011016845703125;-0.040985107421875;-1.0160064697265625;-0.010153568349778652;-0.010279535315930843;0.001814677962101996
-0.011016845703125;-0.040985107421875;-1.0160064697265625;-0.010153568349778652;-0.010279535315930843;0.001814677962101996
-0.011016845703125;-0.040985107421875;-1.0160064697265625;-0.010153568349778652;-0.010279535315930843;0.001814677962101996
-0.0119171142578125;-0.040252685546875;-1.0146026611328125;-0.007060572504997253;0.0011624698527157307;0.0026841999497264624
-0.0119171142578125;-0.040252685546875;-1.0146026611328125;-0.007060572504997253;0.0011624698527157307;0.0026841999497264624
-0.0119171142578125;-0.040252685546875;-1.0146026611328125;-0.007060572504997253;0.0011624698527157307;0.0026841999497264624
-0.0119171142578125;-0.040252685546875;-1.0146026611328125;-0.007060572504997253;0.0011624698527157307;0.0026841999497264624
-0.0119171142578125;-0.040252685546875;-1.0146026611328125;-0.007060572504997253;0.0011624698527157307;0.0026841999497264624
-0.0106658935546875;-0.040496826171875;-1.0131378173828125;-0.002319879597052932;0.008301871828734875;0.0011720572365447879
-0.0106658935546875;-0.040496826171875;-1.0131378173828125;-0.002319879597052932;0.008301871828734875;0.0011720572365447879
-0.0106658935546875;-0.040496826171875;-1.0131378173828125;-0.002319879597052932;0.008301871828734875;0.0011720572365447879
-0.0106658935546875;-0.040496826171875;-1.0131378173828125;-0.002319879597052932;0.008301871828734875;0.0011720572365447879
-0.0106658935546875;-0.040496826171875;-1.0131378173828125;-0.002319879597052932;0.008301871828734875;0.0011720572365447879
-0.0108184814453125;-0.04046630859375;-1.0123748779296875;-0.0023497070651501417;0.0043649207800626755;0.002162220422178507
-0.0108184814453125;-0.04046630859375;-1.0123748779296875;-0.0023497070651501417;0.0043649207800626755;0.002162220422178507
-0.0108184814453125;-0.04046630859375;-1.0123748779296875;-0.0023497070651501417;0.0043649207800626755;0.002162220422178507
-0.0108184814453125;-0.04046630859375;-1.0123748779296875;-0.0023497070651501417;0.0043649207800626755;0.002162220422178507
-0.0108184814453125;-0.04046630859375;-1.0123748779296875;-0.0023497070651501417;0.0043649207800626755;0.002162220422178507
-0.01165771484375;-0.0398712158203125;-1.0140838623046875;-0.0010221211705356836;0.0002596582053229213;0.0013648699969053268
-0.01165771484375;-0.0398712158203125;-1.0140838623046875;-0.0010221211705356836;0.0002596582053229213;0.0013648699969053268
-0.01165771484375;-0.0398712158203125;-1.0140838623046875;-0.0010221211705356836;0.0002596582053229213;0.0013648699969053268
-0.01165771484375;-0.0398712158203125;-1.0140838623046875;-0.0010221211705356836;0.0002596582053229213;0.0013648699969053268
-0.01165771484375;-0.0398712158203125;-1.0140838623046875;-0.0010221211705356836;0.0002596582053229213;0.0013648699969053268
-0.01043701171875;-0.04058837890625;-1.0156402587890625;-0.0032898029312491417;-0.0025744778104126453;0.0025358619168400764
-0.01043701171875;-0.04058837890625;-1.0156402587890625;-0.0032898029312491417;-0.0025744778104126453;0.0025358619168400764
-0.01043701171875;-0.04058837890625;-1.0156402587890625;-0.0032898029312491417;-0.0025744778104126453;0.0025358619168400764
-0.01043701171875;-0.04058837890625;-1.0156402587890625;-0.0032898029312491417;-0.0025744778104126453;0.0025358619168400764
-0.01043701171875;-0.04058837890625;-1.0156402587890625;-0.0032898029312491417;-0.0025744778104126453;0.0025358619168400764
-0.0101470947265625;-0.039459228515625;-1.0162353515625;0.0016431703697890043;-0.006275472696870565;0.001603222917765379
-0.0101470947265625;-0.039459228515625;-1.0162353515625;0.0016431703697890043;-0.006275472696870565;0.001603222917765379
-0.0101470947265625;-0.039459228515625;-1.0162353515625;0.0016431703697890043;-0.006275472696870565;0.001603222917765379
-0.0101470947265625;-0.039459228515625;-1.0162353515625;0.0016431703697890043;-0.006275472696870565;0.001603222917765379
-0.0101470947265625;-0.039459228515625;-1.0162353515625;0.0016431703697890043;-0.006275472696870565;0.001603222917765379
-0.010833740234375;-0.0408782958984375;-1.016815185546875;0.006146842148154974;-0.00020825919636990875;-0.0001994707708945498
-0.010833740234375;-0.0408782958984375;-1.016815185546875;0.006146842148154974;-0.00020825919636990875;-0.0001994707708945498
-0.010833740234375;-0.0408782958984375;-1.016815185546875;0.006146842148154974;-0.00020825919636990875;-0.0001994707708945498
-0.010833740234375;-0.0408782958984375;-1.016815185546875;0.006146842148154974;-0.00020825919636990875;-0.0001994707708945498
-0.010833740234375;-0.0408782958984375;-1.016815185546875;0.006146842148154974;-0.00020825919636990875;-0.0001994707708945498
-0.01055908203125;-0.0404052734375;-1.0174407958984375;0.008641159161925316;-0.0012034825049340725;0.002285258611664176
-0.01055908203125;-0.0404052734375;-1.0174407958984375;0.008641159161925316;-0.0012034825049340725;0.002285258611664176
-0.01055908203125;-0.0404052734375;-1.0174407958984375;0.008641159161925316;-0.0012034825049340725;0.002285258611664176
-0.01055908203125;-0.0404052734375;-1.0174407958984375;0.008641159161925316;-0.0012034825049340725;0.002285258611664176
-0.01055908203125;-0.0404052734375;-1.0174407958984375;0.008641159161925316;-0.0012034825049340725;0.002285258611664176
-0.009490966796875;-0.0412139892578125;-1.0177001953125;0.012077702209353447;-0.0014532869681715965;0.0015108112711459398
-0.009490966796875;-0.0412139892578125;-1.0177001953125;0.012077702209353447;-0.0014532869681715965;0.0015108112711459398
-0.009490966796875;-0.0412139892578125;-1.0177001953125;0.012077702209353447;-0.0014532869681715965;0.0015108112711459398
-0.009490966796875;-0.0412139892578125;-1.0177001953125;0.012077702209353447;-0.0014532869681715965;0.0015108112711459398
-0.009490966796875;-0.0412139892578125;-1.0177001953125;0.012077702209353447;-0.0014532869681715965;0.0015108112711459398
-0.008575439453125;-0.0413360595703125;-1.0188140869140625;0.010093114338815212;-0.004731904715299606;0.00045300371129997075
-0.008575439453125;-0.0413360595703125;-1.0188140869140625;0.010093114338815212;-0.004731904715299606;0.00045300371129997075
-0.008575439453125;-0.0413360595703125;-1.0188140869140625;0.010093114338815212;-0.004731904715299606;0.00045300371129997075
-0.008575439453125;-0.0413360595703125;-1.0188140869140625;0.010093114338815212;-0.004731904715299606;0.00045300371129997075
-0.008575439453125;-0.0413360595703125;-1.0188140869140625;0.010093114338815212;-0.004731904715299606;0.00045300371129997075
-0.0091094970703125;-0.0416412353515625;-1.018463134765625;0.009367669001221657;-0.004102067090570927;4.474110755836591e-05
-0.0091094970703125;-0.0416412353515625;-1.018463134765625;0.009367669001221657;-0.004102067090570927;4.474110755836591e-05
-0.0091094970703125;-0.0416412353515625;-1.018463134765625;0.009367669001221657;-0.004102067090570927;4.474110755836591e-05
-0.0091094970703125;-0.0416412353515625;-1.018463134765625;0.009367669001221657;-0.004102067090570927;4.474110755836591e-05
-0.0091094970703125;-0.0416412353515625;-1.018463134765625;0.009367669001221657;-0.004102067090570927;4.474110755836591e-05
-0.0088958740234375;-0.0416259765625;-1.0174713134765625;0.005203284323215485;-0.0030429279431700706;0.0027537085115909576
-0.0088958740234375;-0.0416259765625;-1.0174713134765625;0.005203284323215485;-0.0030429279431700706;0.0027537085115909576
-0.0088958740234375;-0.0416259765625;-1.0174713134765625;0.005203284323215485;-0.0030429279431700706;0.0027537085115909576
-0.0088958740234375;-0.0416259765625;-1.0174713134765625;0.005203284323215485;-0.0030429279431700706;0.0027537085115909576
-0.0088958740234375;-0.0416259765625;-1.0174713134765625;0.007593204732984304;-0.0014061490073800087;0.0011590076610445976
-0.0084686279296875;-0.0413818359375;-1.0173187255859375;0.007593204732984304;-0.0014061490073800087;0.0011590076610445976
-0.0084686279296875;-0.0413818359375;-1.0173187255859375;0.007593204732984304;-0.0014061490073800087;0.0011590076610445976
-0.0084686279296875;-0.0413818359375;-1.0173187255859375;0.007593204732984304;-0.0014061490073800087;0.0011590076610445976
-0.0084686279296875;-0.0413818359375;-1.0173187255859375;0.007593204732984304;-0.0014061490073800087;0.0011590076610445976
-0.0084686279296875;-0.0413818359375;-1.0173187255859375;0.007593204732984304;-0.0014061490073800087;0.0011590076610445976
-0.00860595703125;-0.04071044921875;-1.01519775390625;0.006548979319632053;-0.0019153454340994358;0.0014535533264279366
-0.00860595703125;-0.04071044921875;-1.01519775390625;0.006548979319632053;-0.0019153454340994358;0.0014535533264279366
