Acell X;Acell Y;Acell Z;Gyro X;Gyro Y;Gyro Z

-0.040313720703125;-0.1031646728515625;-1.025726318359375;-0.0907520055770874;0.14093181490898132;0.001695900922641158
-0.038421630859375;-0.110321044921875;-0.969573974609375;-0.1182084009051323;0.1373184472322464;0.0065740132704377174
-0.038421630859375;-0.110321044921875;-0.969573974609375;-0.1182084009051323;0.1373184472322464;0.0065740132704377174
-0.038421630859375;-0.110321044921875;-0.969573974609375;-0.1182084009051323;0.1373184472322464;0.0065740132704377174
-0.038421630859375;-0.110321044921875;-0.969573974609375;-0.1182084009051323;0.1373184472322464;0.0065740132704377174
-0.010711669921875;-0.0918731689453125;-0.9791107177734375;-0.1113923043012619;0.04254985600709915;0.013021259568631649
-0.010711669921875;-0.0918731689453125;-0.9791107177734375;-0.1113923043012619;0.04254985600709915;0.013021259568631649
-0.010711669921875;-0.0918731689453125;-0.9791107177734375;-0.1113923043012619;0.04254985600709915;0.013021259568631649
-0.010711669921875;-0.0918731689453125;-0.9791107177734375;-0.1113923043012619;0.04254985600709915;0.013021259568631649
-0.010711669921875;-0.0918731689453125;-0.9791107177734375;-0.1113923043012619;0.04254985600709915;0.013021259568631649
-0.0129547119140625;-0.089111328125;-1.02056884765625;-0.08559639006853104;-0.05601906031370163;0.017127588391304016
-0.0129547119140625;-0.089111328125;-1.02056884765625;-0.08559639006853104;-0.05601906031370163;0.017127588391304016
-0.0129547119140625;-0.089111328125;-1.02056884765625;-0.08559639006853104;-0.05601906031370163;0.017127588391304016
-0.0129547119140625;-0.089111328125;-1.02056884765625;-0.08559639006853104;-0.05601906031370163;0.017127588391304016
-0.0129547119140625;-0.089111328125;-1.02056884765625;-0.08559639006853104;-0.05601906031370163;0.017127588391304016
-0.0140380859375;-0.0828094482421875;-1.0342559814453125;-0.04704101011157036;-0.08037899434566498;0.01685035228729248
-0.0140380859375;-0.0828094482421875;-1.0342559814453125;-0.04704101011157036;-0.08037899434566498;0.01685035228729248
-0.0140380859375;-0.0828094482421875;-1.0342559814453125;-0.04704101011157036;-0.08037899434566498;0.01685035228729248
-0.0140380859375;-0.0828094482421875;-1.0342559814453125;-0.04704101011157036;-0.08037899434566498;0.01685035228729248
-0.0140380859375;-0.0828094482421875;-1.0342559814453125;-0.04704101011157036;-0.08037899434566498;0.01685035228729248
-0.016998291015625;-0.0781402587890625;-1.0220184326171875;-0.014455637894570827;-0.04187234863638878;0.014487063512206078
-0.016998291015625;-0.0781402587890625;-1.0220184326171875;-0.014455637894570827;-0.04187234863638878;0.014487063512206078
-0.016998291015625;-0.0781402587890625;-1.0220184326171875;-0.014455637894570827;-0.04187234863638878;0.014487063512206078
-0.016998291015625;-0.0781402587890625;-1.0220184326171875;-0.014455637894570827;-0.04187234863638878;0.014487063512206078
-0.016998291015625;-0.0781402587890625;-1.0220184326171875;-0.014455637894570827;-0.04187234863638878;0.014487063512206078
-0.0253143310546875;-0.0781402587890625;-1.0092010498046875;0.0043867588974535465;0.0047028763219714165;0.014545919373631477
-0.0253143310546875;-0.0781402587890625;-1.0092010498046875;0.0043867588974535465;0.0047028763219714165;0.014545919373631477
-0.0253143310546875;-0.0781402587890625;-1.0092010498046875;0.0043867588974535465;0.0047028763219714165;0.014545919373631477
-0.0253143310546875;-0.0781402587890625;-1.0092010498046875;0.0043867588974535465;0.0047028763219714165;0.014545919373631477
-0.0253143310546875;-0.0781402587890625;-1.0092010498046875;0.0043867588974535465;0.0047028763219714165;0.014545919373631477
-0.0252532958984375;-0.0817108154296875;-1.0064544677734375;0.015509184449911118;0.01908128336071968;0.013492639176547527
-0.0252532958984375;-0.0817108154296875;-1.0064544677734375;0.015509184449911118;0.01908128336071968;0.013492639176547527
-0.0252532958984375;-0.0817108154296875;-1.0064544677734375;0.015509184449911118;0.01908128336071968;0.013492639176547527
-0.0252532958984375;-0.0817108154296875;-1.0064544677734375;0.015509184449911118;0.01908128336071968;0.013492639176547527
-0.0252532958984375;-0.0817108154296875;-1.0064544677734375;0.015509184449911118;0.01908128336071968;0.013492639176547527
-0.0203094482421875;-0.0832672119140625;-1.0089569091796875;0.019704729318618774;0.006053098943084478;0.013525396585464478
-0.0203094482421875;-0.0832672119140625;-1.0089569091796875;0.019704729318618774;0.006053098943084478;0.013525396585464478
-0.0203094482421875;-0.0832672119140625;-1.0089569091796875;0.019704729318618774;0.006053098943084478;0.013525396585464478
-0.0203094482421875;-0.0832672119140625;-1.0089569091796875;0.019704729318618774;0.006053098943084478;0.013525396585464478
-0.0203094482421875;-0.0832672119140625;-1.0089569091796875;0.019704729318618774;0.006053098943084478;0.013525396585464478
-0.019012451171875;-0.0893402099609375;-1.012115478515625;0.01636991836130619;-0.014074539765715599;0.012812201865017414
-0.019012451171875;-0.0893402099609375;-1.012115478515625;0.01636991836130619;-0.014074539765715599;0.012812201865017414
-0.019012451171875;-0.0893402099609375;-1.012115478515625;0.01636991836130619;-0.014074539765715599;0.012812201865017414
-0.019012451171875;-0.0893402099609375;-1.012115478515625;0.01636991836130619;-0.014074539765715599;0.012812201865017414
-0.019012451171875;-0.0893402099609375;-1.012115478515625;0.01636991836130619;-0.014074539765715599;0.012812201865017414
-0.0196380615234375;-0.095001220703125;-1.0139007568359375;0.01392939779907465;-0.02316151186823845;0.012997557409107685
-0.0196380615234375;-0.095001220703125;-1.0139007568359375;0.01392939779907465;-0.02316151186823845;0.012997557409107685
-0.0196380615234375;-0.095001220703125;-1.0139007568359375;0.01392939779907465;-0.02316151186823845;0.012997557409107685
-0.0196380615234375;-0.095001220703125;-1.0139007568359375;0.01392939779907465;-0.02316151186823845;0.012997557409107685
-0.0196380615234375;-0.095001220703125;-1.0139007568359375;0.01392939779907465;-0.02316151186823845;0.012997557409107685
-0.020233154296875;-0.097686767578125;-1.01165771484375;0.0057558901607990265;-0.017832793295383453;0.01170672383159399
-0.020233154296875;-0.097686767578125;-1.01165771484375;0.0057558901607990265;-0.017832793295383453;0.01170672383159399
-0.020233154296875;-0.097686767578125;-1.01165771484375;0.0057558901607990265;-0.017832793295383453;0.01170672383159399
-0.020233154296875;-0.097686767578125;-1.01165771484375;0.0057558901607990265;-0.017832793295383453;0.01170672383159399
-0.020233154296875;-0.097686767578125;-1.01165771484375;0.0057558901607990265;-0.017832793295383453;0.01170672383159399
-0.023223876953125;-0.098358154296875;-1.0061187744140625;-0.005434180144220591;-0.004846154246479273;0.010367952287197113
-0.023223876953125;-0.098358154296875;-1.0061187744140625;-0.005434180144220591;-0.004846154246479273;0.010367952287197113
-0.023223876953125;-0.098358154296875;-1.0061187744140625;-0.005434180144220591;-0.004846154246479273;0.010367952287197113
-0.023223876953125;-0.098358154296875;-1.0061187744140625;-0.005434180144220591;-0.004846154246479273;0.010367952287197113
-0.023223876953125;-0.098358154296875;-1.0061187744140625;-0.005434180144220591;-0.004846154246479273;0.010367952287197113
-0.023834228515625;-0.098602294921875;-1.003143310546875;-0.014877483248710632;0.009006277658045292;0.012949354015290737
-0.023834228515625;-0.098602294921875;-1.003143310546875;-0.014877483248710632;0.009006277658045292;0.012949354015290737
-0.023834228515625;-0.098602294921875;-1.003143310546875;-0.014877483248710632;0.009006277658045292;0.012949354015290737
-0.023834228515625;-0.098602294921875;-1.003143310546875;-0.014877483248710632;0.009006277658045292;0.012949354015290737
-0.023834228515625;-0.098602294921875;-1.003143310546875;-0.014877483248710632;0.009006277658045292;0.012949354015290737
-0.0233154296875;-0.0997314453125;-1.0038909912109375;-0.02197054587304592;0.010104565881192684;0.008646485395729542
-0.0233154296875;-0.0997314453125;-1.0038909912109375;-0.02197054587304592;0.010104565881192684;0.008646485395729542
-0.0233154296875;-0.0997314453125;-1.0038909912109375;-0.02197054587304592;0.010104565881192684;0.008646485395729542
-0.0233154296875;-0.0997314453125;-1.0038909912109375;-0.02197054587304592;0.010104565881192684;0.008646485395729542
-0.0233154296875;-0.0997314453125;-1.0038909912109375;-0.02197054587304592;0.010104565881192684;0.008646485395729542
-0.0222930908203125;-0.09844970703125;-1.0078277587890625;-0.01979021541774273;-0.001210939371958375;0.008380169048905373
-0.0222930908203125;-0.09844970703125;-1.0078277587890625;-0.01979021541774273;-0.001210939371958375;0.008380169048905373
-0.0222930908203125;-0.09844970703125;-1.0078277587890625;-0.01979021541774273;-0.001210939371958375;0.008380169048905373
-0.0222930908203125;-0.09844970703125;-1.0078277587890625;-0.01979021541774273;-0.001210939371958375;0.008380169048905373
-0.0222930908203125;-0.09844970703125;-1.0078277587890625;-0.01979021541774273;-0.001210939371958375;0.008380169048905373
-0.02191162109375;-0.09539794921875;-1.01055908203125;-0.00905714463442564;-0.008327172137796879;0.007108243182301521
-0.02191162109375;-0.09539794921875;-1.01055908203125;-0.00905714463442564;-0.008327172137796879;0.007108243182301521
-0.02191162109375;-0.09539794921875;-1.01055908203125;-0.00905714463442564;-0.008327172137796879;0.007108243182301521
-0.02191162109375;-0.09539794921875;-1.01055908203125;-0.00905714463442564;-0.008327172137796879;0.007108243182301521
-0.02191162109375;-0.09539794921875;-1.01055908203125;-0.00905714463442564;-0.008327172137796879;0.007108243182301521
-0.021728515625;-0.0949859619140625;-1.0089111328125;-0.003513508476316929;-0.005563876125961542;0.008016115054488182
-0.021728515625;-0.0949859619140625;-1.0089111328125;-0.003513508476316929;-0.005563876125961542;0.008016115054488182
-0.021728515625;-0.0949859619140625;-1.0089111328125;-0.003513508476316929;-0.005563876125961542;0.008016115054488182
-0.021728515625;-0.0949859619140625;-1.0089111328125;-0.003513508476316929;-0.005563876125961542;0.008016115054488182
-0.021728515625;-0.0949859619140625;-1.0089111328125;-0.003513508476316929;-0.005563876125961542;0.008016115054488182
-0.0226287841796875;-0.094451904296875;-1.0063629150390625;-0.004189684987068176;0.0015414375811815262;0.0065319351851940155
-0.0226287841796875;-0.094451904296875;-1.0063629150390625;-0.004189684987068176;0.0015414375811815262;0.0065319351851940155
-0.0226287841796875;-0.094451904296875;-1.0063629150390625;-0.004189684987068176;0.0015414375811815262;0.0065319351851940155
-0.0226287841796875;-0.094451904296875;-1.0063629150390625;-0.004189684987068176;0.0015414375811815262;0.0065319351851940155
-0.0226287841796875;-0.094451904296875;-1.0063629150390625;-0.004189684987068176;0.0015414375811815262;0.0065319351851940155
-0.02423095703125;-0.0929412841796875;-1.0045623779296875;-0.004629106726497412;0.008697617799043655;0.006552441511303186
-0.02423095703125;-0.0929412841796875;-1.0045623779296875;-0.004629106726497412;0.008697617799043655;0.006552441511303186
-0.02423095703125;-0.0929412841796875;-1.0045623779296875;-0.004629106726497412;0.008697617799043655;0.006552441511303186
-0.02423095703125;-0.0929412841796875;-1.0045623779296875;-0.004629106726497412;0.008697617799043655;0.006552441511303186
-0.02423095703125;-0.0929412841796875;-1.0045623779296875;-0.004629106726497412;0.008697617799043655;0.006552441511303186
-0.02392578125;-0.0923004150390625;-1.0047607421875;-0.007476558443158865;-0.0009992180857807398;0.006326871924102306
-0.02392578125;-0.0923004150390625;-1.0047607421875;-0.007476558443158865;-0.0009992180857807398;0.006326871924102306
-0.02392578125;-0.0923004150390625;-1.0047607421875;-0.007476558443158865;-0.0009992180857807398;0.006326871924102306
-0.02392578125;-0.0923004150390625;-1.0047607421875;-0.007476558443158865;-0.0009992180857807398;0.006326871924102306
-0.02392578125;-0.0923004150390625;-1.0047607421875;-0.007476558443158865;-0.0009992180857807398;0.006326871924102306
-0.025299072265625;-0.092529296875;-1.01019287109375;-0.01197170838713646;-0.007799866143614054;0.0031337416730821133
-0.025299072265625;-0.092529296875;-1.01019287109375;-0.01197170838713646;-0.007799866143614054;0.0031337416730821133
-0.025299072265625;-0.092529296875;-1.01019287109375;-0.01197170838713646;-0.007799866143614054;0.0031337416730821133
-0.025299072265625;-0.092529296875;-1.01019287109375;-0.01197170838713646;-0.007799866143614054;0.0031337416730821133
-0.025299072265625;-0.092529296875;-1.01019287109375;-0.01197170838713646;-0.007799866143614054;0.0031337416730821133
-0.025238037109375;-0.0939788818359375;-1.0109405517578125;-0.019658124074339867;-0.010174606926739216;0.0037292244378477335
-0.025238037109375;-0.0939788818359375;-1.0109405517578125;-0.019658124074339867;-0.010174606926739216;0.0037292244378477335
-0.025238037109375;-0.0939788818359375;-1.0109405517578125;-0.019658124074339867;-0.010174606926739216;0.0037292244378477335
-0.025238037109375;-0.0939788818359375;-1.0109405517578125;-0.019658124074339867;-0.010174606926739216;0.0037292244378477335
-0.025238037109375;-0.0939788818359375;-1.0109405517578125;-0.019658124074339867;-0.010174606926739216;0.0037292244378477335
-0.0245208740234375;-0.0950469970703125;-1.0067596435546875;-0.03711594268679619;-0.008991897106170654;0.0031068436801433563
-0.0245208740234375;-0.0950469970703125;-1.0067596435546875;-0.03711594268679619;-0.008991897106170654;0.0031068436801433563
-0.0245208740234375;-0.0950469970703125;-1.0067596435546875;-0.03711594268679619;-0.008991897106170654;0.0031068436801433563
-0.0245208740234375;-0.0950469970703125;-1.0067596435546875;-0.03711594268679619;-0.008991897106170654;0.0031068436801433563
-0.0245208740234375;-0.0950469970703125;-1.0067596435546875;-0.03711594268679619;-0.008991897106170654;0.0031068436801433563
-0.0251617431640625;-0.0933074951171875;-1.004364013671875;-0.049262356013059616;0.0017132115317508578;0.003861849894747138
-0.0251617431640625;-0.0933074951171875;-1.004364013671875;-0.049262356013059616;0.0017132115317508578;0.003861849894747138
-0.0251617431640625;-0.0933074951171875;-1.004364013671875;-0.049262356013059616;0.0017132115317508578;0.003861849894747138
-0.0251617431640625;-0.0933074951171875;-1.004364013671875;-0.049262356013059616;0.0017132115317508578;0.003861849894747138
-0.0251617431640625;-0.0933074951171875;-1.004364013671875;-0.049262356013059616;0.0017132115317508578;0.003861849894747138
-0.0241241455078125;-0.0908660888671875;-1.0044708251953125;-0.054425690323114395;0.001686579897068441;0.004019775427877903
-0.0241241455078125;-0.0908660888671875;-1.0044708251953125;-0.054425690323114395;0.001686579897068441;0.004019775427877903
-0.0241241455078125;-0.0908660888671875;-1.0044708251953125;-0.054425690323114395;0.001686579897068441;0.004019775427877903
-0.0241241455078125;-0.0908660888671875;-1.0044708251953125;-0.054425690323114395;0.001686579897068441;0.004019775427877903
-0.0233612060546875;-0.0891265869140625;-1.0125885009765625;-0.054425690323114395;0.001686579897068441;0.004019775427877903
-0.0233612060546875;-0.0891265869140625;-1.0125885009765625;-0.05037129297852516;-0.002034388715401292;0.00407623453065753
-0.0233612060546875;-0.0891265869140625;-1.0125885009765625;-0.05037129297852516;-0.002034388715401292;0.00407623453065753
-0.0233612060546875;-0.0891265869140625;-1.0125885009765625;-0.05037129297852516;-0.002034388715401292;0.00407623453065753
-0.0233612060546875;-0.0891265869140625;-1.0125885009765625;-0.05037129297852516;-0.002034388715401292;0.00407623453065753
-0.0233612060546875;-0.0891265869140625;-1.0125885009765625;-0.04092372953891754;-0.0046874298714101315;0.005705822724848986
-0.022705078125;-0.08782958984375;-1.0158538818359375;-0.04092372953891754;-0.0046874298714101315;0.005705822724848986
-0.022705078125;-0.08782958984375;-1.0158538818359375;-0.04092372953891754;-0.0046874298714101315;0.005705822724848986
-0.022705078125;-0.08782958984375;-1.0158538818359375;-0.04092372953891754;-0.0046874298714101315;0.005705822724848986
-0.022705078125;-0.08782958984375;-1.0158538818359375;-0.04092372953891754;-0.0046874298714101315;0.005705822724848986
-0.022705078125;-0.08782958984375;-1.0158538818359375;-0.02781059220433235;-0.002930542454123497;0.010901649482548237
-0.02410888671875;-0.08489990234375;-1.0137939453125;-0.02781059220433235;-0.002930542454123497;0.010901649482548237
-0.02410888671875;-0.08489990234375;-1.0137939453125;-0.02781059220433235;-0.002930542454123497;0.010901649482548237
-0.02410888671875;-0.08489990234375;-1.0137939453125;-0.02781059220433235;-0.002930542454123497;0.010901649482548237
-0.02410888671875;-0.08489990234375;-1.0137939453125;-0.02781059220433235;-0.002930542454123497;0.010901649482548237
-0.02410888671875;-0.08489990234375;-1.0137939453125;-0.02473064698278904;-0.00315984059125185;0.009327189065515995
-0.0246734619140625;-0.08624267578125;-1.0103302001953125;-0.02473064698278904;-0.00315984059125185;0.009327189065515995
-0.0246734619140625;-0.08624267578125;-1.0103302001953125;-0.02473064698278904;-0.00315984059125185;0.009327189065515995
-0.0246734619140625;-0.08624267578125;-1.0103302001953125;-0.02473064698278904;-0.00315984059125185;0.009327189065515995
-0.0246734619140625;-0.08624267578125;-1.0103302001953125;-0.02473064698278904;-0.00315984059125185;0.009327189065515995
-0.0247802734375;-0.0885009765625;-1.00909423828125;-0.024953553453087807;0.00350365461781621;0.008595884777605534
-0.0247802734375;-0.0885009765625;-1.00909423828125;-0.024953553453087807;0.00350365461781621;0.008595884777605534
-0.0247802734375;-0.0885009765625;-1.00909423828125;-0.024953553453087807;0.00350365461781621;0.008595884777605534
-0.0247802734375;-0.0885009765625;-1.00909423828125;-0.024953553453087807;0.00350365461781621;0.008595884777605534
-0.0247802734375;-0.0885009765625;-1.00909423828125;-0.024953553453087807;0.00350365461781621;0.008595884777605534
-0.0245819091796875;-0.0907440185546875;-1.009033203125;-0.0451701395213604;0.004297010600566864;0.009786318056285381
-0.0245819091796875;-0.0907440185546875;-1.009033203125;-0.0451701395213604;0.004297010600566864;0.009786318056285381
-0.0245819091796875;-0.0907440185546875;-1.009033203125;-0.0451701395213604;0.004297010600566864;0.009786318056285381
-0.0245819091796875;-0.0907440185546875;-1.009033203125;-0.0451701395213604;0.004297010600566864;0.009786318056285381
-0.0245819091796875;-0.0907440185546875;-1.009033203125;-0.0451701395213604;0.004297010600566864;0.009786318056285381
-0.02447509765625;-0.0932464599609375;-1.0071258544921875;-0.06784483045339584;0.008010788820683956;0.007399593014270067
-0.02447509765625;-0.0932464599609375;-1.0071258544921875;-0.06784483045339584;0.008010788820683956;0.007399593014270067
-0.02447509765625;-0.0932464599609375;-1.0071258544921875;-0.06784483045339584;0.008010788820683956;0.007399593014270067
-0.02447509765625;-0.0932464599609375;-1.0071258544921875;-0.06784483045339584;0.008010788820683956;0.007399593014270067
-0.02447509765625;-0.0932464599609375;-1.0071258544921875;-0.06784483045339584;0.008010788820683956;0.007399593014270067
-0.0240631103515625;-0.0929412841796875;-1.0062713623046875;-0.09148917347192764;0.0029284118209034204;0.0062762717716395855
-0.0240631103515625;-0.0929412841796875;-1.0062713623046875;-0.09148917347192764;0.0029284118209034204;0.0062762717716395855
-0.0240631103515625;-0.0929412841796875;-1.0062713623046875;-0.09148917347192764;0.0029284118209034204;0.0062762717716395855
-0.0240631103515625;-0.0929412841796875;-1.0062713623046875;-0.09148917347192764;0.0029284118209034204;0.0062762717716395855
-0.0240631103515625;-0.0929412841796875;-1.0062713623046875;-0.09148917347192764;0.0029284118209034204;0.0062762717716395855
-0.024139404296875;-0.0912933349609375;-1.0112762451171875;-0.09690950065851212;-0.003963049966841936;0.010083792731165886
-0.024139404296875;-0.0912933349609375;-1.0112762451171875;-0.09690950065851212;-0.003963049966841936;0.010083792731165886
-0.024139404296875;-0.0912933349609375;-1.0112762451171875;-0.09690950065851212;-0.003963049966841936;0.010083792731165886
-0.024139404296875;-0.0912933349609375;-1.0112762451171875;-0.09690950065851212;-0.003963049966841936;0.010083792731165886
-0.024139404296875;-0.0912933349609375;-1.0112762451171875;-0.09690950065851212;-0.003963049966841936;0.010083792731165886
-0.02288818359375;-0.0875701904296875;-1.0162200927734375;-0.08591996878385544;-0.0075750951655209064;0.009852364659309387
-0.02288818359375;-0.0875701904296875;-1.0162200927734375;-0.08591996878385544;-0.0075750951655209064;0.009852364659309387
-0.02288818359375;-0.0875701904296875;-1.0162200927734375;-0.08591996878385544;-0.0075750951655209064;0.009852364659309387
-0.02288818359375;-0.0875701904296875;-1.0162200927734375;-0.08591996878385544;-0.0075750951655209064;0.009852364659309387
-0.02288818359375;-0.0875701904296875;-1.0162200927734375;-0.08591996878385544;-0.0075750951655209064;0.009852364659309387
-0.02301025390625;-0.08404541015625;-1.0153656005859375;-0.06498166173696518;-0.006930344272404909;0.014247645623981953
-0.02301025390625;-0.08404541015625;-1.0153656005859375;-0.06498166173696518;-0.006930344272404909;0.014247645623981953
-0.02301025390625;-0.08404541015625;-1.0153656005859375;-0.06498166173696518;-0.006930344272404909;0.014247645623981953
-0.02301025390625;-0.08404541015625;-1.0153656005859375;-0.06498166173696518;-0.006930344272404909;0.014247645623981953
-0.02301025390625;-0.08404541015625;-1.0153656005859375;-0.06498166173696518;-0.006930344272404909;0.014247645623981953
-0.0249176025390625;-0.080780029296875;-1.013458251953125;-0.034867171198129654;-0.006154831498861313;0.012823653407394886
-0.0249176025390625;-0.080780029296875;-1.013458251953125;-0.034867171198129654;-0.006154831498861313;0.012823653407394886
-0.0249176025390625;-0.080780029296875;-1.013458251953125;-0.034867171198129654;-0.006154831498861313;0.012823653407394886
-0.0249176025390625;-0.080780029296875;-1.013458251953125;-0.034867171198129654;-0.006154831498861313;0.012823653407394886
-0.0249176025390625;-0.080780029296875;-1.013458251953125;-0.034867171198129654;-0.006154831498861313;0.012823653407394886
-0.02520751953125;-0.078033447265625;-1.0157623291015625;0.00133903743699193;-0.005870139691978693;0.01588788628578186
-0.02520751953125;-0.078033447265625;-1.0157623291015625;0.00133903743699193;-0.005870139691978693;0.01588788628578186
-0.02520751953125;-0.078033447265625;-1.0157623291015625;0.00133903743699193;-0.005870139691978693;0.01588788628578186
-0.02520751953125;-0.078033447265625;-1.0157623291015625;0.00133903743699193;-0.005870139691978693;0.01588788628578186
-0.02520751953125;-0.078033447265625;-1.0157623291015625;0.00133903743699193;-0.005870139691978693;0.01588788628578186
-0.0226593017578125;-0.0768280029296875;-1.0179595947265625;0.031928904354572296;-0.005989449098706245;0.015031147748231888
-0.0226593017578125;-0.0768280029296875;-1.0179595947265625;0.031928904354572296;-0.005989449098706245;0.015031147748231888
-0.0226593017578125;-0.0768280029296875;-1.0179595947265625;0.031928904354572296;-0.005989449098706245;0.015031147748231888
-0.0226593017578125;-0.0768280029296875;-1.0179595947265625;0.031928904354572296;-0.005989449098706245;0.015031147748231888
-0.0226593017578125;-0.0768280029296875;-1.0179595947265625;0.031928904354572296;-0.005989449098706245;0.015031147748231888
-0.0220184326171875;-0.077728271484375;-1.0184783935546875;0.056719738990068436;0.0013672668719664216;0.01654941588640213
-0.0220184326171875;-0.077728271484375;-1.0184783935546875;0.056719738990068436;0.0013672668719664216;0.01654941588640213
-0.0220184326171875;-0.077728271484375;-1.0184783935546875;0.056719738990068436;0.0013672668719664216;0.01654941588640213
-0.0220184326171875;-0.077728271484375;-1.0184783935546875;0.056719738990068436;0.0013672668719664216;0.01654941588640213
-0.0220184326171875;-0.077728271484375;-1.0184783935546875;0.056719738990068436;0.0013672668719664216;0.01654941588640213
-0.0210418701171875;-0.0806121826171875;-1.01763916015625;0.06885869055986404;0.0046549392864108086;0.015357917174696922
-0.0210418701171875;-0.0806121826171875;-1.01763916015625;0.06885869055986404;0.0046549392864108086;0.015357917174696922
-0.0210418701171875;-0.0806121826171875;-1.01763916015625;0.06885869055986404;0.0046549392864108086;0.015357917174696922
-0.0210418701171875;-0.0806121826171875;-1.01763916015625;0.06885869055986404;0.0046549392864108086;0.015357917174696922
-0.0210418701171875;-0.0806121826171875;-1.01763916015625;0.06885869055986404;0.0046549392864108086;0.015357917174696922
-0.021575927734375;-0.084869384765625;-1.0153350830078125;0.06414463371038437;0.006132993847131729;0.013479056768119335
-0.021575927734375;-0.084869384765625;-1.0153350830078125;0.06414463371038437;0.006132993847131729;0.013479056768119335
-0.021575927734375;-0.084869384765625;-1.0153350830078125;0.06414463371038437;0.006132993847131729;0.013479056768119335
-0.021575927734375;-0.084869384765625;-1.0153350830078125;0.06414463371038437;0.006132993847131729;0.013479056768119335
-0.021575927734375;-0.084869384765625;-1.0153350830078125;0.06414463371038437;0.006132993847131729;0.013479056768119335
-0.0207061767578125;-0.0868682861328125;-1.01190185546875;0.048889510333538055;0.0060179452411830425;0.011206049472093582
-0.0207061767578125;-0.0868682861328125;-1.01190185546875;0.048889510333538055;0.0060179452411830425;0.011206049472093582
-0.0207061767578125;-0.0868682861328125;-1.01190185546875;0.048889510333538055;0.0060179452411830425;0.011206049472093582
-0.0207061767578125;-0.0868682861328125;-1.01190185546875;0.048889510333538055;0.0060179452411830425;0.011206049472093582
-0.0207061767578125;-0.0868682861328125;-1.01190185546875;0.048889510333538055;0.0060179452411830425;0.011206049472093582
-0.021942138671875;-0.090423583984375;-1.00775146484375;0.028440961614251137;0.0057194046676158905;0.010634534992277622
-0.021942138671875;-0.090423583984375;-1.00775146484375;0.028440961614251137;0.0057194046676158905;0.010634534992277622
-0.021942138671875;-0.090423583984375;-1.00775146484375;0.028440961614251137;0.0057194046676158905;0.010634534992277622
-0.021942138671875;-0.090423583984375;-1.00775146484375;0.028440961614251137;0.0057194046676158905;0.010634534992277622
-0.021942138671875;-0.090423583984375;-1.00775146484375;0.028440961614251137;0.0057194046676158905;0.010634534992277622
-0.0214385986328125;-0.0927581787109375;-1.0047454833984375;0.010671286843717098;0.007214769721031189;0.007949003018438816
-0.0214385986328125;-0.0927581787109375;-1.0047454833984375;0.010671286843717098;0.007214769721031189;0.007949003018438816
-0.0214385986328125;-0.0927581787109375;-1.0047454833984375;0.010671286843717098;0.007214769721031189;0.007949003018438816
-0.0214385986328125;-0.0927581787109375;-1.0047454833984375;0.010671286843717098;0.007214769721031189;0.007949003018438816
-0.0214385986328125;-0.0927581787109375;-1.0047454833984375;0.010671286843717098;0.007214769721031189;0.007949003018438816
-0.01983642578125;-0.0944061279296875;-1.003082275390625;-0.0037055222783237696;0.013655890710651875;0.0015331818722188473
-0.01983642578125;-0.0944061279296875;-1.003082275390625;-0.0037055222783237696;0.013655890710651875;0.0015331818722188473
-0.01983642578125;-0.0944061279296875;-1.003082275390625;-0.0037055222783237696;0.013655890710651875;0.0015331818722188473
-0.01983642578125;-0.0944061279296875;-1.003082275390625;-0.0037055222783237696;0.013655890710651875;0.0015331818722188473
-0.01983642578125;-0.0944061279296875;-1.003082275390625;-0.0037055222783237696;0.013655890710651875;0.0015331818722188473
-0.018463134765625;-0.0966796875;-1.0012664794921875;-0.01587829925119877;0.021162543445825577;-0.00015206649550236762
-0.018463134765625;-0.0966796875;-1.0012664794921875;-0.01587829925119877;0.021162543445825577;-0.00015206649550236762
-0.018463134765625;-0.0966796875;-1.0012664794921875;-0.01587829925119877;0.021162543445825577;-0.00015206649550236762
-0.018463134765625;-0.0966796875;-1.0012664794921875;-0.01587829925119877;0.021162543445825577;-0.00015206649550236762
-0.018463134765625;-0.0966796875;-1.0012664794921875;-0.01587829925119877;0.021162543445825577;-0.00015206649550236762
-0.0177154541015625;-0.0946502685546875;-1.00225830078125;-0.026321617886424065;0.02484116703271866;-0.0007560714147984982
-0.0177154541015625;-0.0946502685546875;-1.00225830078125;-0.026321617886424065;0.02484116703271866;-0.0007560714147984982
-0.0177154541015625;-0.0946502685546875;-1.00225830078125;-0.026321617886424065;0.02484116703271866;-0.0007560714147984982
-0.0177154541015625;-0.0946502685546875;-1.00225830078125;-0.026321617886424065;0.02484116703271866;-0.0007560714147984982
-0.0177154541015625;-0.0946502685546875;-1.00225830078125;-0.026321617886424065;0.02484116703271866;-0.0007560714147984982
-0.0189208984375;-0.0937347412109375;-1.0051116943359375;-0.027278758585453033;0.018035991117358208;-0.003308444982394576
-0.0189208984375;-0.0937347412109375;-1.0051116943359375;-0.027278758585453033;0.018035991117358208;-0.003308444982394576
-0.0189208984375;-0.0937347412109375;-1.0051116943359375;-0.027278758585453033;0.018035991117358208;-0.003308444982394576
-0.0189208984375;-0.0937347412109375;-1.0051116943359375;-0.027278758585453033;0.018035991117358208;-0.003308444982394576
-0.0189208984375;-0.0937347412109375;-1.0051116943359375;-0.027278758585453033;0.018035991117358208;-0.003308444982394576
-0.0188446044921875;-0.093505859375;-1.00823974609375;-0.025043301284313202;0.004538292996585369;-0.003882356220856309
-0.0188446044921875;-0.093505859375;-1.00823974609375;-0.025043301284313202;0.004538292996585369;-0.003882356220856309
-0.0188446044921875;-0.093505859375;-1.00823974609375;-0.025043301284313202;0.004538292996585369;-0.003882356220856309
-0.0188446044921875;-0.093505859375;-1.00823974609375;-0.025043301284313202;0.004538292996585369;-0.003882356220856309
-0.0188446044921875;-0.093505859375;-1.00823974609375;-0.025043301284313202;0.004538292996585369;-0.003882356220856309
-0.01983642578125;-0.0928497314453125;-1.009765625;-0.01980086974799633;-0.0004444815858732909;0.0007595335482619703
-0.01983642578125;-0.0928497314453125;-1.009765625;-0.01980086974799633;-0.0004444815858732909;0.0007595335482619703
-0.01983642578125;-0.0928497314453125;-1.009765625;-0.01980086974799633;-0.0004444815858732909;0.0007595335482619703
-0.01983642578125;-0.0928497314453125;-1.009765625;-0.01980086974799633;-0.0004444815858732909;0.0007595335482619703
-0.01983642578125;-0.0928497314453125;-1.009765625;-0.01980086974799633;-0.0004444815858732909;0.0007595335482619703
-0.0194244384765625;-0.091400146484375;-1.0106658935546875;-0.016982711851596832;0.003994475118815899;-0.0006548712844960392
-0.0194244384765625;-0.091400146484375;-1.0106658935546875;-0.016982711851596832;0.003994475118815899;-0.0006548712844960392
-0.0194244384765625;-0.091400146484375;-1.0106658935546875;-0.016982711851596832;0.003994475118815899;-0.0006548712844960392
-0.0194244384765625;-0.091400146484375;-1.0106658935546875;-0.016982711851596832;0.003994475118815899;-0.0006548712844960392
-0.0194244384765625;-0.091400146484375;-1.0106658935546875;-0.016982711851596832;0.003994475118815899;-0.0006548712844960392
-0.0194549560546875;-0.0881805419921875;-1.01416015625;-0.004740693140774965;0.0010346380295231938;0.00129695946816355
-0.0194549560546875;-0.0881805419921875;-1.01416015625;-0.004740693140774965;0.0010346380295231938;0.00129695946816355
-0.0194549560546875;-0.0881805419921875;-1.01416015625;-0.004740693140774965;0.0010346380295231938;0.00129695946816355
-0.0194549560546875;-0.0881805419921875;-1.01416015625;-0.004740693140774965;0.0010346380295231938;0.00129695946816355
-0.0194549560546875;-0.0881805419921875;-1.01416015625;-0.004740693140774965;0.0010346380295231938;0.00129695946816355
-0.0193023681640625;-0.0843353271484375;-1.0191802978515625;0.004156661685556173;-0.007454986684024334;0.0026399914640933275
-0.0193023681640625;-0.0843353271484375;-1.0191802978515625;0.004156661685556173;-0.007454986684024334;0.0026399914640933275
-0.0193023681640625;-0.0843353271484375;-1.0191802978515625;0.004156661685556173;-0.007454986684024334;0.0026399914640933275
-0.0193023681640625;-0.0843353271484375;-1.0191802978515625;0.004156661685556173;-0.007454986684024334;0.0026399914640933275
-0.0193023681640625;-0.0843353271484375;-1.0191802978515625;0.004156661685556173;-0.007454986684024334;0.0026399914640933275
-0.01739501953125;-0.084075927734375;-1.020843505859375;0.002784334821626544;-0.007218764163553715;0.004790760576725006
-0.01739501953125;-0.084075927734375;-1.020843505859375;0.002784334821626544;-0.007218764163553715;0.004790760576725006
-0.01739501953125;-0.084075927734375;-1.020843505859375;0.002784334821626544;-0.007218764163553715;0.004790760576725006
-0.01739501953125;-0.084075927734375;-1.020843505859375;0.002784334821626544;-0.007218764163553715;0.004790760576725006
-0.01739501953125;-0.084075927734375;-1.020843505859375;0.002784334821626544;-0.007218764163553715;0.004790760576725006
-0.016754150390625;-0.084625244140625;-1.0032501220703125;-0.021461348980665207;0.007424892857670784;0.007763913366943598
-0.016754150390625;-0.084625244140625;-1.0032501220703125;-0.021461348980665207;0.007424892857670784;0.007763913366943598
-0.016754150390625;-0.084625244140625;-1.0032501220703125;-0.021461348980665207;0.007424892857670784;0.007763913366943598
-0.016754150390625;-0.084625244140625;-1.0032501220703125;-0.021461348980665207;0.007424892857670784;0.007763913366943598
-0.016754150390625;-0.084625244140625;-1.0032501220703125;-0.021461348980665207;0.007424892857670784;0.007763913366943598
-0.021148681640625;-0.084381103515625;-0.986083984375;-0.05109727382659912;0.026219353079795837;0.004918325692415237
-0.021148681640625;-0.084381103515625;-0.986083984375;-0.05109727382659912;0.026219353079795837;0.004918325692415237
-0.021148681640625;-0.084381103515625;-0.986083984375;-0.05109727382659912;0.026219353079795837;0.004918325692415237
-0.021148681640625;-0.084381103515625;-0.986083984375;-0.05109727382659912;0.026219353079795837;0.004918325692415237
-0.021148681640625;-0.084381103515625;-0.986083984375;-0.05109727382659912;0.026219353079795837;0.004918325692415237
-0.0247802734375;-0.0849609375;-0.995880126953125;-0.06307058036327362;0.014752314426004887;0.006099970545619726
-0.0247802734375;-0.0849609375;-0.995880126953125;-0.06307058036327362;0.014752314426004887;0.006099970545619726
-0.0247802734375;-0.0849609375;-0.995880126953125;-0.06307058036327362;0.014752314426004887;0.006099970545619726
-0.0247802734375;-0.0849609375;-0.995880126953125;-0.06307058036327362;0.014752314426004887;0.006099970545619726
-0.0247802734375;-0.0849609375;-0.995880126953125;-0.06307058036327362;0.014752314426004887;0.006099970545619726
-0.02471923828125;-0.079559326171875;-1.0218353271484375;-0.05356176197528839;-0.0232283566147089;0.0029995182994753122
-0.02471923828125;-0.079559326171875;-1.0218353271484375;-0.05356176197528839;-0.0232283566147089;0.0029995182994753122
-0.02471923828125;-0.079559326171875;-1.0218353271484375;-0.05356176197528839;-0.0232283566147089;0.0029995182994753122
-0.02471923828125;-0.079559326171875;-1.0218353271484375;-0.05356176197528839;-0.0232283566147089;0.0029995182994753122
-0.02471923828125;-0.079559326171875;-1.0218353271484375;-0.05356176197528839;-0.0232283566147089;0.0029995182994753122
-0.021514892578125;-0.0743865966796875;-1.024871826171875;-0.04026886075735092;-0.0359681211411953;0.002237854292616248
-0.021514892578125;-0.0743865966796875;-1.024871826171875;-0.04026886075735092;-0.0359681211411953;0.002237854292616248
-0.021514892578125;-0.0743865966796875;-1.024871826171875;-0.04026886075735092;-0.0359681211411953;0.002237854292616248
-0.021514892578125;-0.0743865966796875;-1.024871826171875;-0.04026886075735092;-0.0359681211411953;0.002237854292616248
-0.021514892578125;-0.0743865966796875;-1.024871826171875;-0.04026886075735092;-0.0359681211411953;0.002237854292616248
-0.02581787109375;-0.073760986328125;-1.0075531005859375;-0.03236353397369385;-0.041549839079380035;-0.0011209244839847088
-0.02581787109375;-0.073760986328125;-1.0075531005859375;-0.03236353397369385;-0.041549839079380035;-0.0011209244839847088
-0.02581787109375;-0.073760986328125;-1.0075531005859375;-0.03236353397369385;-0.041549839079380035;-0.0011209244839847088
-0.02581787109375;-0.073760986328125;-1.0075531005859375;-0.03236353397369385;-0.041549839079380035;-0.0011209244839847088
-0.02581787109375;-0.073760986328125;-1.0075531005859375;-0.03236353397369385;-0.041549839079380035;-0.0011209244839847088
-0.0294342041015625;-0.074462890625;-1.0071258544921875;-0.019334549084305763;-0.022825155407190323;-0.005979862064123154
-0.0294342041015625;-0.074462890625;-1.0071258544921875;-0.019334549084305763;-0.022825155407190323;-0.005979862064123154
-0.0294342041015625;-0.074462890625;-1.0071258544921875;-0.019334549084305763;-0.022825155407190323;-0.005979862064123154
-0.0294342041015625;-0.074462890625;-1.0071258544921875;-0.019334549084305763;-0.022825155407190323;-0.005979862064123154
-0.0294342041015625;-0.074462890625;-1.0071258544921875;-0.019334549084305763;-0.022825155407190323;-0.005979862064123154
-0.0238800048828125;-0.071868896484375;-1.0081329345703125;-0.004649879410862923;0.0029204224701970816;-0.007931692525744438
-0.0238800048828125;-0.071868896484375;-1.0081329345703125;-0.004649879410862923;0.0029204224701970816;-0.007931692525744438
-0.0238800048828125;-0.071868896484375;-1.0081329345703125;-0.004649879410862923;0.0029204224701970816;-0.007931692525744438
-0.0238800048828125;-0.071868896484375;-1.0081329345703125;-0.004649879410862923;0.0029204224701970816;-0.007931692525744438
-0.0238800048828125;-0.071868896484375;-1.0081329345703125;-0.004649879410862923;0.0029204224701970816;-0.007931692525744438
-0.0214080810546875;-0.0747833251953125;-1.003570556640625;0.008919725194573402;0.024341825395822525;-0.0059811933897435665
-0.0214080810546875;-0.0747833251953125;-1.003570556640625;0.008919725194573402;0.024341825395822525;-0.0059811933897435665
-0.0214080810546875;-0.0747833251953125;-1.003570556640625;0.008919725194573402;0.024341825395822525;-0.0059811933897435665
-0.0214080810546875;-0.0747833251953125;-1.003570556640625;0.008919725194573402;0.024341825395822525;-0.0059811933897435665
-0.0214080810546875;-0.0747833251953125;-1.003570556640625;0.008919725194573402;0.024341825395822525;-0.0059811933897435665
-0.0230712890625;-0.079498291015625;-1.0029144287109375;0.01569613814353943;0.021035511046648026;-0.0057465690188109875
-0.0230712890625;-0.079498291015625;-1.0029144287109375;0.01569613814353943;0.021035511046648026;-0.0057465690188109875
-0.0230712890625;-0.079498291015625;-1.0029144287109375;0.01569613814353943;0.021035511046648026;-0.0057465690188109875
-0.0230712890625;-0.079498291015625;-1.0029144287109375;0.01569613814353943;0.021035511046648026;-0.0057465690188109875
-0.0230712890625;-0.079498291015625;-1.0029144287109375;0.019591011106967926;-0.00036378781078383327;-0.0014660701854154468
-0.02215576171875;-0.084686279296875;-1.011199951171875;0.019591011106967926;-0.00036378781078383327;-0.0014660701854154468
-0.02215576171875;-0.084686279296875;-1.011199951171875;0.019591011106967926;-0.00036378781078383327;-0.0014660701854154468
-0.02215576171875;-0.084686279296875;-1.011199951171875;0.019591011106967926;-0.00036378781078383327;-0.0014660701854154468
-0.02215576171875;-0.084686279296875;-1.011199951171875;0.019591011106967926;-0.00036378781078383327;-0.0014660701854154468
-0.0196685791015625;-0.0892486572265625;-1.016448974609375;0.016924388706684113;-0.016159795224666595;0.001240766723640263
-0.0196685791015625;-0.0892486572265625;-1.016448974609375;0.016924388706684113;-0.016159795224666595;0.001240766723640263
-0.0196685791015625;-0.0892486572265625;-1.016448974609375;0.016924388706684113;-0.016159795224666595;0.001240766723640263
-0.0196685791015625;-0.0892486572265625;-1.016448974609375;0.016924388706684113;-0.016159795224666595;0.001240766723640263
-0.0196685791015625;-0.0892486572265625;-1.016448974609375;0.016924388706684113;-0.016159795224666595;0.001240766723640263
-0.0196685791015625;-0.0892486572265625;-1.016448974609375;0.005007009021937847;-0.008194279856979847;0.004482898861169815
-0.02020263671875;-0.0919342041015625;-1.013916015625;0.005007009021937847;-0.008194279856979847;0.004482898861169815
-0.02020263671875;-0.0919342041015625;-1.013916015625;0.005007009021937847;-0.008194279856979847;0.004482898861169815
-0.02020263671875;-0.0919342041015625;-1.013916015625;0.005007009021937847;-0.008194279856979847;0.004482898861169815
-0.02020263671875;-0.0919342041015625;-1.013916015625;0.005007009021937847;-0.008194279856979847;0.004482898861169815
-0.024322509765625;-0.093505859375;-1.00665283203125;-0.008479771204292774;0.00495081627741456;0.0025188177824020386
-0.024322509765625;-0.093505859375;-1.00665283203125;-0.008479771204292774;0.00495081627741456;0.0025188177824020386
-0.024322509765625;-0.093505859375;-1.00665283203125;-0.008479771204292774;0.00495081627741456;0.0025188177824020386
-0.024322509765625;-0.093505859375;-1.00665283203125;-0.008479771204292774;0.00495081627741456;0.0025188177824020386
-0.024322509765625;-0.093505859375;-1.00665283203125;-0.008479771204292774;0.00495081627741456;0.0025188177824020386
-0.027008056640625;-0.09478759765625;-1.0066375732421875;-0.02526274509727955;0.013309413567185402;0.0041822283528745174
-0.027008056640625;-0.09478759765625;-1.0066375732421875;-0.02526274509727955;0.013309413567185402;0.0041822283528745174
-0.027008056640625;-0.09478759765625;-1.0066375732421875;-0.02526274509727955;0.013309413567185402;0.0041822283528745174
-0.027008056640625;-0.09478759765625;-1.0066375732421875;-0.02526274509727955;0.013309413567185402;0.0041822283528745174
-0.027008056640625;-0.09478759765625;-1.0066375732421875;-0.02526274509727955;0.013309413567185402;0.0041822283528745174
-0.027008056640625;-0.09478759765625;-1.0066375732421875;-0.0334695428609848;0.01002360600978136;0.004448544234037399
-0.0254364013671875;-0.094696044921875;-1.010528564453125;-0.0334695428609848;0.01002360600978136;0.004448544234037399
-0.0254364013671875;-0.094696044921875;-1.010528564453125;-0.0334695428609848;0.01002360600978136;0.004448544234037399
-0.0254364013671875;-0.094696044921875;-1.010528564453125;-0.0334695428609848;0.01002360600978136;0.004448544234037399
-0.0254364013671875;-0.094696044921875;-1.010528564453125;-0.0334695428609848;0.01002360600978136;0.004448544234037399
-0.0231475830078125;-0.092132568359375;-1.0098876953125;-0.03909626975655556;0.002228533150628209;0.0021462414879351854
-0.0231475830078125;-0.092132568359375;-1.0098876953125;-0.03909626975655556;0.002228533150628209;0.0021462414879351854
-0.0231475830078125;-0.092132568359375;-1.0098876953125;-0.03909626975655556;0.002228533150628209;0.0021462414879351854
-0.0231475830078125;-0.092132568359375;-1.0098876953125;-0.03909626975655556;0.002228533150628209;0.0021462414879351854
-0.0231475830078125;-0.092132568359375;-1.0098876953125;-0.03909626975655556;0.002228533150628209;0.0021462414879351854
-0.0221099853515625;-0.090301513671875;-1.008544921875;-0.03596678748726845;0.006072273477911949;0.0048767803236842155
-0.0221099853515625;-0.090301513671875;-1.008544921875;-0.03596678748726845;0.006072273477911949;0.0048767803236842155
-0.0221099853515625;-0.090301513671875;-1.008544921875;-0.03596678748726845;0.006072273477911949;0.0048767803236842155
-0.0221099853515625;-0.090301513671875;-1.008544921875;-0.03596678748726845;0.006072273477911949;0.0048767803236842155
-0.0221099853515625;-0.090301513671875;-1.008544921875;-0.03596678748726845;0.006072273477911949;0.0048767803236842155
-0.0220184326171875;-0.088226318359375;-1.0097808837890625;-0.029227660968899727;0.008343949913978577;0.002377936616539955
-0.0220184326171875;-0.088226318359375;-1.0097808837890625;-0.029227660968899727;0.008343949913978577;0.002377936616539955
-0.0220184326171875;-0.088226318359375;-1.0097808837890625;-0.029227660968899727;0.008343949913978577;0.002377936616539955
-0.0220184326171875;-0.088226318359375;-1.0097808837890625;-0.029227660968899727;0.008343949913978577;0.002377936616539955
-0.0220184326171875;-0.088226318359375;-1.0097808837890625;-0.029227660968899727;0.008343949913978577;0.002377936616539955
-0.02294921875;-0.0851593017578125;-1.012176513671875;-0.021283185109496117;0.010625213384628296;0.003952663857489824
-0.02294921875;-0.0851593017578125;-1.012176513671875;-0.021283185109496117;0.010625213384628296;0.003952663857489824
-0.02294921875;-0.0851593017578125;-1.012176513671875;-0.021283185109496117;0.010625213384628296;0.003952663857489824
-0.02294921875;-0.0851593017578125;-1.012176513671875;-0.021283185109496117;0.010625213384628296;0.003952663857489824
-0.02294921875;-0.0851593017578125;-1.012176513671875;-0.021283185109496117;0.010625213384628296;0.003952663857489824
-0.0222625732421875;-0.0838623046875;-1.0132904052734375;-0.015062838792800903;0.009973005391657352;0.00221974472515285
-0.0222625732421875;-0.0838623046875;-1.0132904052734375;-0.015062838792800903;0.009973005391657352;0.00221974472515285
-0.0222625732421875;-0.0838623046875;-1.0132904052734375;-0.015062838792800903;0.009973005391657352;0.00221974472515285
-0.0222625732421875;-0.0838623046875;-1.0132904052734375;-0.015062838792800903;0.009973005391657352;0.00221974472515285
-0.0222625732421875;-0.0838623046875;-1.0132904052734375;-0.015062838792800903;0.009973005391657352;0.00221974472515285
-0.022613525390625;-0.080963134765625;-1.0155487060546875;-0.005306082312017679;0.0019824570044875145;-0.0006095975404605269
-0.022613525390625;-0.080963134765625;-1.0155487060546875;-0.005306082312017679;0.0019824570044875145;-0.0006095975404605269
-0.022613525390625;-0.080963134765625;-1.0155487060546875;-0.005306082312017679;0.0019824570044875145;-0.0006095975404605269
-0.022613525390625;-0.080963134765625;-1.0155487060546875;-0.005306082312017679;0.0019824570044875145;-0.0006095975404605269
-0.022613525390625;-0.080963134765625;-1.0155487060546875;-0.005306082312017679;0.0019824570044875145;-0.0006095975404605269
-0.0228424072265625;-0.078704833984375;-1.0181121826171875;0.0059931776486337185;0.001728924224153161;-0.00046365635353140533
-0.0228424072265625;-0.078704833984375;-1.0181121826171875;0.0059931776486337185;0.001728924224153161;-0.00046365635353140533
-0.0228424072265625;-0.078704833984375;-1.0181121826171875;0.0059931776486337185;0.001728924224153161;-0.00046365635353140533
-0.0228424072265625;-0.078704833984375;-1.0181121826171875;0.0059931776486337185;0.001728924224153161;-0.00046365635353140533
-0.0228424072265625;-0.078704833984375;-1.0181121826171875;0.0059931776486337185;0.001728924224153161;-0.00046365635353140533
-0.0228118896484375;-0.0788421630859375;-1.0199737548828125;0.017222397029399872;0.003209375310689211;-1.9707391402334906e-05
-0.0228118896484375;-0.0788421630859375;-1.0199737548828125;0.017222397029399872;0.003209375310689211;-1.9707391402334906e-05
-0.0228118896484375;-0.0788421630859375;-1.0199737548828125;0.017222397029399872;0.003209375310689211;-1.9707391402334906e-05
-0.0228118896484375;-0.0788421630859375;-1.0199737548828125;0.017222397029399872;0.003209375310689211;-1.9707391402334906e-05
-0.0228118896484375;-0.0788421630859375;-1.0199737548828125;0.017222397029399872;0.003209375310689211;-1.9707391402334906e-05
-0.021575927734375;-0.0788421630859375;-1.0174713134765625;0.023745542392134666;0.0004338289436418563;0.0009198558400385082
-0.021575927734375;-0.0788421630859375;-1.0174713134765625;0.023745542392134666;0.0004338289436418563;0.0009198558400385082
-0.021575927734375;-0.0788421630859375;-1.0174713134765625;0.023745542392134666;0.0004338289436418563;0.0009198558400385082
-0.021575927734375;-0.0788421630859375;-1.0174713134765625;0.023745542392134666;0.0004338289436418563;0.0009198558400385082
-0.021575927734375;-0.0788421630859375;-1.0174713134765625;0.023745542392134666;0.0004338289436418563;0.0009198558400385082
-0.0197601318359375;-0.0799560546875;-1.0169525146484375;0.021437913179397583;0.0008037420338951051;0.0013816480059176683
-0.0197601318359375;-0.0799560546875;-1.0169525146484375;0.021437913179397583;0.0008037420338951051;0.0013816480059176683
-0.0197601318359375;-0.0799560546875;-1.0169525146484375;0.021437913179397583;0.0008037420338951051;0.0013816480059176683
-0.0197601318359375;-0.0799560546875;-1.0169525146484375;0.021437913179397583;0.0008037420338951051;0.0013816480059176683
-0.0197601318359375;-0.0799560546875;-1.0169525146484375;0.021437913179397583;0.0008037420338951051;0.0013816480059176683
-0.017730712890625;-0.08056640625;-1.0166473388671875;0.017488446086645126;0.0011427623685449362;-0.0011736550368368626
-0.017730712890625;-0.08056640625;-1.0166473388671875;0.017488446086645126;0.0011427623685449362;-0.0011736550368368626
-0.017730712890625;-0.08056640625;-1.0166473388671875;0.017488446086645126;0.0011427623685449362;-0.0011736550368368626
-0.017730712890625;-0.08056640625;-1.0166473388671875;0.017488446086645126;0.0011427623685449362;-0.0011736550368368626
-0.017730712890625;-0.08056640625;-1.0166473388671875;0.017488446086645126;0.0011427623685449362;-0.0011736550368368626
-0.0166168212890625;-0.0817413330078125;-1.0149688720703125;0.015141136012971401;-0.0022277343086898327;-0.002906573936343193
-0.0166168212890625;-0.0817413330078125;-1.0149688720703125;0.015141136012971401;-0.0022277343086898327;-0.002906573936343193
-0.0166168212890625;-0.0817413330078125;-1.0149688720703125;0.015141136012971401;-0.0022277343086898327;-0.002906573936343193
-0.0166168212890625;-0.0817413330078125;-1.0149688720703125;0.015141136012971401;-0.0022277343086898327;-0.002906573936343193
-0.0166168212890625;-0.0817413330078125;-1.0149688720703125;0.015141136012971401;-0.0022277343086898327;-0.002906573936343193
-0.016693115234375;-0.08343505859375;-1.0140228271484375;0.004235225263983011;-0.005910353269428015;0.00021438446128740907
-0.016693115234375;-0.08343505859375;-1.0140228271484375;0.004235225263983011;-0.005910353269428015;0.00021438446128740907
-0.016693115234375;-0.08343505859375;-1.0140228271484375;0.004235225263983011;-0.005910353269428015;0.00021438446128740907
-0.016693115234375;-0.08343505859375;-1.0140228271484375;0.004235225263983011;-0.005910353269428015;0.00021438446128740907
-0.016693115234375;-0.08343505859375;-1.0140228271484375;0.004235225263983011;-0.005910353269428015;0.00021438446128740907
-0.0165863037109375;-0.0841522216796875;-1.0114898681640625;-0.004090881906449795;-0.0007611314067617059;-0.0011046791914850473
-0.0165863037109375;-0.0841522216796875;-1.0114898681640625;-0.004090881906449795;-0.0007611314067617059;-0.0011046791914850473
-0.0165863037109375;-0.0841522216796875;-1.0114898681640625;-0.004090881906449795;-0.0007611314067617059;-0.0011046791914850473
-0.0165863037109375;-0.0841522216796875;-1.0114898681640625;-0.004090881906449795;-0.0007611314067617059;-0.0011046791914850473
-0.0165863037109375;-0.0841522216796875;-1.0114898681640625;-0.004090881906449795;-0.0007611314067617059;-0.0011046791914850473
-0.0168914794921875;-0.0867462158203125;-1.0085601806640625;-0.006969226058572531;0.0005083974683657289;-0.0017241304740309715
-0.0168914794921875;-0.0867462158203125;-1.0085601806640625;-0.006969226058572531;0.0005083974683657289;-0.0017241304740309715
-0.0168914794921875;-0.0867462158203125;-1.0085601806640625;-0.006969226058572531;0.0005083974683657289;-0.0017241304740309715
-0.0168914794921875;-0.0867462158203125;-1.0085601806640625;-0.006969226058572531;0.0005083974683657289;-0.0017241304740309715
-0.0168914794921875;-0.0867462158203125;-1.0085601806640625;-0.006969226058572531;0.0005083974683657289;-0.0017241304740309715
-0.0189056396484375;-0.0873260498046875;-1.0102691650390625;-0.007810784969478846;-0.00014887070574332029;-0.002609631512314081
-0.0189056396484375;-0.0873260498046875;-1.0102691650390625;-0.007810784969478846;-0.00014887070574332029;-0.002609631512314081
-0.0189056396484375;-0.0873260498046875;-1.0102691650390625;-0.007810784969478846;-0.00014887070574332029;-0.002609631512314081
-0.0189056396484375;-0.0873260498046875;-1.0102691650390625;-0.007810784969478846;-0.00014887070574332029;-0.002609631512314081
-0.0189056396484375;-0.0873260498046875;-1.0102691650390625;-0.007810784969478846;-0.00014887070574332029;-0.002609631512314081
-0.0173797607421875;-0.087860107421875;-1.011749267578125;-0.0070704263634979725;-0.0038541266694664955;-0.00019121496006846428
-0.0173797607421875;-0.087860107421875;-1.011749267578125;-0.0070704263634979725;-0.0038541266694664955;-0.00019121496006846428
-0.0173797607421875;-0.087860107421875;-1.011749267578125;-0.0070704263634979725;-0.0038541266694664955;-0.00019121496006846428
-0.0173797607421875;-0.087860107421875;-1.011749267578125;-0.0070704263634979725;-0.0038541266694664955;-0.00019121496006846428
-0.0173797607421875;-0.087860107421875;-1.011749267578125;-0.0070704263634979725;-0.0038541266694664955;-0.00019121496006846428
-0.017578125;-0.085235595703125;-1.0100860595703125;-0.008228635415434837;-0.0041398839093744755;-0.0035989959724247456
-0.017578125;-0.085235595703125;-1.0100860595703125;-0.008228635415434837;-0.0041398839093744755;-0.0035989959724247456
-0.017578125;-0.085235595703125;-1.0100860595703125;-0.008228635415434837;-0.0041398839093744755;-0.0035989959724247456
-0.017578125;-0.085235595703125;-1.0100860595703125;-0.008228635415434837;-0.0041398839093744755;-0.0035989959724247456
-0.017578125;-0.085235595703125;-1.0100860595703125;-0.008228635415434837;-0.0041398839093744755;-0.0035989959724247456
-0.0172882080078125;-0.0840911865234375;-1.0080413818359375;-0.01375256385654211;-0.0047119311057031155;-0.000642620783764869
-0.0172882080078125;-0.0840911865234375;-1.0080413818359375;-0.01375256385654211;-0.0047119311057031155;-0.000642620783764869
-0.0172882080078125;-0.0840911865234375;-1.0080413818359375;-0.01375256385654211;-0.0047119311057031155;-0.000642620783764869
-0.0172882080078125;-0.0840911865234375;-1.0080413818359375;-0.01375256385654211;-0.0047119311057031155;-0.000642620783764869
-0.0172882080078125;-0.0840911865234375;-1.0080413818359375;-0.01375256385654211;-0.0047119311057031155;-0.000642620783764869
-0.020477294921875;-0.08441162109375;-1.007720947265625;-0.01534912921488285;-0.005378520116209984;-0.0004929511342197657
-0.020477294921875;-0.08441162109375;-1.007720947265625;-0.01534912921488285;-0.005378520116209984;-0.0004929511342197657
-0.020477294921875;-0.08441162109375;-1.007720947265625;-0.01534912921488285;-0.005378520116209984;-0.0004929511342197657
-0.020477294921875;-0.08441162109375;-1.007720947265625;-0.01534912921488285;-0.005378520116209984;-0.0004929511342197657
-0.020477294921875;-0.08441162109375;-1.007720947265625;-0.01534912921488285;-0.005378520116209984;-0.0004929511342197657
-0.02044677734375;-0.0833892822265625;-1.0091400146484375;-0.013438576832413673;-0.00842384435236454;-0.0009741843095980585
-0.02044677734375;-0.0833892822265625;-1.0091400146484375;-0.013438576832413673;-0.00842384435236454;-0.0009741843095980585
-0.02044677734375;-0.0833892822265625;-1.0091400146484375;-0.013438576832413673;-0.00842384435236454;-0.0009741843095980585
-0.02044677734375;-0.0833892822265625;-1.0091400146484375;-0.013438576832413673;-0.00842384435236454;-0.0009741843095980585
-0.02044677734375;-0.0833892822265625;-1.0091400146484375;-0.013438576832413673;-0.00842384435236454;-0.0009741843095980585
-0.019317626953125;-0.0831451416015625;-1.011077880859375;-0.011560781858861446;-0.009935455396771431;0.0023329290561378
-0.019317626953125;-0.0831451416015625;-1.011077880859375;-0.011560781858861446;-0.009935455396771431;0.0023329290561378
-0.019317626953125;-0.0831451416015625;-1.011077880859375;-0.011560781858861446;-0.009935455396771431;0.0023329290561378
-0.019317626953125;-0.0831451416015625;-1.011077880859375;-0.011560781858861446;-0.009935455396771431;0.0023329290561378
-0.019317626953125;-0.0831451416015625;-1.011077880859375;-0.011560781858861446;-0.009935455396771431;0.0023329290561378
-0.0189208984375;-0.082733154296875;-1.0103607177734375;-0.005519667640328407;-0.01121909823268652;0.002435993403196335
-0.0189208984375;-0.082733154296875;-1.0103607177734375;-0.005519667640328407;-0.01121909823268652;0.002435993403196335
-0.0189208984375;-0.082733154296875;-1.0103607177734375;-0.005519667640328407;-0.01121909823268652;0.002435993403196335
-0.0189208984375;-0.082733154296875;-1.0103607177734375;-0.005519667640328407;-0.01121909823268652;0.002435993403196335
-0.0189208984375;-0.082733154296875;-1.0103607177734375;-0.005519667640328407;-0.01121909823268652;0.002435993403196335
-0.0192108154296875;-0.0832061767578125;-1.011688232421875;-0.0005632585380226374;-0.007561513222754002;0.001454884884878993
-0.0192108154296875;-0.0832061767578125;-1.011688232421875;-0.0005632585380226374;-0.007561513222754002;0.001454884884878993
-0.0192108154296875;-0.0832061767578125;-1.011688232421875;-0.0005632585380226374;-0.007561513222754002;0.001454884884878993
-0.0192108154296875;-0.0832061767578125;-1.011688232421875;-0.0005632585380226374;-0.007561513222754002;0.001454884884878993
-0.0192108154296875;-0.0832061767578125;-1.011688232421875;-0.0005632585380226374;-0.007561513222754002;0.001454884884878993
-0.0194091796875;-0.0840301513671875;-1.0138092041015625;-0.00039547940832562745;-0.003822701284661889;0.0020130835473537445
-0.0194091796875;-0.0840301513671875;-1.0138092041015625;-0.00039547940832562745;-0.003822701284661889;0.0020130835473537445
-0.0194091796875;-0.0840301513671875;-1.0138092041015625;-0.00039547940832562745;-0.003822701284661889;0.0020130835473537445
-0.0194091796875;-0.0840301513671875;-1.0138092041015625;-0.00039547940832562745;-0.003822701284661889;0.0020130835473537445
-0.0194091796875;-0.0840301513671875;-1.0138092041015625;-0.00039547940832562745;-0.003822701284661889;0.0020130835473537445
-0.01922607421875;-0.0835113525390625;-1.013153076171875;-0.002950782421976328;-0.0031827439088374376;0.0024498419370502234
-0.01922607421875;-0.0835113525390625;-1.013153076171875;-0.002950782421976328;-0.0031827439088374376;0.0024498419370502234
-0.01922607421875;-0.0835113525390625;-1.013153076171875;-0.002950782421976328;-0.0031827439088374376;0.0024498419370502234
-0.01922607421875;-0.0835113525390625;-1.013153076171875;-0.002950782421976328;-0.0031827439088374376;0.0024498419370502234
-0.01922607421875;-0.0835113525390625;-1.013153076171875;-0.002950782421976328;-0.0031827439088374376;0.0024498419370502234
-0.0194091796875;-0.0822601318359375;-1.01068115234375;-0.006375341210514307;-0.005555087700486183;0.0015033544041216373
-0.0194091796875;-0.0822601318359375;-1.01068115234375;-0.006375341210514307;-0.005555087700486183;0.0015033544041216373
-0.0194091796875;-0.0822601318359375;-1.01068115234375;-0.006375341210514307;-0.005555087700486183;0.0015033544041216373
-0.0194091796875;-0.0822601318359375;-1.01068115234375;-0.006375341210514307;-0.005555087700486183;0.0015033544041216373
-0.0194091796875;-0.0822601318359375;-1.01068115234375;-0.006375341210514307;-0.005555087700486183;0.0015033544041216373
-0.021759033203125;-0.0828094482421875;-1.0112762451171875;-0.008824117481708527;-0.00771730812266469;-0.0008567389450035989
-0.021759033203125;-0.0828094482421875;-1.0112762451171875;-0.008824117481708527;-0.00771730812266469;-0.0008567389450035989
-0.021759033203125;-0.0828094482421875;-1.0112762451171875;-0.008824117481708527;-0.00771730812266469;-0.0008567389450035989
-0.021759033203125;-0.0828094482421875;-1.0112762451171875;-0.008824117481708527;-0.00771730812266469;-0.0008567389450035989
-0.021759033203125;-0.0828094482421875;-1.0112762451171875;-0.008824117481708527;-0.00771730812266469;-0.0008567389450035989
-0.02276611328125;-0.0836639404296875;-1.0145111083984375;-0.003855458227917552;-0.012022041715681553;-0.0004846953088417649
-0.02276611328125;-0.0836639404296875;-1.0145111083984375;-0.003855458227917552;-0.012022041715681553;-0.0004846953088417649
-0.02276611328125;-0.0836639404296875;-1.0145111083984375;-0.003855458227917552;-0.012022041715681553;-0.0004846953088417649
-0.02276611328125;-0.0836639404296875;-1.0145111083984375;-0.003855458227917552;-0.012022041715681553;-0.0004846953088417649
-0.02276611328125;-0.0836639404296875;-1.0145111083984375;-0.003855458227917552;-0.012022041715681553;-0.0004846953088417649
-0.0238494873046875;-0.08380126953125;-1.016693115234375;0.00407623453065753;-0.013792777433991432;0.0018064221367239952
-0.0238494873046875;-0.08380126953125;-1.016693115234375;0.00407623453065753;-0.013792777433991432;0.0018064221367239952
-0.0238494873046875;-0.08380126953125;-1.016693115234375;0.00407623453065753;-0.013792777433991432;0.0018064221367239952
-0.0238494873046875;-0.08380126953125;-1.016693115234375;0.00407623453065753;-0.013792777433991432;0.0018064221367239952
-0.024658203125;-0.0846405029296875;-1.01654052734375;0.006853378843516111;-0.01477734837681055;-0.0021963089238852262
-0.024658203125;-0.0846405029296875;-1.01654052734375;0.006853378843516111;-0.01477734837681055;-0.0021963089238852262
-0.024658203125;-0.0846405029296875;-1.01654052734375;0.006853378843516111;-0.01477734837681055;-0.0021963089238852262
-0.024658203125;-0.0846405029296875;-1.01654052734375;0.006853378843516111;-0.01477734837681055;-0.0021963089238852262
-0.024658203125;-0.0846405029296875;-1.01654052734375;0.006853378843516111;-0.01477734837681055;-0.0021963089238852262
-0.0239715576171875;-0.0850982666015625;-1.014404296875;0.004649613052606583;-0.00640703272074461;0.0014410364674404263
-0.0239715576171875;-0.0850982666015625;-1.014404296875;0.004649613052606583;-0.00640703272074461;0.0014410364674404263
-0.0239715576171875;-0.0850982666015625;-1.014404296875;0.004649613052606583;-0.00640703272074461;0.0014410364674404263
-0.0239715576171875;-0.0850982666015625;-1.014404296875;0.004649613052606583;-0.00640703272074461;0.0014410364674404263
-0.0239715576171875;-0.0850982666015625;-1.014404296875;0.004649613052606583;-0.00640703272074461;0.0014410364674404263
-0.0235595703125;-0.0855255126953125;-1.0109100341796875;0.002659432590007782;0.0009049421059899032;0.0016391756944358349
-0.0235595703125;-0.0855255126953125;-1.0109100341796875;0.002659432590007782;0.0009049421059899032;0.0016391756944358349
-0.0235595703125;-0.0855255126953125;-1.0109100341796875;0.002659432590007782;0.0009049421059899032;0.0016391756944358349
-0.0235595703125;-0.0855255126953125;-1.0109100341796875;0.002659432590007782;0.0009049421059899032;0.0016391756944358349
-0.0235595703125;-0.0855255126953125;-1.0109100341796875;0.002659432590007782;0.0009049421059899032;0.0016391756944358349
-0.0232391357421875;-0.084808349609375;-1.0100860595703125;0.0016761935548856854;0.0023497070651501417;0.0010527475969865918
-0.0232391357421875;-0.084808349609375;-1.0100860595703125;0.0016761935548856854;0.0023497070651501417;0.0010527475969865918
-0.0232391357421875;-0.084808349609375;-1.0100860595703125;0.0016761935548856854;0.0023497070651501417;0.0010527475969865918
-0.0232391357421875;-0.084808349609375;-1.0100860595703125;0.0016761935548856854;0.0023497070651501417;0.0010527475969865918
-0.0232391357421875;-0.084808349609375;-1.0100860595703125;0.0016761935548856854;0.0023497070651501417;0.0010527475969865918
-0.021697998046875;-0.0843505859375;-1.011474609375;-0.0011286477092653513;0.001443166984245181;-0.0011150655336678028
-0.021697998046875;-0.0843505859375;-1.011474609375;-0.0011286477092653513;0.001443166984245181;-0.0011150655336678028
-0.021697998046875;-0.0843505859375;-1.011474609375;-0.0011286477092653513;0.001443166984245181;-0.0011150655336678028
-0.021697998046875;-0.0843505859375;-1.011474609375;-0.0011286477092653513;0.001443166984245181;-0.0011150655336678028
-0.021697998046875;-0.0843505859375;-1.011474609375;-0.0011286477092653513;0.001443166984245181;-0.0011150655336678028
-0.0222930908203125;-0.0841827392578125;-1.01055908203125;-0.002174737397581339;-0.0013265205780044198;0.00042104575550183654
-0.0222930908203125;-0.0841827392578125;-1.01055908203125;-0.002174737397581339;-0.0013265205780044198;0.00042104575550183654
-0.0222930908203125;-0.0841827392578125;-1.01055908203125;-0.002174737397581339;-0.0013265205780044198;0.00042104575550183654
-0.0222930908203125;-0.0841827392578125;-1.01055908203125;-0.002174737397581339;-0.0013265205780044198;0.00042104575550183654
-0.0222930908203125;-0.0841827392578125;-1.01055908203125;-0.00233266269788146;0.0004820321628358215;0.0010639328975230455
-0.02288818359375;-0.0847930908203125;-1.009796142578125;-0.00233266269788146;0.0004820321628358215;0.0010639328975230455
-0.02288818359375;-0.0847930908203125;-1.009796142578125;-0.00233266269788146;0.0004820321628358215;0.0010639328975230455
-0.02288818359375;-0.0847930908203125;-1.009796142578125;-0.00233266269788146;0.0004820321628358215;0.0010639328975230455
-0.02288818359375;-0.0847930908203125;-1.009796142578125;-0.00233266269788146;0.0004820321628358215;0.0010639328975230455
-0.02288818359375;-0.0847930908203125;-1.009796142578125;-0.00233266269788146;0.0004820321628358215;0.0010639328975230455
-0.024017333984375;-0.0836639404296875;-1.0105438232421875;-0.001989913871511817;0.0006056028068996966;-0.0020216056145727634
-0.024017333984375;-0.0836639404296875;-1.0105438232421875;-0.001989913871511817;0.0006056028068996966;-0.0020216056145727634
-0.024017333984375;-0.0836639404296875;-1.0105438232421875;-0.001989913871511817;0.0006056028068996966;-0.0020216056145727634
-0.024017333984375;-0.0836639404296875;-1.0105438232421875;-0.001989913871511817;0.0006056028068996966;-0.0020216056145727634
-0.0238037109375;-0.0841827392578125;-1.00946044921875;-0.0026256104465574026;0.0008415589109063148;-0.0035185683518648148
-0.0238037109375;-0.0841827392578125;-1.00946044921875;-0.0026256104465574026;0.0008415589109063148;-0.0035185683518648148
-0.0238037109375;-0.0841827392578125;-1.00946044921875;-0.0026256104465574026;0.0008415589109063148;-0.0035185683518648148
-0.0238037109375;-0.0841827392578125;-1.00946044921875;-0.0026256104465574026;0.0008415589109063148;-0.0035185683518648148
-0.0238037109375;-0.0841827392578125;-1.00946044921875;-0.0026256104465574026;0.0008415589109063148;-0.0035185683518648148
-0.023529052734375;-0.083282470703125;-1.0084228515625;-0.004838697146624327;0.006195311434566975;-0.001493500778451562
-0.023529052734375;-0.083282470703125;-1.0084228515625;-0.004838697146624327;0.006195311434566975;-0.001493500778451562
-0.023529052734375;-0.083282470703125;-1.0084228515625;-0.004838697146624327;0.006195311434566975;-0.001493500778451562
-0.023529052734375;-0.083282470703125;-1.0084228515625;-0.004838697146624327;0.006195311434566975;-0.001493500778451562
-0.023529052734375;-0.083282470703125;-1.0084228515625;-0.004838697146624327;0.006195311434566975;-0.001493500778451562
-0.0224609375;-0.0831298828125;-1.00970458984375;-0.006390254944562912;0.0030370689928531647;-0.0008298410102725029
-0.0224609375;-0.0831298828125;-1.00970458984375;-0.006390254944562912;0.0030370689928531647;-0.0008298410102725029
-0.0224609375;-0.0831298828125;-1.00970458984375;-0.006390254944562912;0.0030370689928531647;-0.0008298410102725029
-0.0224609375;-0.0831298828125;-1.00970458984375;-0.006390254944562912;0.0030370689928531647;-0.0008298410102725029
-0.0224609375;-0.0831298828125;-1.00970458984375;-0.006390254944562912;0.0030370689928531647;-0.0008298410102725029
-0.0206146240234375;-0.0830535888671875;-1.0112152099609375;-0.004364654887467623;0.0035459990613162518;7.057376933516935e-05
-0.0206146240234375;-0.0830535888671875;-1.0112152099609375;-0.004364654887467623;0.0035459990613162518;7.057376933516935e-05
-0.0206146240234375;-0.0830535888671875;-1.0112152099609375;-0.004364654887467623;0.0035459990613162518;7.057376933516935e-05
-0.0206146240234375;-0.0830535888671875;-1.0112152099609375;-0.004364654887467623;0.0035459990613162518;7.057376933516935e-05
-0.0206146240234375;-0.0830535888671875;-1.0112152099609375;-0.004364654887467623;0.0035459990613162518;7.057376933516935e-05
-0.0196533203125;-0.0818023681640625;-1.01165771484375;-0.004640025552362204;0.0052291168831288815;-0.0032503881957381964
-0.0196533203125;-0.0818023681640625;-1.01165771484375;-0.004640025552362204;0.0052291168831288815;-0.0032503881957381964
-0.0196533203125;-0.0818023681640625;-1.01165771484375;-0.004640025552362204;0.0052291168831288815;-0.0032503881957381964
-0.0196533203125;-0.0818023681640625;-1.01165771484375;-0.004640025552362204;0.0052291168831288815;-0.0032503881957381964
-0.0196533203125;-0.0818023681640625;-1.01165771484375;-0.004640025552362204;0.0052291168831288815;-0.0032503881957381964
-0.0184326171875;-0.0821380615234375;-1.01214599609375;0.0004897553008049726;0.0010250506456941366;-0.0011725898366421461
-0.0184326171875;-0.0821380615234375;-1.01214599609375;0.0004897553008049726;0.0010250506456941366;-0.0011725898366421461
-0.0184326171875;-0.0821380615234375;-1.01214599609375;0.0004897553008049726;0.0010250506456941366;-0.0011725898366421461
-0.0184326171875;-0.0821380615234375;-1.01214599609375;0.0004897553008049726;0.0010250506456941366;-0.0011725898366421461
-0.0184326171875;-0.0821380615234375;-1.01214599609375;0.0004897553008049726;0.0010250506456941366;-0.0011725898366421461
-0.0176849365234375;-0.082794189453125;-1.013946533203125;0.0028663603588938713;0.0024517059791833162;1.0120012120751198e-05
-0.0176849365234375;-0.082794189453125;-1.013946533203125;0.0028663603588938713;0.0024517059791833162;1.0120012120751198e-05
-0.0176849365234375;-0.082794189453125;-1.013946533203125;0.0028663603588938713;0.0024517059791833162;1.0120012120751198e-05
-0.0176849365234375;-0.082794189453125;-1.013946533203125;0.0028663603588938713;0.0024517059791833162;1.0120012120751198e-05
-0.0176849365234375;-0.082794189453125;-1.013946533203125;0.0028663603588938713;0.0024517059791833162;1.0120012120751198e-05
-0.017913818359375;-0.0828857421875;-1.01824951171875;0.00888057705014944;0.0010607370641082525;0.0007608651067130268
-0.017913818359375;-0.0828857421875;-1.01824951171875;0.00888057705014944;0.0010607370641082525;0.0007608651067130268
-0.017913818359375;-0.0828857421875;-1.01824951171875;0.00888057705014944;0.0010607370641082525;0.0007608651067130268
-0.017913818359375;-0.0828857421875;-1.01824951171875;0.00888057705014944;0.0010607370641082525;0.0007608651067130268
-0.017913818359375;-0.0828857421875;-1.01824951171875;0.00888057705014944;0.0010607370641082525;0.0007608651067130268
-0.018585205078125;-0.082763671875;-1.018310546875;0.007875233888626099;-0.002691656816750765;-4.9801110435510054e-05
-0.018585205078125;-0.082763671875;-1.018310546875;0.007875233888626099;-0.002691656816750765;-4.9801110435510054e-05
-0.018585205078125;-0.082763671875;-1.018310546875;0.007875233888626099;-0.002691656816750765;-4.9801110435510054e-05
-0.018585205078125;-0.082763671875;-1.018310546875;0.007875233888626099;-0.002691656816750765;-4.9801110435510054e-05
-0.018585205078125;-0.082763671875;-1.018310546875;0.007875233888626099;-0.002691656816750765;-4.9801110435510054e-05
-0.0200958251953125;-0.0828399658203125;-1.01715087890625;0.008521316573023796;-0.002805640222504735;-0.0014034858904778957
-0.0200958251953125;-0.0828399658203125;-1.01715087890625;0.008521316573023796;-0.002805640222504735;-0.0014034858904778957
-0.0200958251953125;-0.0828399658203125;-1.01715087890625;0.008521316573023796;-0.002805640222504735;-0.0014034858904778957
-0.0200958251953125;-0.0828399658203125;-1.01715087890625;0.008521316573023796;-0.002805640222504735;-0.0014034858904778957
-0.0200958251953125;-0.0828399658203125;-1.01715087890625;0.008521316573023796;-0.002805640222504735;-0.0014034858904778957
-0.0205078125;-0.08349609375;-1.015869140625;0.0072808158583939075;-0.00404534162953496;-0.0007454187725670636
-0.0205078125;-0.08349609375;-1.015869140625;0.0072808158583939075;-0.00404534162953496;-0.0007454187725670636
-0.0205078125;-0.08349609375;-1.015869140625;0.0072808158583939075;-0.00404534162953496;-0.0007454187725670636
-0.0205078125;-0.08349609375;-1.015869140625;0.0072808158583939075;-0.00404534162953496;-0.0007454187725670636
-0.0205078125;-0.08349609375;-1.015869140625;0.0072808158583939075;-0.00404534162953496;-0.0007454187725670636
-0.019744873046875;-0.0839385986328125;-1.01007080078125;-0.003234142903238535;-0.001130778226070106;0.004339887294918299
-0.019744873046875;-0.0839385986328125;-1.01007080078125;-0.003234142903238535;-0.001130778226070106;0.004339887294918299
-0.019744873046875;-0.0839385986328125;-1.01007080078125;-0.003234142903238535;-0.001130778226070106;0.004339887294918299
-0.019744873046875;-0.0839385986328125;-1.01007080078125;-0.003234142903238535;-0.001130778226070106;0.004339887294918299
-0.019744873046875;-0.0839385986328125;-1.01007080078125;-0.003234142903238535;-0.001130778226070106;0.004339887294918299
-0.01947021484375;-0.0848846435546875;-1.0044403076171875;-0.014918495900928974;0.0027294738683849573;6.97748182574287e-05
-0.01947021484375;-0.0848846435546875;-1.0044403076171875;-0.014918495900928974;0.0027294738683849573;6.97748182574287e-05
-0.01947021484375;-0.0848846435546875;-1.0044403076171875;-0.014918495900928974;0.0027294738683849573;6.97748182574287e-05
-0.01947021484375;-0.0848846435546875;-1.0044403076171875;-0.014918495900928974;0.0027294738683849573;6.97748182574287e-05
-0.01947021484375;-0.0848846435546875;-1.0044403076171875;-0.014918495900928974;0.0027294738683849573;6.97748182574287e-05
-0.0185699462890625;-0.0843353271484375;-1.0056915283203125;-0.02388748899102211;0.004222974646836519;1.3848437447450124e-05
-0.0185699462890625;-0.0843353271484375;-1.0056915283203125;-0.02388748899102211;0.004222974646836519;1.3848437447450124e-05
-0.0185699462890625;-0.0843353271484375;-1.0056915283203125;-0.02388748899102211;0.004222974646836519;1.3848437447450124e-05
-0.0185699462890625;-0.0843353271484375;-1.0056915283203125;-0.02388748899102211;0.004222974646836519;1.3848437447450124e-05
-0.0185699462890625;-0.0843353271484375;-1.0056915283203125;-0.02388748899102211;0.004222974646836519;1.3848437447450124e-05
-0.0172119140625;-0.0825653076171875;-1.00897216796875;-0.023688018321990967;0.0006311691831797361;-0.0036330842413008213
-0.0172119140625;-0.0825653076171875;-1.00897216796875;-0.023688018321990967;0.0006311691831797361;-0.0036330842413008213
-0.0172119140625;-0.0825653076171875;-1.00897216796875;-0.023688018321990967;0.0006311691831797361;-0.0036330842413008213
-0.0172119140625;-0.0825653076171875;-1.00897216796875;-0.023688018321990967;0.0006311691831797361;-0.0036330842413008213
-0.0172119140625;-0.0825653076171875;-1.00897216796875;-0.023688018321990967;0.0006311691831797361;-0.0036330842413008213
-0.0167083740234375;-0.0828857421875;-1.0124053955078125;-0.019216304644942284;0.0031486554071307182;0.00012783173588104546
-0.0167083740234375;-0.0828857421875;-1.0124053955078125;-0.019216304644942284;0.0031486554071307182;0.00012783173588104546
-0.0167083740234375;-0.0828857421875;-1.0124053955078125;-0.019216304644942284;0.0031486554071307182;0.00012783173588104546
-0.0167083740234375;-0.0828857421875;-1.0124053955078125;-0.019216304644942284;0.0031486554071307182;0.00012783173588104546
-0.0167083740234375;-0.0828857421875;-1.0124053955078125;-0.019216304644942284;0.0031486554071307182;0.00012783173588104546
-0.016357421875;-0.0819091796875;-1.011932373046875;-0.010260626673698425;0.005850166082382202;0.0005001416429877281
-0.016357421875;-0.0819091796875;-1.011932373046875;-0.010260626673698425;0.005850166082382202;0.0005001416429877281
-0.016357421875;-0.0819091796875;-1.011932373046875;-0.010260626673698425;0.005850166082382202;0.0005001416429877281
-0.016357421875;-0.0819091796875;-1.011932373046875;-0.010260626673698425;0.005850166082382202;0.0005001416429877281
-0.016357421875;-0.0819091796875;-1.011932373046875;-0.010260626673698425;0.005850166082382202;0.0005001416429877281
-0.0186004638671875;-0.080657958984375;-1.0078277587890625;-0.011968778446316719;0.019593941047787666;-0.0016205335268750787
-0.0186004638671875;-0.080657958984375;-1.0078277587890625;-0.011968778446316719;0.019593941047787666;-0.0016205335268750787
-0.0186004638671875;-0.080657958984375;-1.0078277587890625;-0.011968778446316719;0.019593941047787666;-0.0016205335268750787
-0.0186004638671875;-0.080657958984375;-1.0078277587890625;-0.011968778446316719;0.019593941047787666;-0.0016205335268750787
-0.0186004638671875;-0.080657958984375;-1.0078277587890625;-0.011968778446316719;0.019593941047787666;-0.0016205335268750787
-0.0205230712890625;-0.0810546875;-1.00677490234375;-0.006423278246074915;0.016441823914647102;-0.005067463032901287
-0.0205230712890625;-0.0810546875;-1.00677490234375;-0.006423278246074915;0.016441823914647102;-0.005067463032901287
-0.0205230712890625;-0.0810546875;-1.00677490234375;-0.006423278246074915;0.016441823914647102;-0.005067463032901287
-0.0205230712890625;-0.0810546875;-1.00677490234375;-0.006423278246074915;0.016441823914647102;-0.005067463032901287
-0.0205230712890625;-0.0810546875;-1.00677490234375;-0.006423278246074915;0.016441823914647102;-0.005067463032901287
-0.02069091796875;-0.08172607421875;-1.0120391845703125;-0.005627525504678488;0.012012721039354801;-0.0043710460886359215
-0.02069091796875;-0.08172607421875;-1.0120391845703125;-0.005627525504678488;0.012012721039354801;-0.0043710460886359215
-0.02069091796875;-0.08172607421875;-1.0120391845703125;-0.005627525504678488;0.012012721039354801;-0.0043710460886359215
-0.02069091796875;-0.08172607421875;-1.0120391845703125;-0.005627525504678488;0.012012721039354801;-0.0043710460886359215
-0.02069091796875;-0.08172607421875;-1.0120391845703125;-0.005627525504678488;0.012012721039354801;-0.0043710460886359215
-0.02093505859375;-0.0838165283203125;-1.01690673828125;0.001948634977452457;0.004735100548714399;-0.0031960594933480024
-0.02093505859375;-0.0838165283203125;-1.01690673828125;0.001948634977452457;0.004735100548714399;-0.0031960594933480024
-0.02093505859375;-0.0838165283203125;-1.01690673828125;0.001948634977452457;0.004735100548714399;-0.0031960594933480024
-0.02093505859375;-0.0838165283203125;-1.01690673828125;0.001948634977452457;0.004735100548714399;-0.0031960594933480024
-0.02093505859375;-0.0838165283203125;-1.01690673828125;0.001948634977452457;0.004735100548714399;-0.0031960594933480024
-0.020599365234375;-0.08465576171875;-1.019195556640625;0.0026770094409585;-0.004837099462747574;-0.0029728866647928953
-0.020599365234375;-0.08465576171875;-1.019195556640625;0.0026770094409585;-0.004837099462747574;-0.0029728866647928953
-0.020599365234375;-0.08465576171875;-1.019195556640625;0.0026770094409585;-0.004837099462747574;-0.0029728866647928953
-0.020599365234375;-0.08465576171875;-1.019195556640625;0.0026770094409585;-0.004837099462747574;-0.0029728866647928953
-0.020599365234375;-0.08465576171875;-1.019195556640625;0.0026770094409585;-0.004837099462747574;-0.0029728866647928953
-0.0207366943359375;-0.086090087890625;-1.0191802978515625;0.003305781865492463;-0.0022237394005060196;-0.001674861996434629
-0.0207366943359375;-0.086090087890625;-1.0191802978515625;0.003305781865492463;-0.0022237394005060196;-0.001674861996434629
-0.0207366943359375;-0.086090087890625;-1.0191802978515625;0.003305781865492463;-0.0022237394005060196;-0.001674861996434629
-0.0207366943359375;-0.086090087890625;-1.0191802978515625;0.003305781865492463;-0.0022237394005060196;-0.001674861996434629
-0.0207366943359375;-0.086090087890625;-1.0191802978515625;0.003305781865492463;-0.0022237394005060196;-0.001674861996434629
-0.0179595947265625;-0.0874786376953125;-1.0085601806640625;-0.017827732488512993;0.01443912647664547;-0.00307648372836411
-0.0179595947265625;-0.0874786376953125;-1.0085601806640625;-0.017827732488512993;0.01443912647664547;-0.00307648372836411
-0.0179595947265625;-0.0874786376953125;-1.0085601806640625;-0.017827732488512993;0.01443912647664547;-0.00307648372836411
-0.0179595947265625;-0.0874786376953125;-1.0085601806640625;-0.017827732488512993;0.01443912647664547;-0.00307648372836411
-0.0179595947265625;-0.0874786376953125;-1.0085601806640625;-0.017827732488512993;0.01443912647664547;-0.00307648372836411
-0.0196075439453125;-0.085357666015625;-0.99090576171875;-0.045276932418346405;0.030649522319436073;-0.006954578682780266
-0.0196075439453125;-0.085357666015625;-0.99090576171875;-0.045276932418346405;0.030649522319436073;-0.006954578682780266
-0.0196075439453125;-0.085357666015625;-0.99090576171875;-0.045276932418346405;0.030649522319436073;-0.006954578682780266
-0.0196075439453125;-0.085357666015625;-0.99090576171875;-0.045276932418346405;0.030649522319436073;-0.006954578682780266
-0.0196075439453125;-0.085357666015625;-0.99090576171875;-0.045276932418346405;0.030649522319436073;-0.006954578682780266
-0.0206451416015625;-0.086151123046875;-0.9904632568359375;-0.06217469274997711;0.033423203974962234;-0.003923901356756687
-0.0206451416015625;-0.086151123046875;-0.9904632568359375;-0.06217469274997711;0.033423203974962234;-0.003923901356756687
-0.0206451416015625;-0.086151123046875;-0.9904632568359375;-0.06217469274997711;0.033423203974962234;-0.003923901356756687
-0.0206451416015625;-0.086151123046875;-0.9904632568359375;-0.06217469274997711;0.033423203974962234;-0.003923901356756687
-0.0206451416015625;-0.086151123046875;-0.9904632568359375;-0.06217469274997711;0.033423203974962234;-0.003923901356756687
-0.0167388916015625;-0.0846099853515625;-1.004638671875;-0.06476940959692001;0.01504180021584034;-0.0019710054621100426
-0.0167388916015625;-0.0846099853515625;-1.004638671875;-0.06476940959692001;0.01504180021584034;-0.0019710054621100426
-0.0167388916015625;-0.0846099853515625;-1.004638671875;-0.06476940959692001;0.01504180021584034;-0.0019710054621100426
-0.0167388916015625;-0.0846099853515625;-1.004638671875;-0.06476940959692001;0.01504180021584034;-0.0019710054621100426
-0.0167388916015625;-0.0846099853515625;-1.004638671875;-0.06476940959692001;0.01504180021584034;-0.0019710054621100426
-0.018035888671875;-0.0807647705078125;-1.02081298828125;-0.057200439274311066;-0.00755059439688921;-0.004944158717989922
-0.018035888671875;-0.0807647705078125;-1.02081298828125;-0.057200439274311066;-0.00755059439688921;-0.004944158717989922
-0.018035888671875;-0.0807647705078125;-1.02081298828125;-0.057200439274311066;-0.00755059439688921;-0.004944158717989922
-0.018035888671875;-0.0807647705078125;-1.02081298828125;-0.057200439274311066;-0.00755059439688921;-0.004944158717989922
-0.018035888671875;-0.0807647705078125;-1.02081298828125;-0.057200439274311066;-0.00755059439688921;-0.004944158717989922
-0.0206146240234375;-0.074737548828125;-1.0189361572265625;-0.05363313481211662;-0.019474897533655167;-0.0070371367037296295
-0.0206146240234375;-0.074737548828125;-1.0189361572265625;-0.05363313481211662;-0.019474897533655167;-0.0070371367037296295
-0.0206146240234375;-0.074737548828125;-1.0189361572265625;-0.05363313481211662;-0.019474897533655167;-0.0070371367037296295
-0.0206146240234375;-0.074737548828125;-1.0189361572265625;-0.05363313481211662;-0.019474897533655167;-0.0070371367037296295
-0.0206146240234375;-0.074737548828125;-1.0189361572265625;-0.05363313481211662;-0.019474897533655167;-0.0070371367037296295
-0.0212554931640625;-0.0718994140625;-1.00665283203125;-0.05828674137592316;-0.015531023032963276;-0.009614810347557068
-0.0212554931640625;-0.0718994140625;-1.00665283203125;-0.05828674137592316;-0.015531023032963276;-0.009614810347557068
-0.0212554931640625;-0.0718994140625;-1.00665283203125;-0.05828674137592316;-0.015531023032963276;-0.009614810347557068
-0.0212554931640625;-0.0718994140625;-1.00665283203125;-0.05828674137592316;-0.015531023032963276;-0.009614810347557068
-0.0212554931640625;-0.0718994140625;-1.00665283203125;-0.05828674137592316;-0.015531023032963276;-0.009614810347557068
-0.0242767333984375;-0.0701904296875;-1.0072021484375;-0.057560499757528305;-0.011695537716150284;-0.011699266731739044
-0.0242767333984375;-0.0701904296875;-1.0072021484375;-0.057560499757528305;-0.011695537716150284;-0.011699266731739044
-0.0242767333984375;-0.0701904296875;-1.0072021484375;-0.057560499757528305;-0.011695537716150284;-0.011699266731739044
-0.0242767333984375;-0.0701904296875;-1.0072021484375;-0.057560499757528305;-0.011695537716150284;-0.011699266731739044
-0.0242767333984375;-0.0701904296875;-1.0072021484375;-0.057560499757528305;-0.011695537716150284;-0.011699266731739044
-0.0208740234375;-0.0674896240234375;-1.0068206787109375;-0.049246907234191895;0.007078948430716991;-0.01461809128522873
-0.0208740234375;-0.0674896240234375;-1.0068206787109375;-0.049246907234191895;0.007078948430716991;-0.01461809128522873
-0.0208740234375;-0.0674896240234375;-1.0068206787109375;-0.049246907234191895;0.007078948430716991;-0.01461809128522873
-0.0208740234375;-0.0674896240234375;-1.0068206787109375;-0.049246907234191895;0.007078948430716991;-0.01461809128522873
-0.0208740234375;-0.0674896240234375;-1.0068206787109375;-0.049246907234191895;0.007078948430716991;-0.01461809128522873
-0.01763916015625;-0.0658721923828125;-1.0018463134765625;-0.041374072432518005;0.029166141524910927;-0.012476643547415733
-0.01763916015625;-0.0658721923828125;-1.0018463134765625;-0.041374072432518005;0.029166141524910927;-0.012476643547415733
-0.01763916015625;-0.0658721923828125;-1.0018463134765625;-0.041374072432518005;0.029166141524910927;-0.012476643547415733
-0.01763916015625;-0.0658721923828125;-1.0018463134765625;-0.041374072432518005;0.029166141524910927;-0.012476643547415733
-0.01763916015625;-0.0658721923828125;-1.0018463134765625;-0.041374072432518005;0.029166141524910927;-0.012476643547415733
-0.0194091796875;-0.0703125;-1.0055389404296875;-0.032830119132995605;0.027055053040385246;-0.0142931854352355
-0.0194091796875;-0.0703125;-1.0055389404296875;-0.032830119132995605;0.027055053040385246;-0.0142931854352355
-0.0194091796875;-0.0703125;-1.0055389404296875;-0.032830119132995605;0.027055053040385246;-0.0142931854352355
-0.0194091796875;-0.0703125;-1.0055389404296875;-0.032830119132995605;0.027055053040385246;-0.0142931854352355
-0.0194091796875;-0.0703125;-1.0055389404296875;-0.032830119132995605;0.027055053040385246;-0.0142931854352355
-0.0182647705078125;-0.074249267578125;-1.01446533203125;-0.021586785092949867;0.015626629814505577;-0.013645770959556103
-0.0182647705078125;-0.074249267578125;-1.01446533203125;-0.021586785092949867;0.015626629814505577;-0.013645770959556103
-0.0182647705078125;-0.074249267578125;-1.01446533203125;-0.021586785092949867;0.015626629814505577;-0.013645770959556103
-0.0182647705078125;-0.074249267578125;-1.01446533203125;-0.021586785092949867;0.015626629814505577;-0.013645770959556103
-0.0182647705078125;-0.074249267578125;-1.01446533203125;-0.021586785092949867;0.015626629814505577;-0.013645770959556103
-0.01580810546875;-0.076385498046875;-1.01947021484375;-0.02039768360555172;0.005126052536070347;-0.011050786823034286
-0.01580810546875;-0.076385498046875;-1.01947021484375;-0.02039768360555172;0.005126052536070347;-0.011050786823034286
-0.01580810546875;-0.076385498046875;-1.01947021484375;-0.02039768360555172;0.005126052536070347;-0.011050786823034286
-0.01580810546875;-0.076385498046875;-1.01947021484375;-0.02039768360555172;0.005126052536070347;-0.011050786823034286
-0.01580810546875;-0.076385498046875;-1.01947021484375;-0.02039768360555172;0.005126052536070347;-0.011050786823034286
-0.01715087890625;-0.0767822265625;-1.016693115234375;-0.024400681257247925;-0.0020759340841323137;-0.012664129957556725
-0.01715087890625;-0.0767822265625;-1.016693115234375;-0.024400681257247925;-0.0020759340841323137;-0.012664129957556725
-0.01715087890625;-0.0767822265625;-1.016693115234375;-0.024400681257247925;-0.0020759340841323137;-0.012664129957556725
-0.01715087890625;-0.0767822265625;-1.016693115234375;-0.024400681257247925;-0.0020759340841323137;-0.012664129957556725
-0.01715087890625;-0.0767822265625;-1.016693115234375;-0.024400681257247925;-0.0020759340841323137;-0.012664129957556725
-0.0191497802734375;-0.0785369873046875;-1.0132904052734375;-0.025348765775561333;-0.003014165675267577;-0.011299526318907738
-0.0191497802734375;-0.0785369873046875;-1.0132904052734375;-0.025348765775561333;-0.003014165675267577;-0.011299526318907738
-0.0191497802734375;-0.0785369873046875;-1.0132904052734375;-0.025348765775561333;-0.003014165675267577;-0.011299526318907738
-0.0191497802734375;-0.0785369873046875;-1.0132904052734375;-0.025348765775561333;-0.003014165675267577;-0.011299526318907738
-0.0191497802734375;-0.0785369873046875;-1.0132904052734375;-0.025348765775561333;-0.003014165675267577;-0.011299526318907738
-0.0181732177734375;-0.0789947509765625;-1.0119171142578125;-0.028610872104763985;-0.008577242493629456;-0.012979181483387947
-0.0181732177734375;-0.0789947509765625;-1.0119171142578125;-0.028610872104763985;-0.008577242493629456;-0.012979181483387947
-0.0181732177734375;-0.0789947509765625;-1.0119171142578125;-0.028610872104763985;-0.008577242493629456;-0.012979181483387947
-0.0181732177734375;-0.0789947509765625;-1.0119171142578125;-0.028610872104763985;-0.008577242493629456;-0.012979181483387947
-0.0181732177734375;-0.0789947509765625;-1.0119171142578125;-0.028610872104763985;-0.008577242493629456;-0.012979181483387947
-0.0165863037109375;-0.07806396484375;-1.0145263671875;-0.022660838440060616;-0.01943894475698471;-0.007676561828702688
-0.0165863037109375;-0.07806396484375;-1.0145263671875;-0.022660838440060616;-0.01943894475698471;-0.007676561828702688
-0.0165863037109375;-0.07806396484375;-1.0145263671875;-0.022660838440060616;-0.01943894475698471;-0.007676561828702688
-0.0165863037109375;-0.07806396484375;-1.0145263671875;-0.022660838440060616;-0.01943894475698471;-0.007676561828702688
-0.0165863037109375;-0.07806396484375;-1.0145263671875;-0.010015083476901054;-0.027475565671920776;-0.008404137566685677
-0.014190673828125;-0.076385498046875;-1.017822265625;-0.010015083476901054;-0.027475565671920776;-0.008404137566685677
-0.014190673828125;-0.076385498046875;-1.017822265625;-0.010015083476901054;-0.027475565671920776;-0.008404137566685677
-0.014190673828125;-0.076385498046875;-1.017822265625;-0.010015083476901054;-0.027475565671920776;-0.008404137566685677
-0.014190673828125;-0.076385498046875;-1.017822265625;-0.010015083476901054;-0.027475565671920776;-0.008404137566685677
-0.014190673828125;-0.076385498046875;-1.017822265625;-0.010015083476901054;-0.027475565671920776;-0.008404137566685677
-0.01324462890625;-0.07684326171875;-1.0186004638671875;-0.0004468784318305552;-0.03284423425793648;-0.005930859595537186
-0.01324462890625;-0.07684326171875;-1.0186004638671875;-0.0004468784318305552;-0.03284423425793648;-0.005930859595537186
-0.01324462890625;-0.07684326171875;-1.0186004638671875;-0.0004468784318305552;-0.03284423425793648;-0.005930859595537186
-0.01324462890625;-0.07684326171875;-1.0186004638671875;-0.0004468784318305552;-0.03284423425793648;-0.005930859595537186
-0.0135498046875;-0.0772857666015625;-1.0174407958984375;0.010037986561655998;-0.028982382267713547;-0.001978462329134345
-0.0135498046875;-0.0772857666015625;-1.0174407958984375;0.010037986561655998;-0.028982382267713547;-0.001978462329134345
-0.0135498046875;-0.0772857666015625;-1.0174407958984375;0.010037986561655998;-0.028982382267713547;-0.001978462329134345
-0.0135498046875;-0.0772857666015625;-1.0174407958984375;0.010037986561655998;-0.028982382267713547;-0.001978462329134345
-0.0135498046875;-0.0772857666015625;-1.0174407958984375;0.010037986561655998;-0.028982382267713547;-0.001978462329134345
-0.0135498046875;-0.0772857666015625;-1.0174407958984375;0.010354902595281601;-0.021331652998924255;0.0002663161139935255
-0.014007568359375;-0.07672119140625;-1.0131988525390625;0.010354902595281601;-0.021331652998924255;0.0002663161139935255
-0.014007568359375;-0.07672119140625;-1.0131988525390625;0.010354902595281601;-0.021331652998924255;0.0002663161139935255
-0.014007568359375;-0.07672119140625;-1.0131988525390625;0.010354902595281601;-0.021331652998924255;0.0002663161139935255
-0.014007568359375;-0.07672119140625;-1.0131988525390625;0.010354902595281601;-0.021331652998924255;0.0002663161139935255
-0.01593017578125;-0.0780181884765625;-1.01129150390625;0.007442736066877842;-0.01589161530137062;0.0015986956423148513
-0.01593017578125;-0.0780181884765625;-1.01129150390625;0.007442736066877842;-0.01589161530137062;0.0015986956423148513
-0.01593017578125;-0.0780181884765625;-1.01129150390625;0.007442736066877842;-0.01589161530137062;0.0015986956423148513
-0.01593017578125;-0.0780181884765625;-1.01129150390625;0.007442736066877842;-0.01589161530137062;0.0015986956423148513
-0.01593017578125;-0.0780181884765625;-1.01129150390625;0.007442736066877842;-0.01589161530137062;0.0015986956423148513
-0.01702880859375;-0.0785675048828125;-1.0100250244140625;0.004107659682631493;-0.01763971336185932;-0.0006245112745091319
-0.01702880859375;-0.0785675048828125;-1.0100250244140625;0.004107659682631493;-0.01763971336185932;-0.0006245112745091319
-0.01702880859375;-0.0785675048828125;-1.0100250244140625;0.004107659682631493;-0.01763971336185932;-0.0006245112745091319
-0.01702880859375;-0.0785675048828125;-1.0100250244140625;0.004107659682631493;-0.01763971336185932;-0.0006245112745091319
-0.01702880859375;-0.0785675048828125;-1.0100250244140625;0.004107659682631493;-0.01763971336185932;-0.0006245112745091319
-0.0185546875;-0.0787353515625;-1.0088043212890625;-0.00047857005847617984;-0.019989686086773872;0.003500991500914097
-0.0185546875;-0.0787353515625;-1.0088043212890625;-0.00047857005847617984;-0.019989686086773872;0.003500991500914097
-0.0185546875;-0.0787353515625;-1.0088043212890625;-0.00047857005847617984;-0.019989686086773872;0.003500991500914097
-0.0185546875;-0.0787353515625;-1.0088043212890625;-0.00047857005847617984;-0.019989686086773872;0.003500991500914097
-0.0185546875;-0.0787353515625;-1.0088043212890625;-0.00047857005847617984;-0.019989686086773872;0.003500991500914097
-0.0201416015625;-0.0782012939453125;-1.0104217529296875;-0.0014253237750381231;-0.022907979786396027;-0.001755289500579238
-0.0201416015625;-0.0782012939453125;-1.0104217529296875;-0.0014253237750381231;-0.022907979786396027;-0.001755289500579238
-0.0201416015625;-0.0782012939453125;-1.0104217529296875;-0.0014253237750381231;-0.022907979786396027;-0.001755289500579238
-0.0201416015625;-0.0782012939453125;-1.0104217529296875;-0.0014253237750381231;-0.022907979786396027;-0.001755289500579238
-0.0201416015625;-0.0782012939453125;-1.0104217529296875;-0.0014253237750381231;-0.022907979786396027;-0.001755289500579238
-0.0217437744140625;-0.078125;-1.0130615234375;0.0007653924985788763;-0.023922376334667206;-0.0008511462947353721
-0.0217437744140625;-0.078125;-1.0130615234375;0.0007653924985788763;-0.023922376334667206;-0.0008511462947353721
-0.0217437744140625;-0.078125;-1.0130615234375;0.0007653924985788763;-0.023922376334667206;-0.0008511462947353721
-0.0217437744140625;-0.078125;-1.0130615234375;0.0007653924985788763;-0.023922376334667206;-0.0008511462947353721
-0.0217437744140625;-0.078125;-1.0130615234375;0.0007653924985788763;-0.023922376334667206;-0.0008511462947353721
-0.02130126953125;-0.076141357421875;-1.014312744140625;0.005869873333722353;-0.02165709249675274;0.002013349672779441
-0.02130126953125;-0.076141357421875;-1.014312744140625;0.005869873333722353;-0.02165709249675274;0.002013349672779441
-0.02130126953125;-0.076141357421875;-1.014312744140625;0.005869873333722353;-0.02165709249675274;0.002013349672779441
-0.02130126953125;-0.076141357421875;-1.014312744140625;0.005869873333722353;-0.02165709249675274;0.002013349672779441
-0.02130126953125;-0.076141357421875;-1.014312744140625;0.005869873333722353;-0.02165709249675274;0.002013349672779441
-0.0231475830078125;-0.0757598876953125;-1.0149688720703125;0.016170714050531387;-0.01804291643202305;-0.0018455706303939223
-0.0231475830078125;-0.0757598876953125;-1.0149688720703125;0.016170714050531387;-0.01804291643202305;-0.0018455706303939223
-0.0231475830078125;-0.0757598876953125;-1.0149688720703125;0.016170714050531387;-0.01804291643202305;-0.0018455706303939223
-0.0231475830078125;-0.0757598876953125;-1.0149688720703125;0.016170714050531387;-0.01804291643202305;-0.0018455706303939223
-0.0231475830078125;-0.0757598876953125;-1.0149688720703125;0.016170714050531387;-0.01804291643202305;-0.0018455706303939223
-0.023345947265625;-0.0758514404296875;-1.014923095703125;0.016832510009407997;-0.014821822755038738;-0.0019017633749172091
-0.023345947265625;-0.0758514404296875;-1.014923095703125;0.016832510009407997;-0.014821822755038738;-0.0019017633749172091
-0.023345947265625;-0.0758514404296875;-1.014923095703125;0.016832510009407997;-0.014821822755038738;-0.0019017633749172091
-0.023345947265625;-0.0758514404296875;-1.014923095703125;0.016832510009407997;-0.014821822755038738;-0.0019017633749172091
-0.023345947265625;-0.0758514404296875;-1.014923095703125;0.016832510009407997;-0.014821822755038738;-0.0019017633749172091
-0.02362060546875;-0.074920654296875;-1.0140228271484375;0.017522001639008522;-0.012909406796097755;-0.0023587618488818407
-0.02362060546875;-0.074920654296875;-1.0140228271484375;0.017522001639008522;-0.012909406796097755;-0.0023587618488818407
-0.02362060546875;-0.074920654296875;-1.0140228271484375;0.017522001639008522;-0.012909406796097755;-0.0023587618488818407
-0.02362060546875;-0.074920654296875;-1.0140228271484375;0.017522001639008522;-0.012909406796097755;-0.0023587618488818407
-0.02362060546875;-0.074920654296875;-1.0140228271484375;0.017522001639008522;-0.012909406796097755;-0.0023587618488818407
-0.0244140625;-0.07489013671875;-1.0121917724609375;0.016054866835474968;-0.012601546011865139;-0.004746019374579191
-0.0244140625;-0.07489013671875;-1.0121917724609375;0.016054866835474968;-0.012601546011865139;-0.004746019374579191
-0.0244140625;-0.07489013671875;-1.0121917724609375;0.016054866835474968;-0.012601546011865139;-0.004746019374579191
-0.0244140625;-0.07489013671875;-1.0121917724609375;0.016054866835474968;-0.012601546011865139;-0.004746019374579191
-0.0244140625;-0.07489013671875;-1.0121917724609375;0.016054866835474968;-0.012601546011865139;-0.004746019374579191
-0.023193359375;-0.07501220703125;-1.0140228271484375;0.019993681460618973;-0.017842380329966545;-0.003768639173358679
-0.023193359375;-0.07501220703125;-1.0140228271484375;0.019993681460618973;-0.017842380329966545;-0.003768639173358679
-0.023193359375;-0.07501220703125;-1.0140228271484375;0.019993681460618973;-0.017842380329966545;-0.003768639173358679
-0.023193359375;-0.07501220703125;-1.0140228271484375;0.019993681460618973;-0.017842380329966545;-0.003768639173358679
-0.023193359375;-0.07501220703125;-1.0140228271484375;0.019993681460618973;-0.017842380329966545;-0.003768639173358679
-0.0214691162109375;-0.075897216796875;-1.014434814453125;0.024293622002005577;-0.02003416232764721;-0.003013899317011237
-0.0214691162109375;-0.075897216796875;-1.014434814453125;0.024293622002005577;-0.02003416232764721;-0.003013899317011237
-0.0214691162109375;-0.075897216796875;-1.014434814453125;0.024293622002005577;-0.02003416232764721;-0.003013899317011237
-0.0214691162109375;-0.075897216796875;-1.014434814453125;0.024293622002005577;-0.02003416232764721;-0.003013899317011237
-0.0214691162109375;-0.075897216796875;-1.014434814453125;0.024293622002005577;-0.02003416232764721;-0.003013899317011237
-0.0199432373046875;-0.0781402587890625;-1.01531982421875;0.024750620126724243;-0.01883387565612793;-0.0034498588647693396
-0.0199432373046875;-0.0781402587890625;-1.01531982421875;0.024750620126724243;-0.01883387565612793;-0.0034498588647693396
-0.0199432373046875;-0.0781402587890625;-1.01531982421875;0.024750620126724243;-0.01883387565612793;-0.0034498588647693396
-0.0199432373046875;-0.0781402587890625;-1.01531982421875;0.024750620126724243;-0.01883387565612793;-0.0034498588647693396
-0.0199432373046875;-0.0781402587890625;-1.01531982421875;0.024750620126724243;-0.01883387565612793;-0.0034498588647693396
-0.017852783203125;-0.0781097412109375;-1.0146942138671875;0.025425998494029045;-0.013650830835103989;-0.004988633096218109
-0.017852783203125;-0.0781097412109375;-1.0146942138671875;0.025425998494029045;-0.013650830835103989;-0.004988633096218109
-0.017852783203125;-0.0781097412109375;-1.0146942138671875;0.025425998494029045;-0.013650830835103989;-0.004988633096218109
-0.017852783203125;-0.0781097412109375;-1.0146942138671875;0.025425998494029045;-0.013650830835103989;-0.004988633096218109
-0.017852783203125;-0.0781097412109375;-1.0146942138671875;0.025425998494029045;-0.013650830835103989;-0.004988633096218109
-0.0175323486328125;-0.0785064697265625;-1.01318359375;0.019121496006846428;-0.015428757295012474;-0.005577724426984787
-0.0175323486328125;-0.0785064697265625;-1.01318359375;0.019121496006846428;-0.015428757295012474;-0.005577724426984787
-0.0175323486328125;-0.0785064697265625;-1.01318359375;0.019121496006846428;-0.015428757295012474;-0.005577724426984787
-0.0175323486328125;-0.0785064697265625;-1.01318359375;0.019121496006846428;-0.015428757295012474;-0.005577724426984787
-0.0175323486328125;-0.0785064697265625;-1.01318359375;0.019121496006846428;-0.015428757295012474;-0.005577724426984787
-0.0170135498046875;-0.0792388916015625;-1.0091552734375;0.011357849463820457;-0.014401043765246868;-0.005711415316909552
-0.0170135498046875;-0.0792388916015625;-1.0091552734375;0.011357849463820457;-0.014401043765246868;-0.005711415316909552
-0.0170135498046875;-0.0792388916015625;-1.0091552734375;0.011357849463820457;-0.014401043765246868;-0.005711415316909552
-0.0170135498046875;-0.0792388916015625;-1.0091552734375;0.011357849463820457;-0.014401043765246868;-0.005711415316909552
-0.0170135498046875;-0.0792388916015625;-1.0091552734375;0.011357849463820457;-0.014401043765246868;-0.005711415316909552
-0.0186004638671875;-0.0791778564453125;-1.0076751708984375;-0.0002055960358120501;-0.01366494596004486;-0.003689010627567768
-0.0186004638671875;-0.0791778564453125;-1.0076751708984375;-0.0002055960358120501;-0.01366494596004486;-0.003689010627567768
-0.0186004638671875;-0.0791778564453125;-1.0076751708984375;-0.0002055960358120501;-0.01366494596004486;-0.003689010627567768
-0.0186004638671875;-0.0791778564453125;-1.0076751708984375;-0.0002055960358120501;-0.01366494596004486;-0.003689010627567768
-0.0186004638671875;-0.0791778564453125;-1.0076751708984375;-0.0002055960358120501;-0.01366494596004486;-0.003689010627567768
-0.0213470458984375;-0.07958984375;-1.0085906982421875;-0.008976184763014317;-0.011487012729048729;-0.0008426241693086922
-0.0213470458984375;-0.07958984375;-1.0085906982421875;-0.008976184763014317;-0.011487012729048729;-0.0008426241693086922
-0.0213470458984375;-0.07958984375;-1.0085906982421875;-0.008976184763014317;-0.011487012729048729;-0.0008426241693086922
-0.0213470458984375;-0.07958984375;-1.0085906982421875;-0.008976184763014317;-0.011487012729048729;-0.0008426241693086922
-0.0213470458984375;-0.07958984375;-1.0085906982421875;-0.008976184763014317;-0.011487012729048729;-0.0008426241693086922
-0.021148681640625;-0.079559326171875;-1.011627197265625;-0.010582337155938148;-0.017544105648994446;-0.004963066894561052
-0.021148681640625;-0.079559326171875;-1.011627197265625;-0.010582337155938148;-0.017544105648994446;-0.004963066894561052
-0.021148681640625;-0.079559326171875;-1.011627197265625;-0.010582337155938148;-0.017544105648994446;-0.004963066894561052
-0.021148681640625;-0.079559326171875;-1.011627197265625;-0.010582337155938148;-0.017544105648994446;-0.004963066894561052
-0.021148681640625;-0.079559326171875;-1.011627197265625;-0.010582337155938148;-0.017544105648994446;-0.004963066894561052
-0.0200347900390625;-0.0785064697265625;-1.0098419189453125;-0.020809408277273178;-0.011022557504475117;-0.002665025182068348
-0.0200347900390625;-0.0785064697265625;-1.0098419189453125;-0.020809408277273178;-0.011022557504475117;-0.002665025182068348
-0.0200347900390625;-0.0785064697265625;-1.0098419189453125;-0.020809408277273178;-0.011022557504475117;-0.002665025182068348
-0.0200347900390625;-0.0785064697265625;-1.0098419189453125;-0.020809408277273178;-0.011022557504475117;-0.002665025182068348
-0.0200347900390625;-0.0785064697265625;-1.0098419189453125;-0.020809408277273178;-0.011022557504475117;-0.002665025182068348
-0.020751953125;-0.0783538818359375;-1.0074920654296875;-0.019697537645697594;-0.00313001312315464;-0.0024080302100628614
-0.020751953125;-0.0783538818359375;-1.0074920654296875;-0.019697537645697594;-0.00313001312315464;-0.0024080302100628614
-0.020751953125;-0.0783538818359375;-1.0074920654296875;-0.019697537645697594;-0.00313001312315464;-0.0024080302100628614
-0.020751953125;-0.0783538818359375;-1.0074920654296875;-0.019697537645697594;-0.00313001312315464;-0.0024080302100628614
-0.020751953125;-0.0783538818359375;-1.0074920654296875;-0.019697537645697594;-0.00313001312315464;-0.0024080302100628614
-0.0220794677734375;-0.0790557861328125;-1.0099639892578125;-0.015800800174474716;-0.004834702704101801;-0.003169428091496229
-0.0220794677734375;-0.0790557861328125;-1.0099639892578125;-0.015800800174474716;-0.004834702704101801;-0.003169428091496229
-0.0220794677734375;-0.0790557861328125;-1.0099639892578125;-0.015800800174474716;-0.004834702704101801;-0.003169428091496229
-0.0220794677734375;-0.0790557861328125;-1.0099639892578125;-0.015800800174474716;-0.004834702704101801;-0.003169428091496229
-0.0220794677734375;-0.0790557861328125;-1.0099639892578125;-0.015800800174474716;-0.004834702704101801;-0.003169428091496229
-0.0214385986328125;-0.078216552734375;-1.015960693359375;-0.01028379611670971;-0.0052323127165436745;-0.0018903117161244154
-0.0214385986328125;-0.078216552734375;-1.015960693359375;-0.01028379611670971;-0.0052323127165436745;-0.0018903117161244154
-0.0214385986328125;-0.078216552734375;-1.015960693359375;-0.01028379611670971;-0.0052323127165436745;-0.0018903117161244154
-0.0214385986328125;-0.078216552734375;-1.015960693359375;-0.01028379611670971;-0.0052323127165436745;-0.0018903117161244154
-0.0214385986328125;-0.078216552734375;-1.015960693359375;-0.01028379611670971;-0.0052323127165436745;-0.0018903117161244154
-0.0206146240234375;-0.079315185546875;-1.0153656005859375;-0.006936735473573208;-0.005376921966671944;0.000303334032651037
-0.0206146240234375;-0.079315185546875;-1.0153656005859375;-0.006936735473573208;-0.005376921966671944;0.000303334032651037
-0.0206146240234375;-0.079315185546875;-1.0153656005859375;-0.006936735473573208;-0.005376921966671944;0.000303334032651037
-0.0206146240234375;-0.079315185546875;-1.0153656005859375;-0.006936735473573208;-0.005376921966671944;0.000303334032651037
-0.0206146240234375;-0.079315185546875;-1.0153656005859375;-0.006936735473573208;-0.005376921966671944;0.000303334032651037
-0.02154541015625;-0.0781097412109375;-1.0120086669921875;-0.006360161118209362;-0.008057394064962864;-0.003852528752759099
-0.02154541015625;-0.0781097412109375;-1.0120086669921875;-0.006360161118209362;-0.008057394064962864;-0.003852528752759099
-0.02154541015625;-0.0781097412109375;-1.0120086669921875;-0.006360161118209362;-0.008057394064962864;-0.003852528752759099
-0.02154541015625;-0.0781097412109375;-1.0120086669921875;-0.006360161118209362;-0.008057394064962864;-0.003852528752759099
-0.02154541015625;-0.0781097412109375;-1.0120086669921875;-0.006360161118209362;-0.008057394064962864;-0.003852528752759099
-0.0243072509765625;-0.078521728515625;-1.012115478515625;-0.004337756894528866;-0.013489177450537682;-0.006371080409735441
-0.0243072509765625;-0.078521728515625;-1.012115478515625;-0.004337756894528866;-0.013489177450537682;-0.006371080409735441
-0.0243072509765625;-0.078521728515625;-1.012115478515625;-0.004337756894528866;-0.013489177450537682;-0.006371080409735441
-0.0243072509765625;-0.078521728515625;-1.012115478515625;-0.004337756894528866;-0.013489177450537682;-0.006371080409735441
-0.0243072509765625;-0.078521728515625;-1.012115478515625;-0.004337756894528866;-0.013489177450537682;-0.006371080409735441
-0.02459716796875;-0.0785980224609375;-1.0150604248046875;0.0005550027708522975;-0.0172698013484478;-0.004325506277382374
-0.02459716796875;-0.0785980224609375;-1.0150604248046875;0.0005550027708522975;-0.0172698013484478;-0.004325506277382374
-0.02459716796875;-0.0785980224609375;-1.0150604248046875;0.0005550027708522975;-0.0172698013484478;-0.004325506277382374
-0.02459716796875;-0.0785980224609375;-1.0150604248046875;0.0005550027708522975;-0.0172698013484478;-0.004325506277382374
-0.02459716796875;-0.0785980224609375;-1.0150604248046875;0.0005550027708522975;-0.0172698013484478;-0.004325506277382374
-0.0238800048828125;-0.0790863037109375;-1.018890380859375;0.010401774197816849;-0.01925918273627758;0.0009153284481726587
-0.0238800048828125;-0.0790863037109375;-1.018890380859375;0.010401774197816849;-0.01925918273627758;0.0009153284481726587
-0.0238800048828125;-0.0790863037109375;-1.018890380859375;0.010401774197816849;-0.01925918273627758;0.0009153284481726587
-0.0238800048828125;-0.0790863037109375;-1.018890380859375;0.010401774197816849;-0.01925918273627758;0.0009153284481726587
-0.0238800048828125;-0.0790863037109375;-1.018890380859375;0.010401774197816849;-0.01925918273627758;0.0009153284481726587
-0.022216796875;-0.078521728515625;-1.0189208984375;0.01522688940167427;-0.017347564920783043;-0.002517752582207322
-0.022216796875;-0.078521728515625;-1.0189208984375;0.01522688940167427;-0.017347564920783043;-0.002517752582207322
-0.022216796875;-0.078521728515625;-1.0189208984375;0.01522688940167427;-0.017347564920783043;-0.002517752582207322
-0.022216796875;-0.078521728515625;-1.0189208984375;0.01522688940167427;-0.017347564920783043;-0.002517752582207322
-0.022216796875;-0.078521728515625;-1.0189208984375;0.01522688940167427;-0.017347564920783043;-0.002517752582207322
-0.0210113525390625;-0.078948974609375;-1.0172882080078125;0.02082245796918869;-0.014843926765024662;-0.00028868665685877204
-0.0210113525390625;-0.078948974609375;-1.0172882080078125;0.02082245796918869;-0.014843926765024662;-0.00028868665685877204
-0.0210113525390625;-0.078948974609375;-1.0172882080078125;0.02082245796918869;-0.014843926765024662;-0.00028868665685877204
-0.0210113525390625;-0.078948974609375;-1.0172882080078125;0.02082245796918869;-0.014843926765024662;-0.00028868665685877204
-0.0210113525390625;-0.078948974609375;-1.0172882080078125;0.02082245796918869;-0.014843926765024662;-0.00028868665685877204
-0.0214080810546875;-0.079437255859375;-1.01611328125;0.023935692384839058;-0.015413311310112476;0.0006538060260936618
-0.0214080810546875;-0.079437255859375;-1.01611328125;0.023935692384839058;-0.015413311310112476;0.0006538060260936618
-0.0214080810546875;-0.079437255859375;-1.01611328125;0.023935692384839058;-0.015413311310112476;0.0006538060260936618
-0.0214080810546875;-0.079437255859375;-1.01611328125;0.023935692384839058;-0.015413311310112476;0.0006538060260936618
-0.0214080810546875;-0.079437255859375;-1.01611328125;0.023935692384839058;-0.015413311310112476;0.0006538060260936618
-0.0211944580078125;-0.078765869140625;-1.01678466796875;0.03032222017645836;-0.015745140612125397;-0.0019289276096969843
-0.0211944580078125;-0.078765869140625;-1.01678466796875;0.03032222017645836;-0.015745140612125397;-0.0019289276096969843
-0.0211944580078125;-0.078765869140625;-1.01678466796875;0.03032222017645836;-0.015745140612125397;-0.0019289276096969843
-0.0211944580078125;-0.078765869140625;-1.01678466796875;0.03032222017645836;-0.015745140612125397;-0.0019289276096969843
-0.0211944580078125;-0.078765869140625;-1.01678466796875;0.03032222017645836;-0.015745140612125397;-0.0019289276096969843
-0.020172119140625;-0.078369140625;-1.0181884765625;0.03772074729204178;-0.014758439734578133;0.0031886028591543436
-0.020172119140625;-0.078369140625;-1.0181884765625;0.03772074729204178;-0.014758439734578133;0.0031886028591543436
-0.020172119140625;-0.078369140625;-1.0181884765625;0.03772074729204178;-0.014758439734578133;0.0031886028591543436
-0.020172119140625;-0.078369140625;-1.0181884765625;0.03772074729204178;-0.014758439734578133;0.0031886028591543436
-0.020172119140625;-0.078369140625;-1.0181884765625;0.03772074729204178;-0.014758439734578133;0.0031886028591543436
-0.022430419921875;-0.0793304443359375;-1.01800537109375;0.04796938970685005;-0.016919061541557312;-0.0002711098059080541
-0.022430419921875;-0.0793304443359375;-1.01800537109375;0.04796938970685005;-0.016919061541557312;-0.0002711098059080541
-0.022430419921875;-0.0793304443359375;-1.01800537109375;0.04796938970685005;-0.016919061541557312;-0.0002711098059080541
-0.022430419921875;-0.0793304443359375;-1.01800537109375;0.04796938970685005;-0.016919061541557312;-0.0002711098059080541
-0.022430419921875;-0.0793304443359375;-1.01800537109375;0.054064299911260605;-0.014882010407745838;-0.0014064153656363487
-0.0233612060546875;-0.0791778564453125;-1.016510009765625;0.054064299911260605;-0.014882010407745838;-0.0014064153656363487
-0.0233612060546875;-0.0791778564453125;-1.016510009765625;0.054064299911260605;-0.014882010407745838;-0.0014064153656363487
-0.0233612060546875;-0.0791778564453125;-1.016510009765625;0.054064299911260605;-0.014882010407745838;-0.0014064153656363487
-0.0233612060546875;-0.0791778564453125;-1.016510009765625;0.054064299911260605;-0.014882010407745838;-0.0014064153656363487
-0.0233612060546875;-0.0791778564453125;-1.016510009765625;0.054064299911260605;-0.014882010407745838;-0.0014064153656363487
-0.02398681640625;-0.0788116455078125;-1.0143585205078125;0.06265831738710403;-0.008394017815589905;-0.0008625978953205049
-0.02398681640625;-0.0788116455078125;-1.0143585205078125;0.06265831738710403;-0.008394017815589905;-0.0008625978953205049
-0.02398681640625;-0.0788116455078125;-1.0143585205078125;0.06265831738710403;-0.008394017815589905;-0.0008625978953205049
-0.02398681640625;-0.0788116455078125;-1.0143585205078125;0.06265831738710403;-0.008394017815589905;-0.0008625978953205049
-0.02398681640625;-0.0788116455078125;-1.0143585205078125;0.06265831738710403;-0.008394017815589905;-0.0008625978953205049
-0.02459716796875;-0.0805511474609375;-1.01165771484375;0.06357897818088531;0.002841326640918851;-0.004532966297119856
-0.02459716796875;-0.0805511474609375;-1.01165771484375;0.06357897818088531;0.002841326640918851;-0.004532966297119856
-0.02459716796875;-0.0805511474609375;-1.01165771484375;0.06357897818088531;0.002841326640918851;-0.004532966297119856
-0.02459716796875;-0.0805511474609375;-1.01165771484375;0.06357897818088531;0.002841326640918851;-0.004532966297119856
-0.02459716796875;-0.0805511474609375;-1.01165771484375;0.06827865540981293;0.0017329188995063305;-0.005830458365380764
-0.0262603759765625;-0.080780029296875;-1.01287841796875;0.06827865540981293;0.0017329188995063305;-0.005830458365380764
-0.0262603759765625;-0.080780029296875;-1.01287841796875;0.06827865540981293;0.0017329188995063305;-0.005830458365380764
-0.0262603759765625;-0.080780029296875;-1.01287841796875;0.06827865540981293;0.0017329188995063305;-0.005830458365380764
-0.0262603759765625;-0.080780029296875;-1.01287841796875;0.06827865540981293;0.0017329188995063305;-0.005830458365380764
-0.0248260498046875;-0.0828399658203125;-1.015289306640625;0.06649939715862274;0.0011222560424357653;-0.005592904519289732
-0.0248260498046875;-0.0828399658203125;-1.015289306640625;0.06649939715862274;0.0011222560424357653;-0.005592904519289732
-0.0248260498046875;-0.0828399658203125;-1.015289306640625;0.06649939715862274;0.0011222560424357653;-0.005592904519289732
-0.0248260498046875;-0.0828399658203125;-1.015289306640625;0.06649939715862274;0.0011222560424357653;-0.005592904519289732
-0.0248260498046875;-0.0828399658203125;-1.015289306640625;0.06649939715862274;0.0011222560424357653;-0.005592904519289732
-0.0248260498046875;-0.0828399658203125;-1.015289306640625;0.06300772726535797;-0.00037497308221645653;-0.008419317193329334
-0.0225982666015625;-0.085723876953125;-1.0161590576171875;0.06300772726535797;-0.00037497308221645653;-0.008419317193329334
-0.0225982666015625;-0.085723876953125;-1.0161590576171875;0.06300772726535797;-0.00037497308221645653;-0.008419317193329334
-0.0225982666015625;-0.085723876953125;-1.0161590576171875;0.06300772726535797;-0.00037497308221645653;-0.008419317193329334
-0.0225982666015625;-0.085723876953125;-1.0161590576171875;0.06300772726535797;-0.00037497308221645653;-0.008419317193329334
-0.0225982666015625;-0.085723876953125;-1.0161590576171875;0.05108315870165825;0.002755572786554694;-0.00569889834150672
-0.0220489501953125;-0.08831787109375;-1.012054443359375;0.05108315870165825;0.002755572786554694;-0.00569889834150672
-0.0220489501953125;-0.08831787109375;-1.012054443359375;0.05108315870165825;0.002755572786554694;-0.00569889834150672
-0.0220489501953125;-0.08831787109375;-1.012054443359375;0.05108315870165825;0.002755572786554694;-0.00569889834150672
-0.0220489501953125;-0.08831787109375;-1.012054443359375;0.05108315870165825;0.002755572786554694;-0.00569889834150672
-0.0220489501953125;-0.08831787109375;-1.012054443359375;0.05108315870165825;0.002755572786554694;-0.00569889834150672
-0.022491455078125;-0.0894775390625;-1.0083465576171875;0.04538479074835777;0.001764077926054597;-0.002418416552245617
-0.022491455078125;-0.0894775390625;-1.0083465576171875;0.04538479074835777;0.001764077926054597;-0.002418416552245617
-0.022491455078125;-0.0894775390625;-1.0083465576171875;0.04538479074835777;0.001764077926054597;-0.002418416552245617
-0.022491455078125;-0.0894775390625;-1.0083465576171875;0.04538479074835777;0.001764077926054597;-0.002418416552245617
-0.0209808349609375;-0.089935302734375;-1.0098114013671875;0.033665817230939865;-0.002254898427054286;0.000731836655177176
-0.0209808349609375;-0.089935302734375;-1.0098114013671875;0.033665817230939865;-0.002254898427054286;0.000731836655177176
-0.0209808349609375;-0.089935302734375;-1.0098114013671875;0.033665817230939865;-0.002254898427054286;0.000731836655177176
-0.0209808349609375;-0.089935302734375;-1.0098114013671875;0.033665817230939865;-0.002254898427054286;0.000731836655177176
-0.0209808349609375;-0.089935302734375;-1.0098114013671875;0.033665817230939865;-0.002254898427054286;0.000731836655177176
-0.0209808349609375;-0.089935302734375;-1.0098114013671875;0.033665817230939865;-0.002254898427054286;0.000731836655177176
-0.021240234375;-0.09014892578125;-1.012298583984375;0.03349590674042702;-0.01133894082158804;-0.0003944141499232501
-0.021240234375;-0.09014892578125;-1.012298583984375;0.03349590674042702;-0.01133894082158804;-0.0003944141499232501
-0.021240234375;-0.09014892578125;-1.012298583984375;0.03349590674042702;-0.01133894082158804;-0.0003944141499232501
-0.021240234375;-0.09014892578125;-1.012298583984375;0.03349590674042702;-0.01133894082158804;-0.0003944141499232501
-0.0220489501953125;-0.090118408203125;-1.0123748779296875;0.03760383278131485;-0.014288658276200294;-0.000523843802511692
-0.0220489501953125;-0.090118408203125;-1.0123748779296875;0.03760383278131485;-0.014288658276200294;-0.000523843802511692
-0.0220489501953125;-0.090118408203125;-1.0123748779296875;0.03760383278131485;-0.014288658276200294;-0.000523843802511692
-0.0220489501953125;-0.090118408203125;-1.0123748779296875;0.03760383278131485;-0.014288658276200294;-0.000523843802511692
-0.0220489501953125;-0.090118408203125;-1.0123748779296875;0.03760383278131485;-0.014288658276200294;-0.000523843802511692
-0.0229339599609375;-0.0876312255859375;-1.0120086669921875;0.039135683327913284;-0.013853764161467552;0.0019797938875854015
