Acell X;Acell Y;Acell Z;Gyro X;Gyro Y;Gyro Z

0.06976318359375;-0.1664581298828125;-0.99493408203125;-0.010602843016386032;0.022050173953175545;-0.0001637844106880948
0.06976318359375;-0.1664581298828125;-0.99493408203125;-0.010602843016386032;0.022050173953175545;-0.0001637844106880948
0.0871734619140625;-0.1694183349609375;-0.9921417236328125;-0.021885590627789497;0.0031377363484352827;-0.0009126652730628848
0.0871734619140625;-0.1694183349609375;-0.9921417236328125;-0.021885590627789497;0.0031377363484352827;-0.0009126652730628848
0.0871734619140625;-0.1694183349609375;-0.9921417236328125;-0.021885590627789497;0.0031377363484352827;-0.0009126652730628848
0.0871734619140625;-0.1694183349609375;-0.9921417236328125;-0.021885590627789497;0.0031377363484352827;-0.0009126652730628848
0.0871734619140625;-0.1694183349609375;-0.9921417236328125;-0.021885590627789497;0.0031377363484352827;-0.0009126652730628848
0.0832672119140625;-0.1695404052734375;-0.99365234375;-0.023933295160531998;-0.017050622031092644;-0.0008237157016992569
0.0832672119140625;-0.1695404052734375;-0.99365234375;-0.023933295160531998;-0.017050622031092644;-0.0008237157016992569
0.0832672119140625;-0.1695404052734375;-0.99365234375;-0.023933295160531998;-0.017050622031092644;-0.0008237157016992569
0.0832672119140625;-0.1695404052734375;-0.99365234375;-0.023933295160531998;-0.017050622031092644;-0.0008237157016992569
0.0832672119140625;-0.1695404052734375;-0.99365234375;-0.023933295160531998;-0.017050622031092644;-0.0008237157016992569
0.0811004638671875;-0.16632080078125;-0.99566650390625;-0.02309972606599331;-0.026159431785345078;-0.000391218374716118
0.0811004638671875;-0.16632080078125;-0.99566650390625;-0.02309972606599331;-0.026159431785345078;-0.000391218374716118
0.0811004638671875;-0.16632080078125;-0.99566650390625;-0.02309972606599331;-0.026159431785345078;-0.000391218374716118
0.0811004638671875;-0.16632080078125;-0.99566650390625;-0.02309972606599331;-0.026159431785345078;-0.000391218374716118
0.0811004638671875;-0.16632080078125;-0.99566650390625;-0.02309972606599331;-0.026159431785345078;-0.000391218374716118
0.079010009765625;-0.1639862060546875;-0.99542236328125;-0.01943095587193966;-0.02172926440834999;-0.00019414443522691727
0.079010009765625;-0.1639862060546875;-0.99542236328125;-0.01943095587193966;-0.02172926440834999;-0.00019414443522691727
0.079010009765625;-0.1639862060546875;-0.99542236328125;-0.01943095587193966;-0.02172926440834999;-0.00019414443522691727
0.079010009765625;-0.1639862060546875;-0.99542236328125;-0.01943095587193966;-0.02172926440834999;-0.00019414443522691727
0.079010009765625;-0.1639862060546875;-0.99542236328125;-0.01943095587193966;-0.02172926440834999;-0.00019414443522691727
0.079132080078125;-0.16522216796875;-0.9934844970703125;-0.018488729372620583;-0.01384257897734642;0.002299106912687421
0.079132080078125;-0.16522216796875;-0.9934844970703125;-0.018488729372620583;-0.01384257897734642;0.002299106912687421
0.079132080078125;-0.16522216796875;-0.9934844970703125;-0.018488729372620583;-0.01384257897734642;0.002299106912687421
0.079132080078125;-0.16522216796875;-0.9934844970703125;-0.018488729372620583;-0.01384257897734642;0.002299106912687421
0.079132080078125;-0.16522216796875;-0.9934844970703125;-0.018488729372620583;-0.01384257897734642;0.002299106912687421
0.078369140625;-0.1668243408203125;-0.9928741455078125;-0.014637798070907593;-0.007898669689893723;-0.0008431567694060504
0.078369140625;-0.1668243408203125;-0.9928741455078125;-0.014637798070907593;-0.007898669689893723;-0.0008431567694060504
0.078369140625;-0.1668243408203125;-0.9928741455078125;-0.014637798070907593;-0.007898669689893723;-0.0008431567694060504
0.078369140625;-0.1668243408203125;-0.9928741455078125;-0.014637798070907593;-0.007898669689893723;-0.0008431567694060504
0.078369140625;-0.1668243408203125;-0.9928741455078125;-0.014637798070907593;-0.007898669689893723;-0.0008431567694060504
0.0775604248046875;-0.168701171875;-0.9939422607421875;-0.015471900813281536;-0.0048437574878335;-0.0024117587599903345
0.0775604248046875;-0.168701171875;-0.9939422607421875;-0.015471900813281536;-0.0048437574878335;-0.0024117587599903345
0.0775604248046875;-0.168701171875;-0.9939422607421875;-0.015471900813281536;-0.0048437574878335;-0.0024117587599903345
0.0775604248046875;-0.168701171875;-0.9939422607421875;-0.015471900813281536;-0.0048437574878335;-0.0024117587599903345
0.0775604248046875;-0.168701171875;-0.9939422607421875;-0.015471900813281536;-0.0048437574878335;-0.0024117587599903345
0.0783233642578125;-0.169921875;-0.9961395263671875;-0.014809572137892246;0.0009161274065263569;-0.0036511938087642193
0.0783233642578125;-0.169921875;-0.9961395263671875;-0.014809572137892246;0.0009161274065263569;-0.0036511938087642193
0.0783233642578125;-0.169921875;-0.9961395263671875;-0.014809572137892246;0.0009161274065263569;-0.0036511938087642193
0.0783233642578125;-0.169921875;-0.9961395263671875;-0.014809572137892246;0.0009161274065263569;-0.0036511938087642193
0.0783233642578125;-0.169921875;-0.9961395263671875;-0.014809572137892246;0.0009161274065263569;-0.0036511938087642193
0.0768890380859375;-0.169921875;-0.9985809326171875;-0.015471634455025196;0.006121275946497917;-0.004009655211120844
0.0768890380859375;-0.169921875;-0.9985809326171875;-0.015471634455025196;0.006121275946497917;-0.004009655211120844
0.0768890380859375;-0.169921875;-0.9985809326171875;-0.015471634455025196;0.006121275946497917;-0.004009655211120844
0.0768890380859375;-0.169921875;-0.9985809326171875;-0.015471634455025196;0.006121275946497917;-0.004009655211120844
0.0768890380859375;-0.169921875;-0.9985809326171875;-0.015471634455025196;0.006121275946497917;-0.004009655211120844
0.075775146484375;-0.1700897216796875;-1.0003204345703125;-0.015959791839122772;0.010206565260887146;-0.0033896714448928833
0.075775146484375;-0.1700897216796875;-1.0003204345703125;-0.015959791839122772;0.010206565260887146;-0.0033896714448928833
0.075775146484375;-0.1700897216796875;-1.0003204345703125;-0.015959791839122772;0.010206565260887146;-0.0033896714448928833
0.075775146484375;-0.1700897216796875;-1.0003204345703125;-0.015959791839122772;0.010206565260887146;-0.0033896714448928833
0.075775146484375;-0.1700897216796875;-1.0003204345703125;-0.015959791839122772;0.010206565260887146;-0.0033896714448928833
0.07623291015625;-0.1702880859375;-1.0011444091796875;-0.014386395923793316;0.010743457823991776;-0.004894357640296221
0.07623291015625;-0.1702880859375;-1.0011444091796875;-0.014386395923793316;0.010743457823991776;-0.004894357640296221
0.07623291015625;-0.1702880859375;-1.0011444091796875;-0.014386395923793316;0.010743457823991776;-0.004894357640296221
0.07623291015625;-0.1702880859375;-1.0011444091796875;-0.014386395923793316;0.010743457823991776;-0.004894357640296221
0.07623291015625;-0.1702880859375;-1.0011444091796875;-0.014386395923793316;0.010743457823991776;-0.004894357640296221
0.0762939453125;-0.1699676513671875;-1.001678466796875;-0.010427607223391533;0.010184993036091328;-0.0075426045805215836
0.0762939453125;-0.1699676513671875;-1.001678466796875;-0.010427607223391533;0.010184993036091328;-0.0075426045805215836
0.0762939453125;-0.1699676513671875;-1.001678466796875;-0.010427607223391533;0.010184993036091328;-0.0075426045805215836
0.0762939453125;-0.1699676513671875;-1.001678466796875;-0.010427607223391533;0.010184993036091328;-0.0075426045805215836
0.0762939453125;-0.1699676513671875;-1.001678466796875;-0.010427607223391533;0.010184993036091328;-0.0075426045805215836
0.0768890380859375;-0.16937255859375;-1.0017547607421875;-0.012045743875205517;0.007706922013312578;-0.004097007215023041
0.0768890380859375;-0.16937255859375;-1.0017547607421875;-0.012045743875205517;0.007706922013312578;-0.004097007215023041
0.0768890380859375;-0.16937255859375;-1.0017547607421875;-0.012045743875205517;0.007706922013312578;-0.004097007215023041
0.0768890380859375;-0.16937255859375;-1.0017547607421875;-0.012045743875205517;0.007706922013312578;-0.004097007215023041
0.0768890380859375;-0.16937255859375;-1.0017547607421875;-0.012045743875205517;0.007706922013312578;-0.004097007215023041
0.0761260986328125;-0.169464111328125;-1.000579833984375;-0.012447881512343884;0.004849616438150406;-0.005356681998819113
0.0761260986328125;-0.169464111328125;-1.000579833984375;-0.012447881512343884;0.004849616438150406;-0.005356681998819113
0.0761260986328125;-0.169464111328125;-1.000579833984375;-0.012447881512343884;0.004849616438150406;-0.005356681998819113
0.0761260986328125;-0.169464111328125;-1.000579833984375;-0.012447881512343884;0.004849616438150406;-0.005356681998819113
0.0761260986328125;-0.169464111328125;-1.000579833984375;-0.012447881512343884;0.004849616438150406;-0.005356681998819113
0.0765838623046875;-0.1701202392578125;-0.9961395263671875;-0.01907036453485489;0.0009374326909892261;-0.004385427106171846
0.0765838623046875;-0.1701202392578125;-0.9961395263671875;-0.01907036453485489;0.0009374326909892261;-0.004385427106171846
0.0765838623046875;-0.1701202392578125;-0.9961395263671875;-0.01907036453485489;0.0009374326909892261;-0.004385427106171846
0.0765838623046875;-0.1701202392578125;-0.9961395263671875;-0.01907036453485489;0.0009374326909892261;-0.004385427106171846
0.0765838623046875;-0.1701202392578125;-0.9961395263671875;-0.01907036453485489;0.0009374326909892261;-0.004385427106171846
0.076751708984375;-0.1701812744140625;-0.994384765625;-0.024533838033676147;0.0008471515611745417;-0.004845355171710253
0.076751708984375;-0.1701812744140625;-0.994384765625;-0.024533838033676147;0.0008471515611745417;-0.004845355171710253
0.076751708984375;-0.1701812744140625;-0.994384765625;-0.024533838033676147;0.0008471515611745417;-0.004845355171710253
0.076751708984375;-0.1701812744140625;-0.994384765625;-0.024533838033676147;0.0008471515611745417;-0.004845355171710253
0.076751708984375;-0.1701812744140625;-0.994384765625;-0.024533838033676147;0.0008471515611745417;-0.004845355171710253
0.0761260986328125;-0.1688385009765625;-0.9936676025390625;-0.03512203320860863;-3.728425554072601e-06;-0.006169212516397238
0.0761260986328125;-0.1688385009765625;-0.9936676025390625;-0.03512203320860863;-3.728425554072601e-06;-0.006169212516397238
0.0761260986328125;-0.1688385009765625;-0.9936676025390625;-0.03512203320860863;-3.728425554072601e-06;-0.006169212516397238
0.0761260986328125;-0.1688385009765625;-0.9936676025390625;-0.03512203320860863;-3.728425554072601e-06;-0.006169212516397238
0.0761260986328125;-0.1688385009765625;-0.9936676025390625;-0.03512203320860863;-3.728425554072601e-06;-0.006169212516397238
0.076934814453125;-0.16717529296875;-0.991455078125;-0.03900305926799774;0.004756405483931303;-0.0054610781371593475
0.076934814453125;-0.16717529296875;-0.991455078125;-0.03900305926799774;0.004756405483931303;-0.0054610781371593475
0.076934814453125;-0.16717529296875;-0.991455078125;-0.03900305926799774;0.004756405483931303;-0.0054610781371593475
0.076934814453125;-0.16717529296875;-0.991455078125;-0.03900305926799774;0.004756405483931303;-0.0054610781371593475
0.076934814453125;-0.16717529296875;-0.991455078125;-0.03900305926799774;0.004756405483931303;-0.0054610781371593475
0.0776519775390625;-0.165557861328125;-0.99432373046875;-0.040458209812641144;0.004639759194105864;-0.0027449200861155987
0.0776519775390625;-0.165557861328125;-0.99432373046875;-0.040458209812641144;0.004639759194105864;-0.0027449200861155987
0.0776519775390625;-0.165557861328125;-0.99432373046875;-0.040458209812641144;0.004639759194105864;-0.0027449200861155987
0.0776519775390625;-0.165557861328125;-0.99432373046875;-0.040458209812641144;0.004639759194105864;-0.0027449200861155987
0.0776519775390625;-0.165557861328125;-0.99432373046875;-0.040458209812641144;0.004639759194105864;-0.0027449200861155987
0.077667236328125;-0.1637725830078125;-0.99774169921875;-0.0448196679353714;0.004095675423741341;-0.0025981799699366093
0.077667236328125;-0.1637725830078125;-0.99774169921875;-0.0448196679353714;0.004095675423741341;-0.0025981799699366093
0.077667236328125;-0.1637725830078125;-0.99774169921875;-0.0448196679353714;0.004095675423741341;-0.0025981799699366093
0.077667236328125;-0.1637725830078125;-0.99774169921875;-0.0448196679353714;0.004095675423741341;-0.0025981799699366093
0.077667236328125;-0.1637725830078125;-0.99774169921875;-0.0448196679353714;0.004095675423741341;-0.0025981799699366093
0.0770263671875;-0.1637420654296875;-1.00244140625;-0.039385221898555756;0.0032834112644195557;-0.001995772821828723
0.0770263671875;-0.1637420654296875;-1.00244140625;-0.039385221898555756;0.0032834112644195557;-0.001995772821828723
0.0770263671875;-0.1637420654296875;-1.00244140625;-0.039385221898555756;0.0032834112644195557;-0.001995772821828723
0.0770263671875;-0.1637420654296875;-1.00244140625;-0.039385221898555756;0.0032834112644195557;-0.001995772821828723
0.0770263671875;-0.1637420654296875;-1.00244140625;-0.039385221898555756;0.0032834112644195557;-0.001995772821828723
0.0773162841796875;-0.1640625;-1.003936767578125;-0.03894686698913574;0.0038986015133559704;0.002115082461386919
0.0773162841796875;-0.1640625;-1.003936767578125;-0.03894686698913574;0.0038986015133559704;0.002115082461386919
0.0773162841796875;-0.1640625;-1.003936767578125;-0.03894686698913574;0.0038986015133559704;0.002115082461386919
0.0773162841796875;-0.1640625;-1.003936767578125;-0.03894686698913574;0.0038986015133559704;0.002115082461386919
0.0773162841796875;-0.1640625;-1.003936767578125;-0.03894686698913574;0.0038986015133559704;0.002115082461386919
0.077545166015625;-0.1659698486328125;-1.0050201416015625;-0.03953995183110237;-0.0012721919920295477;-0.0002697782183531672
0.077545166015625;-0.1659698486328125;-1.0050201416015625;-0.03953995183110237;-0.0012721919920295477;-0.0002697782183531672
0.077545166015625;-0.1659698486328125;-1.0050201416015625;-0.03953995183110237;-0.0012721919920295477;-0.0002697782183531672
0.077545166015625;-0.1659698486328125;-1.0050201416015625;-0.03953995183110237;-0.0012721919920295477;-0.0002697782183531672
0.0775299072265625;-0.16522216796875;-1.00457763671875;-0.04572008550167084;-0.00708800321444869;0.0013275857781991363
0.0775299072265625;-0.16522216796875;-1.00457763671875;-0.04572008550167084;-0.00708800321444869;0.0013275857781991363
0.0775299072265625;-0.16522216796875;-1.00457763671875;-0.04572008550167084;-0.00708800321444869;0.0013275857781991363
0.0775299072265625;-0.16522216796875;-1.00457763671875;-0.04572008550167084;-0.00708800321444869;0.0013275857781991363
0.0775299072265625;-0.16522216796875;-1.00457763671875;-0.04572008550167084;-0.00708800321444869;0.0013275857781991363
0.0774993896484375;-0.1647796630859375;-1.00286865234375;-0.04572008550167084;-0.00708800321444869;0.0013275857781991363
0.0774993896484375;-0.1647796630859375;-1.00286865234375;-0.04330459609627724;-0.003311108099296689;0.0019891150295734406
0.0774993896484375;-0.1647796630859375;-1.00286865234375;-0.04330459609627724;-0.003311108099296689;0.0019891150295734406
0.0774993896484375;-0.1647796630859375;-1.00286865234375;-0.04330459609627724;-0.003311108099296689;0.0019891150295734406
0.0774993896484375;-0.1647796630859375;-1.00286865234375;-0.04330459609627724;-0.003311108099296689;0.0019891150295734406
0.0774993896484375;-0.1647796630859375;-1.00286865234375;-0.04330459609627724;-0.003311108099296689;0.0019891150295734406
0.077850341796875;-0.164947509765625;-1.001312255859375;-0.047744620591402054;-0.001981658162549138;-0.00013502225920092314
0.077850341796875;-0.164947509765625;-1.001312255859375;-0.047744620591402054;-0.001981658162549138;-0.00013502225920092314
0.077850341796875;-0.164947509765625;-1.001312255859375;-0.047744620591402054;-0.001981658162549138;-0.00013502225920092314
0.077850341796875;-0.164947509765625;-1.001312255859375;-0.047744620591402054;-0.001981658162549138;-0.00013502225920092314
0.0775604248046875;-0.1636962890625;-0.9985504150390625;-0.05217558518052101;-0.0006535397260449827;2.1837920940015465e-05
0.0775604248046875;-0.1636962890625;-0.9985504150390625;-0.05217558518052101;-0.0006535397260449827;2.1837920940015465e-05
0.0775604248046875;-0.1636962890625;-0.9985504150390625;-0.05217558518052101;-0.0006535397260449827;2.1837920940015465e-05
0.0775604248046875;-0.1636962890625;-0.9985504150390625;-0.05217558518052101;-0.0006535397260449827;2.1837920940015465e-05
0.0775604248046875;-0.1636962890625;-0.9985504150390625;-0.05217558518052101;-0.0006535397260449827;2.1837920940015465e-05
0.07904052734375;-0.1645965576171875;-0.9919281005859375;-0.06048411503434181;0.0037550569977611303;-0.0006399576086550951
0.07904052734375;-0.1645965576171875;-0.9919281005859375;-0.06048411503434181;0.0037550569977611303;-0.0006399576086550951
0.07904052734375;-0.1645965576171875;-0.9919281005859375;-0.06048411503434181;0.0037550569977611303;-0.0006399576086550951
0.07904052734375;-0.1645965576171875;-0.9919281005859375;-0.06048411503434181;0.0037550569977611303;-0.0006399576086550951
0.07904052734375;-0.1645965576171875;-0.9919281005859375;-0.06048411503434181;0.0037550569977611303;-0.0006399576086550951
0.0791168212890625;-0.1626434326171875;-0.9913482666015625;-0.06198081374168396;-0.012227904051542282;-0.006358563434332609
0.0791168212890625;-0.1626434326171875;-0.9913482666015625;-0.06198081374168396;-0.012227904051542282;-0.006358563434332609
0.0791168212890625;-0.1626434326171875;-0.9913482666015625;-0.06198081374168396;-0.012227904051542282;-0.006358563434332609
0.0791168212890625;-0.1626434326171875;-0.9913482666015625;-0.06198081374168396;-0.012227904051542282;-0.006358563434332609
0.0791168212890625;-0.1626434326171875;-0.9913482666015625;-0.06198081374168396;-0.012227904051542282;-0.006358563434332609
0.075225830078125;-0.155548095703125;-0.9994354248046875;-0.05718419328331947;-0.026518426835536957;-0.011198592372238636
0.075225830078125;-0.155548095703125;-0.9994354248046875;-0.05718419328331947;-0.026518426835536957;-0.011198592372238636
0.075225830078125;-0.155548095703125;-0.9994354248046875;-0.05718419328331947;-0.026518426835536957;-0.011198592372238636
0.075225830078125;-0.155548095703125;-0.9994354248046875;-0.05718419328331947;-0.026518426835536957;-0.011198592372238636
0.075225830078125;-0.155548095703125;-0.9994354248046875;-0.05718419328331947;-0.026518426835536957;-0.011198592372238636
0.0750579833984375;-0.1532135009765625;-1.0049591064453125;-0.04786020144820213;-0.04434403032064438;-0.013833523727953434
0.0750579833984375;-0.1532135009765625;-1.0049591064453125;-0.04786020144820213;-0.04434403032064438;-0.013833523727953434
0.0750579833984375;-0.1532135009765625;-1.0049591064453125;-0.04786020144820213;-0.04434403032064438;-0.013833523727953434
0.0750579833984375;-0.1532135009765625;-1.0049591064453125;-0.04786020144820213;-0.04434403032064438;-0.013833523727953434
0.0750579833984375;-0.1532135009765625;-1.0049591064453125;-0.04786020144820213;-0.04434403032064438;-0.013833523727953434
0.0766448974609375;-0.155426025390625;-1.0050048828125;-0.039927177131175995;-0.045400772243738174;-0.011781558394432068
0.0766448974609375;-0.155426025390625;-1.0050048828125;-0.039927177131175995;-0.045400772243738174;-0.011781558394432068
0.0766448974609375;-0.155426025390625;-1.0050048828125;-0.039927177131175995;-0.045400772243738174;-0.011781558394432068
0.0766448974609375;-0.155426025390625;-1.0050048828125;-0.039927177131175995;-0.045400772243738174;-0.011781558394432068
0.0766448974609375;-0.155426025390625;-1.0050048828125;-0.039927177131175995;-0.045400772243738174;-0.011781558394432068
0.076416015625;-0.157135009765625;-0.9999542236328125;-0.03467728570103645;-0.03461603447794914;-0.005898901727050543
0.076416015625;-0.157135009765625;-0.9999542236328125;-0.03467728570103645;-0.03461603447794914;-0.005898901727050543
0.076416015625;-0.157135009765625;-0.9999542236328125;-0.03467728570103645;-0.03461603447794914;-0.005898901727050543
0.076416015625;-0.157135009765625;-0.9999542236328125;-0.03467728570103645;-0.03461603447794914;-0.005898901727050543
0.076416015625;-0.157135009765625;-0.9999542236328125;-0.03467728570103645;-0.03461603447794914;-0.005898901727050543
0.0759124755859375;-0.1563568115234375;-0.9933624267578125;-0.030791202560067177;-0.016868196427822113;-0.004857872147113085
0.0759124755859375;-0.1563568115234375;-0.9933624267578125;-0.030791202560067177;-0.016868196427822113;-0.004857872147113085
0.0759124755859375;-0.1563568115234375;-0.9933624267578125;-0.030791202560067177;-0.016868196427822113;-0.004857872147113085
0.0759124755859375;-0.1563568115234375;-0.9933624267578125;-0.030791202560067177;-0.016868196427822113;-0.004857872147113085
0.0759124755859375;-0.1563568115234375;-0.9933624267578125;-0.030791202560067177;-0.016868196427822113;-0.004857872147113085
0.07513427734375;-0.1580963134765625;-0.9907684326171875;-0.03413133695721626;0.010872354730963707;-0.005082909017801285
0.07513427734375;-0.1580963134765625;-0.9907684326171875;-0.03413133695721626;0.010872354730963707;-0.005082909017801285
0.07513427734375;-0.1580963134765625;-0.9907684326171875;-0.03413133695721626;0.010872354730963707;-0.005082909017801285
0.07513427734375;-0.1580963134765625;-0.9907684326171875;-0.03413133695721626;0.010872354730963707;-0.005082909017801285
0.07513427734375;-0.1580963134765625;-0.9907684326171875;-0.03413133695721626;0.010872354730963707;-0.005082909017801285
0.075164794921875;-0.1587371826171875;-0.9885406494140625;-0.04232348874211311;0.03593403100967407;-0.002558232517912984
0.075164794921875;-0.1587371826171875;-0.9885406494140625;-0.04232348874211311;0.03593403100967407;-0.002558232517912984
0.075164794921875;-0.1587371826171875;-0.9885406494140625;-0.04232348874211311;0.03593403100967407;-0.002558232517912984
0.075164794921875;-0.1587371826171875;-0.9885406494140625;-0.04232348874211311;0.03593403100967407;-0.002558232517912984
0.075164794921875;-0.1587371826171875;-0.9885406494140625;-0.04232348874211311;0.03593403100967407;-0.002558232517912984
0.078094482421875;-0.1580963134765625;-0.9917449951171875;-0.04936595261096954;0.0513974092900753;-0.002429868094623089
0.078094482421875;-0.1580963134765625;-0.9917449951171875;-0.04936595261096954;0.0513974092900753;-0.002429868094623089
0.078094482421875;-0.1580963134765625;-0.9917449951171875;-0.04936595261096954;0.0513974092900753;-0.002429868094623089
0.078094482421875;-0.1580963134765625;-0.9917449951171875;-0.04936595261096954;0.0513974092900753;-0.002429868094623089
0.078094482421875;-0.1580963134765625;-0.9917449951171875;-0.04936595261096954;0.0513974092900753;-0.002429868094623089
0.082244873046875;-0.1584625244140625;-0.99591064453125;-0.05355164036154747;0.050457846373319626;0.0009962886106222868
0.082244873046875;-0.1584625244140625;-0.99591064453125;-0.05355164036154747;0.050457846373319626;0.0009962886106222868
0.082244873046875;-0.1584625244140625;-0.99591064453125;-0.05355164036154747;0.050457846373319626;0.0009962886106222868
0.082244873046875;-0.1584625244140625;-0.99591064453125;-0.05355164036154747;0.050457846373319626;0.0009962886106222868
0.082244873046875;-0.1584625244140625;-0.99591064453125;-0.05355164036154747;0.050457846373319626;0.0009962886106222868
0.0857086181640625;-0.1601104736328125;-1.0025482177734375;-0.056354351341724396;0.04631716385483742;0.004610198084264994
0.0857086181640625;-0.1601104736328125;-1.0025482177734375;-0.056354351341724396;0.04631716385483742;0.004610198084264994
0.0857086181640625;-0.1601104736328125;-1.0025482177734375;-0.056354351341724396;0.04631716385483742;0.004610198084264994
0.0857086181640625;-0.1601104736328125;-1.0025482177734375;-0.056354351341724396;0.04631716385483742;0.004610198084264994
0.0857086181640625;-0.1601104736328125;-1.0025482177734375;-0.056354351341724396;0.04631716385483742;0.004610198084264994
0.0861968994140625;-0.1619720458984375;-1.008758544921875;-0.055624380707740784;0.031373634934425354;0.0016887104138731956
0.0861968994140625;-0.1619720458984375;-1.008758544921875;-0.055624380707740784;0.031373634934425354;0.0016887104138731956
0.0861968994140625;-0.1619720458984375;-1.008758544921875;-0.055624380707740784;0.031373634934425354;0.0016887104138731956
0.0861968994140625;-0.1619720458984375;-1.008758544921875;-0.055624380707740784;0.031373634934425354;0.0016887104138731956
0.0861968994140625;-0.1619720458984375;-1.008758544921875;-0.055624380707740784;0.031373634934425354;0.0016887104138731956
0.0845489501953125;-0.160736083984375;-1.0118560791015625;-0.05516951158642769;0.019899405539035797;-0.0005091963685117662
0.0845489501953125;-0.160736083984375;-1.0118560791015625;-0.05516951158642769;0.019899405539035797;-0.0005091963685117662
0.0845489501953125;-0.160736083984375;-1.0118560791015625;-0.05516951158642769;0.019899405539035797;-0.0005091963685117662
0.0845489501953125;-0.160736083984375;-1.0118560791015625;-0.05516951158642769;0.019899405539035797;-0.0005091963685117662
0.0845489501953125;-0.160736083984375;-1.0118560791015625;-0.05516951158642769;0.019899405539035797;-0.0005091963685117662
0.08135986328125;-0.1602325439453125;-1.0078277587890625;-0.05324564501643181;0.001558748190291226;-0.004169445019215345
0.08135986328125;-0.1602325439453125;-1.0078277587890625;-0.05324564501643181;0.001558748190291226;-0.004169445019215345
0.08135986328125;-0.1602325439453125;-1.0078277587890625;-0.05324564501643181;0.001558748190291226;-0.004169445019215345
0.08135986328125;-0.1602325439453125;-1.0078277587890625;-0.05324564501643181;0.001558748190291226;-0.004169445019215345
0.08135986328125;-0.1602325439453125;-1.0078277587890625;-0.05324564501643181;0.001558748190291226;-0.004169445019215345
0.0794219970703125;-0.1592864990234375;-1.007049560546875;-0.05155347287654877;-0.0072989254258573055;-0.003584614722058177
0.0794219970703125;-0.1592864990234375;-1.007049560546875;-0.05155347287654877;-0.0072989254258573055;-0.003584614722058177
0.0794219970703125;-0.1592864990234375;-1.007049560546875;-0.05155347287654877;-0.0072989254258573055;-0.003584614722058177
0.0794219970703125;-0.1592864990234375;-1.007049560546875;-0.05155347287654877;-0.0072989254258573055;-0.003584614722058177
0.0794219970703125;-0.1592864990234375;-1.007049560546875;-0.05155347287654877;-0.0072989254258573055;-0.003584614722058177
0.0775299072265625;-0.1566619873046875;-1.00531005859375;-0.04897553101181984;-0.016034627333283424;-0.0065684206783771515
0.0775299072265625;-0.1566619873046875;-1.00531005859375;-0.04897553101181984;-0.016034627333283424;-0.0065684206783771515
0.0775299072265625;-0.1566619873046875;-1.00531005859375;-0.04897553101181984;-0.016034627333283424;-0.0065684206783771515
0.0775299072265625;-0.1566619873046875;-1.00531005859375;-0.04897553101181984;-0.016034627333283424;-0.0065684206783771515
0.0775299072265625;-0.1566619873046875;-1.00531005859375;-0.04897553101181984;-0.016034627333283424;-0.0065684206783771515
0.0767822265625;-0.1540679931640625;-1.0039215087890625;-0.04381539300084114;-0.015994412824511528;-0.007032609544694424
0.0767822265625;-0.1540679931640625;-1.0039215087890625;-0.04381539300084114;-0.015994412824511528;-0.007032609544694424
0.0767822265625;-0.1540679931640625;-1.0039215087890625;-0.04381539300084114;-0.015994412824511528;-0.007032609544694424
0.0767822265625;-0.1540679931640625;-1.0039215087890625;-0.04381539300084114;-0.015994412824511528;-0.007032609544694424
0.0767822265625;-0.1540679931640625;-1.0039215087890625;-0.04381539300084114;-0.015994412824511528;-0.007032609544694424
0.07781982421875;-0.152252197265625;-1.002532958984375;-0.03786801919341087;-0.011782357469201088;-0.008058459497988224
0.07781982421875;-0.152252197265625;-1.002532958984375;-0.03786801919341087;-0.011782357469201088;-0.008058459497988224
0.07781982421875;-0.152252197265625;-1.002532958984375;-0.03786801919341087;-0.011782357469201088;-0.008058459497988224
0.07781982421875;-0.152252197265625;-1.002532958984375;-0.03786801919341087;-0.011782357469201088;-0.008058459497988224
0.07781982421875;-0.152252197265625;-1.002532958984375;-0.03786801919341087;-0.011782357469201088;-0.008058459497988224
0.0789947509765625;-0.150115966796875;-1.003204345703125;-0.033356357365846634;-0.004147074185311794;-0.0059572248719632626
0.0789947509765625;-0.150115966796875;-1.003204345703125;-0.033356357365846634;-0.004147074185311794;-0.0059572248719632626
0.0789947509765625;-0.150115966796875;-1.003204345703125;-0.033356357365846634;-0.004147074185311794;-0.0059572248719632626
0.0789947509765625;-0.150115966796875;-1.003204345703125;-0.033356357365846634;-0.004147074185311794;-0.0059572248719632626
0.0789947509765625;-0.150115966796875;-1.003204345703125;-0.033356357365846634;-0.004147074185311794;-0.0059572248719632626
0.079254150390625;-0.1505279541015625;-1.002685546875;-0.02833416871726513;-0.001270061475224793;-0.00038296254933811724
0.079254150390625;-0.1505279541015625;-1.002685546875;-0.02833416871726513;-0.001270061475224793;-0.00038296254933811724
0.079254150390625;-0.1505279541015625;-1.002685546875;-0.02833416871726513;-0.001270061475224793;-0.00038296254933811724
0.079254150390625;-0.1505279541015625;-1.002685546875;-0.02833416871726513;-0.001270061475224793;-0.00038296254933811724
0.079254150390625;-0.1505279541015625;-1.002685546875;-0.02833416871726513;-0.001270061475224793;-0.00038296254933811724
0.0793304443359375;-0.1495513916015625;-1.0025482177734375;-0.028554679825901985;0.0006106628570705652;-0.0008980178972706199
0.0793304443359375;-0.1495513916015625;-1.0025482177734375;-0.028554679825901985;0.0006106628570705652;-0.0008980178972706199
0.0793304443359375;-0.1495513916015625;-1.0025482177734375;-0.028554679825901985;0.0006106628570705652;-0.0008980178972706199
0.0793304443359375;-0.1495513916015625;-1.0025482177734375;-0.028554679825901985;0.0006106628570705652;-0.0008980178972706199
0.0793304443359375;-0.1495513916015625;-1.0025482177734375;-0.028554679825901985;0.0006106628570705652;-0.0008980178972706199
0.0786590576171875;-0.149261474609375;-1.002471923828125;-0.02676902897655964;0.0014476943761110306;-0.00045593318645842373
0.0786590576171875;-0.149261474609375;-1.002471923828125;-0.02676902897655964;0.0014476943761110306;-0.00045593318645842373
0.0786590576171875;-0.149261474609375;-1.002471923828125;-0.02676902897655964;0.0014476943761110306;-0.00045593318645842373
0.0786590576171875;-0.149261474609375;-1.002471923828125;-0.02676902897655964;0.0014476943761110306;-0.00045593318645842373
0.0786590576171875;-0.149261474609375;-1.002471923828125;-0.02676902897655964;0.0014476943761110306;-0.00045593318645842373
0.07763671875;-0.1500244140625;-1.0029449462890625;-0.025005217641592026;-0.003623230615630746;-0.004034156445413828
0.07763671875;-0.1500244140625;-1.0029449462890625;-0.025005217641592026;-0.003623230615630746;-0.004034156445413828
0.07763671875;-0.1500244140625;-1.0029449462890625;-0.025005217641592026;-0.003623230615630746;-0.004034156445413828
0.07763671875;-0.1500244140625;-1.0029449462890625;-0.025005217641592026;-0.003623230615630746;-0.004034156445413828
0.07763671875;-0.1500244140625;-1.0029449462890625;-0.025005217641592026;-0.003623230615630746;-0.004034156445413828
0.0770263671875;-0.1504058837890625;-1.0043182373046875;-0.021628595888614655;-0.011413775384426117;-0.002118544653058052
0.0770263671875;-0.1504058837890625;-1.0043182373046875;-0.021628595888614655;-0.011413775384426117;-0.002118544653058052
0.0770263671875;-0.1504058837890625;-1.0043182373046875;-0.021628595888614655;-0.011413775384426117;-0.002118544653058052
0.0770263671875;-0.1504058837890625;-1.0043182373046875;-0.021628595888614655;-0.011413775384426117;-0.002118544653058052
0.0770263671875;-0.1504058837890625;-1.0043182373046875;-0.021628595888614655;-0.011413775384426117;-0.002118544653058052
0.076263427734375;-0.151641845703125;-1.004058837890625;-0.018702315166592598;-0.012869992293417454;-0.0008053398923948407
0.076263427734375;-0.151641845703125;-1.004058837890625;-0.018702315166592598;-0.012869992293417454;-0.0008053398923948407
0.076263427734375;-0.151641845703125;-1.004058837890625;-0.018702315166592598;-0.012869992293417454;-0.0008053398923948407
0.076263427734375;-0.151641845703125;-1.004058837890625;-0.018702315166592598;-0.012869992293417454;-0.0008053398923948407
0.076263427734375;-0.151641845703125;-1.004058837890625;-0.018702315166592598;-0.012869992293417454;-0.0008053398923948407
0.0777435302734375;-0.1529693603515625;-1.0028839111328125;-0.01625060848891735;-0.01203802041709423;-0.0005320995696820319
0.0777435302734375;-0.1529693603515625;-1.0028839111328125;-0.01625060848891735;-0.01203802041709423;-0.0005320995696820319
0.0777435302734375;-0.1529693603515625;-1.0028839111328125;-0.01625060848891735;-0.01203802041709423;-0.0005320995696820319
0.0777435302734375;-0.1529693603515625;-1.0028839111328125;-0.01625060848891735;-0.01203802041709423;-0.0005320995696820319
0.0777435302734375;-0.1529693603515625;-1.0028839111328125;-0.01625060848891735;-0.01203802041709423;-0.0005320995696820319
0.0771636962890625;-0.153228759765625;-1.001739501953125;-0.014399711973965168;-0.011888884007930756;-0.0023752732668071985
0.0771636962890625;-0.153228759765625;-1.001739501953125;-0.014399711973965168;-0.011888884007930756;-0.0023752732668071985
0.0771636962890625;-0.153228759765625;-1.001739501953125;-0.014399711973965168;-0.011888884007930756;-0.0023752732668071985
0.0771636962890625;-0.153228759765625;-1.001739501953125;-0.014399711973965168;-0.011888884007930756;-0.0023752732668071985
0.0771636962890625;-0.153228759765625;-1.001739501953125;-0.014399711973965168;-0.011888884007930756;-0.0023752732668071985
0.0758209228515625;-0.152435302734375;-1.004608154296875;-0.01785968989133835;-0.020624052733182907;-0.0035510589368641376
0.0758209228515625;-0.152435302734375;-1.004608154296875;-0.01785968989133835;-0.020624052733182907;-0.0035510589368641376
0.0758209228515625;-0.152435302734375;-1.004608154296875;-0.01785968989133835;-0.020624052733182907;-0.0035510589368641376
0.0758209228515625;-0.152435302734375;-1.004608154296875;-0.01785968989133835;-0.020624052733182907;-0.0035510589368641376
0.0758209228515625;-0.152435302734375;-1.004608154296875;-0.01785968989133835;-0.020624052733182907;-0.0035510589368641376
0.076568603515625;-0.153350830078125;-1.0050201416015625;-0.020624851807951927;-0.018088189885020256;-0.001999501371756196
0.076568603515625;-0.153350830078125;-1.0050201416015625;-0.020624851807951927;-0.018088189885020256;-0.001999501371756196
0.076568603515625;-0.153350830078125;-1.0050201416015625;-0.020624851807951927;-0.018088189885020256;-0.001999501371756196
0.076568603515625;-0.153350830078125;-1.0050201416015625;-0.020624851807951927;-0.018088189885020256;-0.001999501371756196
0.076568603515625;-0.153350830078125;-1.0050201416015625;-0.020624851807951927;-0.018088189885020256;-0.001999501371756196
0.0792694091796875;-0.156982421875;-1.0014801025390625;-0.026463830843567848;-0.015515043400228024;0.0006090649403631687
0.0792694091796875;-0.156982421875;-1.0014801025390625;-0.026463830843567848;-0.015515043400228024;0.0006090649403631687
0.0792694091796875;-0.156982421875;-1.0014801025390625;-0.026463830843567848;-0.015515043400228024;0.0006090649403631687
0.0792694091796875;-0.156982421875;-1.0014801025390625;-0.026463830843567848;-0.015515043400228024;0.0006090649403631687
0.0792694091796875;-0.156982421875;-1.0014801025390625;-0.026463830843567848;-0.015515043400228024;0.0006090649403631687
0.0778656005859375;-0.1562957763671875;-0.9983673095703125;-0.03485491871833801;-0.017491376027464867;-0.0007994809420779347
0.0778656005859375;-0.1562957763671875;-0.9983673095703125;-0.03485491871833801;-0.017491376027464867;-0.0007994809420779347
0.0778656005859375;-0.1562957763671875;-0.9983673095703125;-0.03485491871833801;-0.017491376027464867;-0.0007994809420779347
0.0778656005859375;-0.1562957763671875;-0.9983673095703125;-0.03485491871833801;-0.017491376027464867;-0.0007994809420779347
0.0778656005859375;-0.1562957763671875;-0.9983673095703125;-0.03485491871833801;-0.017491376027464867;-0.0007994809420779347
0.075286865234375;-0.150848388671875;-0.9980010986328125;-0.04086034744977951;-0.01980779320001602;-0.004069576505571604
0.075286865234375;-0.150848388671875;-0.9980010986328125;-0.04086034744977951;-0.01980779320001602;-0.004069576505571604
0.075286865234375;-0.150848388671875;-0.9980010986328125;-0.04086034744977951;-0.01980779320001602;-0.004069576505571604
0.075286865234375;-0.150848388671875;-0.9980010986328125;-0.04086034744977951;-0.01980779320001602;-0.004069576505571604
0.075286865234375;-0.150848388671875;-0.9980010986328125;-0.045770950615406036;-0.01829218864440918;-0.008623315952718258
0.073638916015625;-0.1482391357421875;-0.9967041015625;-0.045770950615406036;-0.01829218864440918;-0.008623315952718258
0.073638916015625;-0.1482391357421875;-0.9967041015625;-0.045770950615406036;-0.01829218864440918;-0.008623315952718258
0.073638916015625;-0.1482391357421875;-0.9967041015625;-0.045770950615406036;-0.01829218864440918;-0.008623315952718258
0.073638916015625;-0.1482391357421875;-0.9967041015625;-0.045770950615406036;-0.01829218864440918;-0.008623315952718258
0.073638916015625;-0.1482391357421875;-0.9967041015625;-0.045770950615406036;-0.01829218864440918;-0.008623315952718258
0.07501220703125;-0.148895263671875;-0.995391845703125;-0.04959391802549362;-0.01432034932076931;-0.01013652328401804
0.07501220703125;-0.148895263671875;-0.995391845703125;-0.04959391802549362;-0.01432034932076931;-0.01013652328401804
0.07501220703125;-0.148895263671875;-0.995391845703125;-0.04959391802549362;-0.01432034932076931;-0.01013652328401804
0.07501220703125;-0.148895263671875;-0.995391845703125;-0.04959391802549362;-0.01432034932076931;-0.01013652328401804
0.07501220703125;-0.148895263671875;-0.995391845703125;-0.04959391802549362;-0.01432034932076931;-0.01013652328401804
0.0769805908203125;-0.148712158203125;-0.995758056640625;-0.05227598920464516;-0.013190103694796562;-0.005599562544375658
0.0769805908203125;-0.148712158203125;-0.995758056640625;-0.05227598920464516;-0.013190103694796562;-0.005599562544375658
0.0769805908203125;-0.148712158203125;-0.995758056640625;-0.05227598920464516;-0.013190103694796562;-0.005599562544375658
0.0769805908203125;-0.148712158203125;-0.995758056640625;-0.05227598920464516;-0.013190103694796562;-0.005599562544375658
0.078582763671875;-0.148040771484375;-0.99700927734375;-0.04701198264956474;-0.0075884112156927586;-0.004716724622994661
0.078582763671875;-0.148040771484375;-0.99700927734375;-0.04701198264956474;-0.0075884112156927586;-0.004716724622994661
0.078582763671875;-0.148040771484375;-0.99700927734375;-0.04701198264956474;-0.0075884112156927586;-0.004716724622994661
0.078582763671875;-0.148040771484375;-0.99700927734375;-0.04701198264956474;-0.0075884112156927586;-0.004716724622994661
0.078582763671875;-0.148040771484375;-0.99700927734375;-0.04701198264956474;-0.0075884112156927586;-0.004716724622994661
0.0795440673828125;-0.146881103515625;-0.99993896484375;-0.041737060993909836;-0.0046940878964960575;-0.003960653208196163
0.0795440673828125;-0.146881103515625;-0.99993896484375;-0.041737060993909836;-0.0046940878964960575;-0.003960653208196163
0.0795440673828125;-0.146881103515625;-0.99993896484375;-0.041737060993909836;-0.0046940878964960575;-0.003960653208196163
0.0795440673828125;-0.146881103515625;-0.99993896484375;-0.041737060993909836;-0.0046940878964960575;-0.003960653208196163
0.0795440673828125;-0.146881103515625;-0.99993896484375;-0.041737060993909836;-0.0046940878964960575;-0.003960653208196163
0.0795440673828125;-0.146881103515625;-0.99993896484375;-0.03918442130088806;-0.00541340745985508;-0.004734035115689039
0.0797119140625;-0.14703369140625;-1.0023345947265625;-0.03918442130088806;-0.00541340745985508;-0.004734035115689039
0.0797119140625;-0.14703369140625;-1.0023345947265625;-0.03918442130088806;-0.00541340745985508;-0.004734035115689039
0.0797119140625;-0.14703369140625;-1.0023345947265625;-0.03918442130088806;-0.00541340745985508;-0.004734035115689039
0.0797119140625;-0.14703369140625;-1.0023345947265625;-0.03918442130088806;-0.00541340745985508;-0.004734035115689039
0.0797119140625;-0.14703369140625;-1.0023345947265625;-0.03548156097531319;-0.0017062872648239136;-0.00336170825175941
0.0793609619140625;-0.148101806640625;-1.00384521484375;-0.03548156097531319;-0.0017062872648239136;-0.00336170825175941
0.0793609619140625;-0.148101806640625;-1.00384521484375;-0.03548156097531319;-0.0017062872648239136;-0.00336170825175941
0.0793609619140625;-0.148101806640625;-1.00384521484375;-0.03548156097531319;-0.0017062872648239136;-0.00336170825175941
0.0793609619140625;-0.148101806640625;-1.00384521484375;-0.03548156097531319;-0.0017062872648239136;-0.00336170825175941
0.079620361328125;-0.147705078125;-1.0062713623046875;-0.0323968231678009;-0.009651562198996544;-0.003626160090789199
0.079620361328125;-0.147705078125;-1.0062713623046875;-0.0323968231678009;-0.009651562198996544;-0.003626160090789199
0.079620361328125;-0.147705078125;-1.0062713623046875;-0.0323968231678009;-0.009651562198996544;-0.003626160090789199
0.079620361328125;-0.147705078125;-1.0062713623046875;-0.0323968231678009;-0.009651562198996544;-0.003626160090789199
0.079620361328125;-0.147705078125;-1.0062713623046875;-0.0323968231678009;-0.009651562198996544;-0.003626160090789199
0.0787353515625;-0.1488494873046875;-1.0070648193359375;-0.03418460115790367;-0.012169048190116882;-0.002558498876169324
0.0787353515625;-0.1488494873046875;-1.0070648193359375;-0.03418460115790367;-0.012169048190116882;-0.002558498876169324
0.0787353515625;-0.1488494873046875;-1.0070648193359375;-0.03418460115790367;-0.012169048190116882;-0.002558498876169324
0.0787353515625;-0.1488494873046875;-1.0070648193359375;-0.03418460115790367;-0.012169048190116882;-0.002558498876169324
0.0787353515625;-0.1488494873046875;-1.0070648193359375;-0.03418460115790367;-0.012169048190116882;-0.002558498876169324
0.0775146484375;-0.1484832763671875;-1.00628662109375;-0.032037027180194855;-0.017353955656290054;-0.003772101365029812
0.0775146484375;-0.1484832763671875;-1.00628662109375;-0.032037027180194855;-0.017353955656290054;-0.003772101365029812
0.0775146484375;-0.1484832763671875;-1.00628662109375;-0.032037027180194855;-0.017353955656290054;-0.003772101365029812
0.0775146484375;-0.1484832763671875;-1.00628662109375;-0.032037027180194855;-0.017353955656290054;-0.003772101365029812
0.0775146484375;-0.1484832763671875;-1.00628662109375;-0.032037027180194855;-0.017353955656290054;-0.003772101365029812
0.0772247314453125;-0.1484222412109375;-1.0052642822265625;-0.0314553938806057;-0.016080966219305992;-0.001064731739461422
0.0772247314453125;-0.1484222412109375;-1.0052642822265625;-0.0314553938806057;-0.016080966219305992;-0.001064731739461422
0.0772247314453125;-0.1484222412109375;-1.0052642822265625;-0.0314553938806057;-0.016080966219305992;-0.001064731739461422
0.0772247314453125;-0.1484222412109375;-1.0052642822265625;-0.0314553938806057;-0.016080966219305992;-0.001064731739461422
0.0772247314453125;-0.1484222412109375;-1.0052642822265625;-0.0314553938806057;-0.016080966219305992;-0.001064731739461422
0.0781707763671875;-0.1475677490234375;-1.0045318603515625;-0.031142206862568855;-0.00965875294059515;-0.0020042951218783855
0.0781707763671875;-0.1475677490234375;-1.0045318603515625;-0.031142206862568855;-0.00965875294059515;-0.0020042951218783855
0.0781707763671875;-0.1475677490234375;-1.0045318603515625;-0.031142206862568855;-0.00965875294059515;-0.0020042951218783855
0.0781707763671875;-0.1475677490234375;-1.0045318603515625;-0.031142206862568855;-0.00965875294059515;-0.0020042951218783855
0.0781707763671875;-0.1475677490234375;-1.0045318603515625;-0.031142206862568855;-0.00965875294059515;-0.0020042951218783855
0.07818603515625;-0.146820068359375;-1.0045013427734375;-0.02629578672349453;-0.006866161711513996;-0.0005328985280357301
0.07818603515625;-0.146820068359375;-1.0045013427734375;-0.02629578672349453;-0.006866161711513996;-0.0005328985280357301
0.07818603515625;-0.146820068359375;-1.0045013427734375;-0.02629578672349453;-0.006866161711513996;-0.0005328985280357301
0.07818603515625;-0.146820068359375;-1.0045013427734375;-0.02629578672349453;-0.006866161711513996;-0.0005328985280357301
0.07818603515625;-0.146820068359375;-1.0045013427734375;-0.02629578672349453;-0.006866161711513996;-0.0005328985280357301
0.0790557861328125;-0.1455535888671875;-1.0025177001953125;-0.027336815372109413;-0.001981391804292798;-0.0011206581257283688
0.0790557861328125;-0.1455535888671875;-1.0025177001953125;-0.027336815372109413;-0.001981391804292798;-0.0011206581257283688
0.0790557861328125;-0.1455535888671875;-1.0025177001953125;-0.027336815372109413;-0.001981391804292798;-0.0011206581257283688
0.0790557861328125;-0.1455535888671875;-1.0025177001953125;-0.027336815372109413;-0.001981391804292798;-0.0011206581257283688
0.0790557861328125;-0.1455535888671875;-1.0025177001953125;-0.027336815372109413;-0.001981391804292798;-0.0011206581257283688
0.0803375244140625;-0.14434814453125;-1.0024871826171875;-0.02677355706691742;-0.0034200313966721296;-0.004012051969766617
0.0803375244140625;-0.14434814453125;-1.0024871826171875;-0.02677355706691742;-0.0034200313966721296;-0.004012051969766617
0.0803375244140625;-0.14434814453125;-1.0024871826171875;-0.02677355706691742;-0.0034200313966721296;-0.004012051969766617
0.0803375244140625;-0.14434814453125;-1.0024871826171875;-0.02677355706691742;-0.0034200313966721296;-0.004012051969766617
0.0803375244140625;-0.14434814453125;-1.0024871826171875;-0.02677355706691742;-0.0034200313966721296;-0.004012051969766617
0.08001708984375;-0.141998291015625;-1.0029296875;-0.025103488937020302;-0.0034549187403172255;-0.0028184233233332634
0.08001708984375;-0.141998291015625;-1.0029296875;-0.025103488937020302;-0.0034549187403172255;-0.0028184233233332634
0.08001708984375;-0.141998291015625;-1.0029296875;-0.025103488937020302;-0.0034549187403172255;-0.0028184233233332634
0.08001708984375;-0.141998291015625;-1.0029296875;-0.025103488937020302;-0.0034549187403172255;-0.0028184233233332634
0.08001708984375;-0.141998291015625;-1.0029296875;-0.025103488937020302;-0.0034549187403172255;-0.0028184233233332634
0.0791778564453125;-0.1416015625;-1.0030364990234375;-0.025370337069034576;-0.003005377249792218;-0.004178766161203384
0.0791778564453125;-0.1416015625;-1.0030364990234375;-0.025370337069034576;-0.003005377249792218;-0.004178766161203384
0.0791778564453125;-0.1416015625;-1.0030364990234375;-0.025370337069034576;-0.003005377249792218;-0.004178766161203384
0.0791778564453125;-0.1416015625;-1.0030364990234375;-0.025370337069034576;-0.003005377249792218;-0.004178766161203384
0.0791778564453125;-0.1416015625;-1.0030364990234375;-0.025370337069034576;-0.003005377249792218;-0.004178766161203384
0.079071044921875;-0.1408233642578125;-1.0038604736328125;-0.020298346877098083;-0.006625944748520851;-0.0015611450653523207
0.079071044921875;-0.1408233642578125;-1.0038604736328125;-0.020298346877098083;-0.006625944748520851;-0.0015611450653523207
0.079071044921875;-0.1408233642578125;-1.0038604736328125;-0.020298346877098083;-0.006625944748520851;-0.0015611450653523207
0.079071044921875;-0.1408233642578125;-1.0038604736328125;-0.020298346877098083;-0.006625944748520851;-0.0015611450653523207
0.079071044921875;-0.1408233642578125;-1.0038604736328125;-0.020298346877098083;-0.006625944748520851;-0.0015611450653523207
0.078857421875;-0.1417999267578125;-1.0050201416015625;-0.01745515689253807;-0.008363391272723675;-0.0030834078788757324
0.078857421875;-0.1417999267578125;-1.0050201416015625;-0.01745515689253807;-0.008363391272723675;-0.0030834078788757324
0.078857421875;-0.1417999267578125;-1.0050201416015625;-0.01745515689253807;-0.008363391272723675;-0.0030834078788757324
0.078857421875;-0.1417999267578125;-1.0050201416015625;-0.01745515689253807;-0.008363391272723675;-0.0030834078788757324
0.078857421875;-0.1417999267578125;-1.0050201416015625;-0.01745515689253807;-0.008363391272723675;-0.0030834078788757324
0.077728271484375;-0.14190673828125;-1.004608154296875;-0.011413775384426117;-0.010735202580690384;-0.0030394657514989376
0.077728271484375;-0.14190673828125;-1.004608154296875;-0.011413775384426117;-0.010735202580690384;-0.0030394657514989376
0.077728271484375;-0.14190673828125;-1.004608154296875;-0.011413775384426117;-0.010735202580690384;-0.0030394657514989376
0.077728271484375;-0.14190673828125;-1.004608154296875;-0.011413775384426117;-0.010735202580690384;-0.0030394657514989376
0.077728271484375;-0.14190673828125;-1.004608154296875;-0.011413775384426117;-0.010735202580690384;-0.0030394657514989376
0.077239990234375;-0.1406707763671875;-1.004974365234375;-0.004841094370931387;-0.011385546065866947;-0.00301762786693871
0.077239990234375;-0.1406707763671875;-1.004974365234375;-0.004841094370931387;-0.011385546065866947;-0.00301762786693871
0.077239990234375;-0.1406707763671875;-1.004974365234375;-0.004841094370931387;-0.011385546065866947;-0.00301762786693871
0.077239990234375;-0.1406707763671875;-1.004974365234375;-0.004841094370931387;-0.011385546065866947;-0.00301762786693871
0.077239990234375;-0.1406707763671875;-1.004974365234375;-0.004841094370931387;-0.011385546065866947;-0.00301762786693871
0.0762176513671875;-0.140228271484375;-1.0048980712890625;0.0003094593121204525;-0.01516031101346016;-0.001008272753097117
0.0762176513671875;-0.140228271484375;-1.0048980712890625;0.0003094593121204525;-0.01516031101346016;-0.001008272753097117
0.0762176513671875;-0.140228271484375;-1.0048980712890625;0.0003094593121204525;-0.01516031101346016;-0.001008272753097117
0.0762176513671875;-0.140228271484375;-1.0048980712890625;0.0003094593121204525;-0.01516031101346016;-0.001008272753097117
0.0762176513671875;-0.140228271484375;-1.0048980712890625;0.0003094593121204525;-0.01516031101346016;-0.001008272753097117
0.0767974853515625;-0.1420745849609375;-1.0042724609375;0.0032863407395780087;-0.013864150270819664;0.001847967505455017
0.0767974853515625;-0.1420745849609375;-1.0042724609375;0.0032863407395780087;-0.013864150270819664;0.001847967505455017
0.0767974853515625;-0.1420745849609375;-1.0042724609375;0.0032863407395780087;-0.013864150270819664;0.001847967505455017
0.0767974853515625;-0.1420745849609375;-1.0042724609375;0.0032863407395780087;-0.013864150270819664;0.001847967505455017
0.0767974853515625;-0.1420745849609375;-1.0042724609375;0.0032863407395780087;-0.013864150270819664;0.001847967505455017
0.0758819580078125;-0.1431121826171875;-1.0034332275390625;0.004983573220670223;-0.01618216559290886;-0.0010396981379017234
0.0758819580078125;-0.1431121826171875;-1.0034332275390625;0.004983573220670223;-0.01618216559290886;-0.0010396981379017234
0.0758819580078125;-0.1431121826171875;-1.0034332275390625;0.004983573220670223;-0.01618216559290886;-0.0010396981379017234
0.0758819580078125;-0.1431121826171875;-1.0034332275390625;0.004983573220670223;-0.01618216559290886;-0.0010396981379017234
0.0758819580078125;-0.1431121826171875;-1.0034332275390625;0.004983573220670223;-0.01618216559290886;-0.0010396981379017234
0.0742950439453125;-0.1432952880859375;-1.001678466796875;0.003931358456611633;-0.019415508955717087;-0.0004942826926708221
0.0742950439453125;-0.1432952880859375;-1.001678466796875;0.003931358456611633;-0.019415508955717087;-0.0004942826926708221
0.0742950439453125;-0.1432952880859375;-1.001678466796875;0.003931358456611633;-0.019415508955717087;-0.0004942826926708221
0.0742950439453125;-0.1432952880859375;-1.001678466796875;0.003931358456611633;-0.019415508955717087;-0.0004942826926708221
0.0742950439453125;-0.1432952880859375;-1.001678466796875;0.003931358456611633;-0.019415508955717087;-0.0004942826926708221
0.074981689453125;-0.1438751220703125;-0.9976959228515625;0.005654689855873585;-0.020784107968211174;-0.0008862999966368079
0.074981689453125;-0.1438751220703125;-0.9976959228515625;0.005654689855873585;-0.020784107968211174;-0.0008862999966368079
0.074981689453125;-0.1438751220703125;-0.9976959228515625;0.005654689855873585;-0.020784107968211174;-0.0008862999966368079
0.074981689453125;-0.1438751220703125;-0.9976959228515625;0.005654689855873585;-0.020784107968211174;-0.0008862999966368079
0.074981689453125;-0.1438751220703125;-0.9976959228515625;0.005654689855873585;-0.020784107968211174;-0.0008862999966368079
0.074798583984375;-0.1443023681640625;-0.9942779541015625;0.005376656074076891;-0.011551194824278355;0.0018985675415024161
0.074798583984375;-0.1443023681640625;-0.9942779541015625;0.005376656074076891;-0.011551194824278355;0.0018985675415024161
0.074798583984375;-0.1443023681640625;-0.9942779541015625;0.005376656074076891;-0.011551194824278355;0.0018985675415024161
0.074798583984375;-0.1443023681640625;-0.9942779541015625;0.005376656074076891;-0.011551194824278355;0.0018985675415024161
0.074798583984375;-0.1443023681640625;-0.9942779541015625;0.005376656074076891;-0.011551194824278355;0.0018985675415024161
0.075714111328125;-0.14337158203125;-0.9929656982421875;0.0029356025625020266;-0.007866444997489452;0.0015933692920953035
0.075714111328125;-0.14337158203125;-0.9929656982421875;0.0029356025625020266;-0.007866444997489452;0.0015933692920953035
0.075714111328125;-0.14337158203125;-0.9929656982421875;0.0029356025625020266;-0.007866444997489452;0.0015933692920953035
0.075714111328125;-0.14337158203125;-0.9929656982421875;0.0029356025625020266;-0.007866444997489452;0.0015933692920953035
0.075714111328125;-0.14337158203125;-0.9929656982421875;0.0029356025625020266;-0.007866444997489452;0.0015933692920953035
0.0751495361328125;-0.141754150390625;-0.9937286376953125;0.007991880178451538;-0.006613161414861679;0.0013100089272484183
0.0751495361328125;-0.141754150390625;-0.9937286376953125;0.007991880178451538;-0.006613161414861679;0.0013100089272484183
0.0751495361328125;-0.141754150390625;-0.9937286376953125;0.007991880178451538;-0.006613161414861679;0.0013100089272484183
0.0751495361328125;-0.141754150390625;-0.9937286376953125;0.007991880178451538;-0.006613161414861679;0.0013100089272484183
0.0751495361328125;-0.141754150390625;-0.9937286376953125;0.007991880178451538;-0.006613161414861679;0.0013100089272484183
0.0737457275390625;-0.1393280029296875;-0.997161865234375;0.021148428320884705;-0.006774283014237881;0.002028263406828046
0.0737457275390625;-0.1393280029296875;-0.997161865234375;0.021148428320884705;-0.006774283014237881;0.002028263406828046
0.0737457275390625;-0.1393280029296875;-0.997161865234375;0.021148428320884705;-0.006774283014237881;0.002028263406828046
0.0737457275390625;-0.1393280029296875;-0.997161865234375;0.021148428320884705;-0.006774283014237881;0.002028263406828046
0.0737457275390625;-0.1393280029296875;-0.997161865234375;0.021148428320884705;-0.006774283014237881;0.002028263406828046
0.0731964111328125;-0.1378326416015625;-1.0030975341796875;0.03622538223862648;-0.007509581744670868;-0.0017113472567871213
0.0731964111328125;-0.1378326416015625;-1.0030975341796875;0.03622538223862648;-0.007509581744670868;-0.0017113472567871213
0.0731964111328125;-0.1378326416015625;-1.0030975341796875;0.03622538223862648;-0.007509581744670868;-0.0017113472567871213
0.0731964111328125;-0.1378326416015625;-1.0030975341796875;0.03622538223862648;-0.007509581744670868;-0.0017113472567871213
0.0731964111328125;-0.1378326416015625;-1.0030975341796875;0.03622538223862648;-0.007509581744670868;-0.0017113472567871213
0.073486328125;-0.138641357421875;-1.00714111328125;0.04954145476222038;-0.003368099918588996;0.0012799152173101902
0.073486328125;-0.138641357421875;-1.00714111328125;0.04954145476222038;-0.003368099918588996;0.0012799152173101902
0.073486328125;-0.138641357421875;-1.00714111328125;0.04954145476222038;-0.003368099918588996;0.0012799152173101902
0.073486328125;-0.138641357421875;-1.00714111328125;0.04954145476222038;-0.003368099918588996;0.0012799152173101902
0.073486328125;-0.138641357421875;-1.00714111328125;0.04954145476222038;-0.003368099918588996;0.0012799152173101902
0.0734100341796875;-0.140625;-1.0074310302734375;0.06512174755334854;-0.0010362359462305903;0.006964698899537325
0.0734100341796875;-0.140625;-1.0074310302734375;0.06512174755334854;-0.0010362359462305903;0.006964698899537325
0.0734100341796875;-0.140625;-1.0074310302734375;0.06512174755334854;-0.0010362359462305903;0.006964698899537325
0.0734100341796875;-0.140625;-1.0074310302734375;0.06512174755334854;-0.0010362359462305903;0.006964698899537325
0.0734100341796875;-0.140625;-1.0074310302734375;0.06512174755334854;-0.0010362359462305903;0.006964698899537325
0.073638916015625;-0.141265869140625;-1.006500244140625;0.07212452590465546;-0.0012351741315796971;0.008565524592995644
0.073638916015625;-0.141265869140625;-1.006500244140625;0.07212452590465546;-0.0012351741315796971;0.008565524592995644
0.073638916015625;-0.141265869140625;-1.006500244140625;0.07212452590465546;-0.0012351741315796971;0.008565524592995644
0.073638916015625;-0.141265869140625;-1.006500244140625;0.07212452590465546;-0.0012351741315796971;0.008565524592995644
0.073638916015625;-0.141265869140625;-1.006500244140625;0.07212452590465546;-0.0012351741315796971;0.008565524592995644
0.0750885009765625;-0.143829345703125;-1.00299072265625;0.06891515105962753;0.004266117699444294;0.01563621684908867
0.0750885009765625;-0.143829345703125;-1.00299072265625;0.06891515105962753;0.004266117699444294;0.01563621684908867
0.0750885009765625;-0.143829345703125;-1.00299072265625;0.06891515105962753;0.004266117699444294;0.01563621684908867
0.0750885009765625;-0.143829345703125;-1.00299072265625;0.06891515105962753;0.004266117699444294;0.01563621684908867
0.0750885009765625;-0.143829345703125;-1.00299072265625;0.06891515105962753;0.004266117699444294;0.01563621684908867
0.076019287109375;-0.1473846435546875;-0.9954833984375;0.06023777276277542;0.008932508528232574;0.01347426325082779
0.076019287109375;-0.1473846435546875;-0.9954833984375;0.06023777276277542;0.008932508528232574;0.01347426325082779
0.076019287109375;-0.1473846435546875;-0.9954833984375;0.06023777276277542;0.008932508528232574;0.01347426325082779
0.076019287109375;-0.1473846435546875;-0.9954833984375;0.06023777276277542;0.008932508528232574;0.01347426325082779
0.076019287109375;-0.1473846435546875;-0.9954833984375;0.06023777276277542;0.008932508528232574;0.01347426325082779
0.075439453125;-0.1474609375;-0.98931884765625;0.04470302164554596;0.008599613793194294;0.014155765995383263
0.075439453125;-0.1474609375;-0.98931884765625;0.04470302164554596;0.008599613793194294;0.014155765995383263
0.075439453125;-0.1474609375;-0.98931884765625;0.04470302164554596;0.008599613793194294;0.014155765995383263
0.075439453125;-0.1474609375;-0.98931884765625;0.04470302164554596;0.008599613793194294;0.014155765995383263
0.075439453125;-0.1474609375;-0.98931884765625;0.04470302164554596;0.008599613793194294;0.014155765995383263
0.077972412109375;-0.1476898193359375;-0.9855194091796875;0.02696503885090351;0.0032775523141026497;0.016637565568089485
0.077972412109375;-0.1476898193359375;-0.9855194091796875;0.02696503885090351;0.0032775523141026497;0.016637565568089485
0.077972412109375;-0.1476898193359375;-0.9855194091796875;0.02696503885090351;0.0032775523141026497;0.016637565568089485
0.077972412109375;-0.1476898193359375;-0.9855194091796875;0.02696503885090351;0.0032775523141026497;0.016637565568089485
0.077972412109375;-0.1476898193359375;-0.9855194091796875;0.02696503885090351;0.0032775523141026497;0.016637565568089485
0.0776214599609375;-0.1450958251953125;-0.990966796875;0.026098445057868958;-0.014267618767917156;0.00938870757818222
0.0776214599609375;-0.1450958251953125;-0.990966796875;0.026098445057868958;-0.014267618767917156;0.00938870757818222
0.0776214599609375;-0.1450958251953125;-0.990966796875;0.026098445057868958;-0.014267618767917156;0.00938870757818222
0.0776214599609375;-0.1450958251953125;-0.990966796875;0.026098445057868958;-0.014267618767917156;0.00938870757818222
0.0776214599609375;-0.1450958251953125;-0.990966796875;0.026098445057868958;-0.014267618767917156;0.00938870757818222
0.073333740234375;-0.1399688720703125;-1.0052490234375;0.032341159880161285;-0.03145299851894379;8.468852320220321e-05
0.073333740234375;-0.1399688720703125;-1.0052490234375;0.032341159880161285;-0.03145299851894379;8.468852320220321e-05
0.073333740234375;-0.1399688720703125;-1.0052490234375;0.032341159880161285;-0.03145299851894379;8.468852320220321e-05
0.073333740234375;-0.1399688720703125;-1.0052490234375;0.032341159880161285;-0.03145299851894379;8.468852320220321e-05
0.073333740234375;-0.1399688720703125;-1.0052490234375;0.032341159880161285;-0.03145299851894379;8.468852320220321e-05
0.073333740234375;-0.1428680419921875;-1.014007568359375;0.03600247576832771;-0.057731207460165024;-0.002555036684498191
0.073333740234375;-0.1428680419921875;-1.014007568359375;0.03600247576832771;-0.057731207460165024;-0.002555036684498191
0.073333740234375;-0.1428680419921875;-1.014007568359375;0.03600247576832771;-0.057731207460165024;-0.002555036684498191
0.073333740234375;-0.1428680419921875;-1.014007568359375;0.03600247576832771;-0.057731207460165024;-0.002555036684498191
0.073516845703125;-0.14862060546875;-1.0106964111328125;0.03533615171909332;-0.06287457048892975;-0.0016405072528868914
0.073516845703125;-0.14862060546875;-1.0106964111328125;0.03533615171909332;-0.06287457048892975;-0.0016405072528868914
0.073516845703125;-0.14862060546875;-1.0106964111328125;0.03533615171909332;-0.06287457048892975;-0.0016405072528868914
0.073516845703125;-0.14862060546875;-1.0106964111328125;0.03533615171909332;-0.06287457048892975;-0.0016405072528868914
0.0738372802734375;-0.152862548828125;-0.9989166259765625;0.031556595116853714;-0.05038301274180412;0.00019494339358061552
0.0738372802734375;-0.152862548828125;-0.9989166259765625;0.031556595116853714;-0.05038301274180412;0.00019494339358061552
0.0738372802734375;-0.152862548828125;-0.9989166259765625;0.031556595116853714;-0.05038301274180412;0.00019494339358061552
0.0738372802734375;-0.152862548828125;-0.9989166259765625;0.031556595116853714;-0.05038301274180412;0.00019494339358061552
0.0738372802734375;-0.152862548828125;-0.9989166259765625;0.031556595116853714;-0.05038301274180412;0.00019494339358061552
0.0738372802734375;-0.152862548828125;-0.9989166259765625;0.031556595116853714;-0.05038301274180412;0.00019494339358061552
0.071929931640625;-0.1529388427734375;-0.9911346435546875;0.028235899284482002;-0.024817731231451035;0.0006034722900949419
0.071929931640625;-0.1529388427734375;-0.9911346435546875;0.028235899284482002;-0.024817731231451035;0.0006034722900949419
0.071929931640625;-0.1529388427734375;-0.9911346435546875;0.028235899284482002;-0.024817731231451035;0.0006034722900949419
0.071929931640625;-0.1529388427734375;-0.9911346435546875;0.028235899284482002;-0.024817731231451035;0.0006034722900949419
0.0701446533203125;-0.15313720703125;-0.9884185791015625;0.022997993975877762;0.008656338788568974;-0.00013768543431069702
0.0701446533203125;-0.15313720703125;-0.9884185791015625;0.022997993975877762;0.008656338788568974;-0.00013768543431069702
0.0701446533203125;-0.15313720703125;-0.9884185791015625;0.022997993975877762;0.008656338788568974;-0.00013768543431069702
0.0701446533203125;-0.15313720703125;-0.9884185791015625;0.022997993975877762;0.008656338788568974;-0.00013768543431069702
0.0701446533203125;-0.15313720703125;-0.9884185791015625;0.022997993975877762;0.008656338788568974;-0.00013768543431069702
0.0701446533203125;-0.15313720703125;-0.9884185791015625;0.017009876668453217;0.043899014592170715;-0.0009528790251351893
0.0716400146484375;-0.152496337890625;-0.9875335693359375;0.017009876668453217;0.043899014592170715;-0.0009528790251351893
0.0716400146484375;-0.152496337890625;-0.9875335693359375;0.017009876668453217;0.043899014592170715;-0.0009528790251351893
0.0716400146484375;-0.152496337890625;-0.9875335693359375;0.017009876668453217;0.043899014592170715;-0.0009528790251351893
0.0716400146484375;-0.152496337890625;-0.9875335693359375;0.017009876668453217;0.043899014592170715;-0.0009528790251351893
0.0716400146484375;-0.152496337890625;-0.9875335693359375;0.01630094274878502;0.06426341086626053;0.005140167195349932
0.076904296875;-0.150299072265625;-0.992218017578125;0.01630094274878502;0.06426341086626053;0.005140167195349932
0.076904296875;-0.150299072265625;-0.992218017578125;0.01630094274878502;0.06426341086626053;0.005140167195349932
0.076904296875;-0.150299072265625;-0.992218017578125;0.01630094274878502;0.06426341086626053;0.005140167195349932
0.076904296875;-0.150299072265625;-0.992218017578125;0.01630094274878502;0.06426341086626053;0.005140167195349932
0.076904296875;-0.150299072265625;-0.992218017578125;0.020860275253653526;0.06478671729564667;0.011723235249519348
0.08233642578125;-0.1507568359375;-0.999053955078125;0.020860275253653526;0.06478671729564667;0.011723235249519348
0.08233642578125;-0.1507568359375;-0.999053955078125;0.020860275253653526;0.06478671729564667;0.011723235249519348
0.08233642578125;-0.1507568359375;-0.999053955078125;0.020860275253653526;0.06478671729564667;0.011723235249519348
0.08233642578125;-0.1507568359375;-0.999053955078125;0.020860275253653526;0.06478671729564667;0.011723235249519348
0.0849609375;-0.150909423828125;-1.0067596435546875;0.030308904126286507;0.0517987497150898;0.012998090125620365
0.0849609375;-0.150909423828125;-1.0067596435546875;0.030308904126286507;0.0517987497150898;0.012998090125620365
0.0849609375;-0.150909423828125;-1.0067596435546875;0.030308904126286507;0.0517987497150898;0.012998090125620365
0.0849609375;-0.150909423828125;-1.0067596435546875;0.030308904126286507;0.0517987497150898;0.012998090125620365
0.0849609375;-0.150909423828125;-1.0067596435546875;0.030308904126286507;0.0517987497150898;0.012998090125620365
0.084228515625;-0.149688720703125;-1.0121307373046875;0.044522725045681;0.030961377546191216;0.010906177572906017
0.084228515625;-0.149688720703125;-1.0121307373046875;0.044522725045681;0.030961377546191216;0.010906177572906017
0.084228515625;-0.149688720703125;-1.0121307373046875;0.044522725045681;0.030961377546191216;0.010906177572906017
0.084228515625;-0.149688720703125;-1.0121307373046875;0.044522725045681;0.030961377546191216;0.010906177572906017
0.084228515625;-0.149688720703125;-1.0121307373046875;0.044522725045681;0.030961377546191216;0.010906177572906017
0.0805511474609375;-0.148101806640625;-1.013641357421875;0.05739405006170273;0.009795106016099453;0.01296506728976965
0.0805511474609375;-0.148101806640625;-1.013641357421875;0.05739405006170273;0.009795106016099453;0.01296506728976965
0.0805511474609375;-0.148101806640625;-1.013641357421875;0.05739405006170273;0.009795106016099453;0.01296506728976965
0.0805511474609375;-0.148101806640625;-1.013641357421875;0.05739405006170273;0.009795106016099453;0.01296506728976965
0.0805511474609375;-0.148101806640625;-1.013641357421875;0.05739405006170273;0.009795106016099453;0.01296506728976965
0.0769195556640625;-0.14849853515625;-1.01190185546875;0.06899664551019669;-0.0020897823851555586;0.01071016862988472
0.0769195556640625;-0.14849853515625;-1.01190185546875;0.06899664551019669;-0.0020897823851555586;0.01071016862988472
0.0769195556640625;-0.14849853515625;-1.01190185546875;0.06899664551019669;-0.0020897823851555586;0.01071016862988472
0.0769195556640625;-0.14849853515625;-1.01190185546875;0.06899664551019669;-0.0020897823851555586;0.01071016862988472
0.0769195556640625;-0.14849853515625;-1.01190185546875;0.06899664551019669;-0.0020897823851555586;0.01071016862988472
0.0751190185546875;-0.147796630859375;-1.0086517333984375;0.07571686804294586;-0.016143016517162323;0.006589991971850395
0.0751190185546875;-0.147796630859375;-1.0086517333984375;0.07571686804294586;-0.016143016517162323;0.006589991971850395
0.0751190185546875;-0.147796630859375;-1.0086517333984375;0.07571686804294586;-0.016143016517162323;0.006589991971850395
0.0751190185546875;-0.147796630859375;-1.0086517333984375;0.07571686804294586;-0.016143016517162323;0.006589991971850395
0.0751190185546875;-0.147796630859375;-1.0086517333984375;0.07571686804294586;-0.016143016517162323;0.006589991971850395
0.0747222900390625;-0.1483306884765625;-1.0042877197265625;0.07872011512517929;-0.02311810292303562;0.009191900491714478
0.0747222900390625;-0.1483306884765625;-1.0042877197265625;0.07872011512517929;-0.02311810292303562;0.009191900491714478
0.0747222900390625;-0.1483306884765625;-1.0042877197265625;0.07872011512517929;-0.02311810292303562;0.009191900491714478
0.0747222900390625;-0.1483306884765625;-1.0042877197265625;0.07872011512517929;-0.02311810292303562;0.009191900491714478
0.0747222900390625;-0.1483306884765625;-1.0042877197265625;0.07872011512517929;-0.02311810292303562;0.009191900491714478
0.0753326416015625;-0.14801025390625;-1.001190185546875;0.08176197111606598;-0.021107681095600128;0.00812317430973053
0.0753326416015625;-0.14801025390625;-1.001190185546875;0.08176197111606598;-0.021107681095600128;0.00812317430973053
0.0753326416015625;-0.14801025390625;-1.001190185546875;0.08176197111606598;-0.021107681095600128;0.00812317430973053
0.0753326416015625;-0.14801025390625;-1.001190185546875;0.08176197111606598;-0.021107681095600128;0.00812317430973053
0.0753326416015625;-0.14801025390625;-1.001190185546875;0.08176197111606598;-0.021107681095600128;0.00812317430973053
0.0766143798828125;-0.148651123046875;-0.9988555908203125;0.08219047635793686;-0.011396731249988079;0.011112306267023087
0.0766143798828125;-0.148651123046875;-0.9988555908203125;0.08219047635793686;-0.011396731249988079;0.011112306267023087
0.0766143798828125;-0.148651123046875;-0.9988555908203125;0.08219047635793686;-0.011396731249988079;0.011112306267023087
0.0766143798828125;-0.148651123046875;-0.9988555908203125;0.08219047635793686;-0.011396731249988079;0.011112306267023087
0.0766143798828125;-0.148651123046875;-0.9988555908203125;0.08219047635793686;-0.011396731249988079;0.011112306267023087
0.078094482421875;-0.1503753662109375;-0.9972381591796875;0.08053665608167648;-0.005637113004922867;0.012250540778040886
0.078094482421875;-0.1503753662109375;-0.9972381591796875;0.08053665608167648;-0.005637113004922867;0.012250540778040886
0.078094482421875;-0.1503753662109375;-0.9972381591796875;0.08053665608167648;-0.005637113004922867;0.012250540778040886
0.078094482421875;-0.1503753662109375;-0.9972381591796875;0.08053665608167648;-0.005637113004922867;0.012250540778040886
0.078094482421875;-0.1503753662109375;-0.9972381591796875;0.08053665608167648;-0.005637113004922867;0.012250540778040886
0.0787200927734375;-0.1535491943359375;-0.9960479736328125;0.07169948518276215;-0.002766757970675826;0.013940316624939442
0.0787200927734375;-0.1535491943359375;-0.9960479736328125;0.07169948518276215;-0.002766757970675826;0.013940316624939442
0.0787200927734375;-0.1535491943359375;-0.9960479736328125;0.07169948518276215;-0.002766757970675826;0.013940316624939442
0.0787200927734375;-0.1535491943359375;-0.9960479736328125;0.07169948518276215;-0.002766757970675826;0.013940316624939442
0.0787200927734375;-0.1535491943359375;-0.9960479736328125;0.07169948518276215;-0.002766757970675826;0.013940316624939442
0.0791015625;-0.1562957763671875;-0.996368408203125;0.06277363747358322;-0.0033840788528323174;0.015504923649132252
0.0791015625;-0.1562957763671875;-0.996368408203125;0.06277363747358322;-0.0033840788528323174;0.015504923649132252
0.0791015625;-0.1562957763671875;-0.996368408203125;0.06277363747358322;-0.0033840788528323174;0.015504923649132252
0.0791015625;-0.1562957763671875;-0.996368408203125;0.06277363747358322;-0.0033840788528323174;0.015504923649132252
0.0791015625;-0.1562957763671875;-0.996368408203125;0.06277363747358322;-0.0033840788528323174;0.015504923649132252
0.0782012939453125;-0.1586151123046875;-0.995452880859375;0.04939977452158928;-0.008502940647304058;0.013280385173857212
0.0782012939453125;-0.1586151123046875;-0.995452880859375;0.04939977452158928;-0.008502940647304058;0.013280385173857212
0.0782012939453125;-0.1586151123046875;-0.995452880859375;0.04939977452158928;-0.008502940647304058;0.013280385173857212
0.0782012939453125;-0.1586151123046875;-0.995452880859375;0.04939977452158928;-0.008502940647304058;0.013280385173857212
0.0782012939453125;-0.1586151123046875;-0.995452880859375;0.04939977452158928;-0.008502940647304058;0.013280385173857212
0.0759124755859375;-0.160980224609375;-0.99761962890625;0.04196103289723396;-0.01654675230383873;0.00965555664151907
0.0759124755859375;-0.160980224609375;-0.99761962890625;0.04196103289723396;-0.01654675230383873;0.00965555664151907
0.0759124755859375;-0.160980224609375;-0.99761962890625;0.04196103289723396;-0.01654675230383873;0.00965555664151907
0.0759124755859375;-0.160980224609375;-0.99761962890625;0.04196103289723396;-0.01654675230383873;0.00965555664151907
0.0759124755859375;-0.160980224609375;-0.99761962890625;0.04196103289723396;-0.01654675230383873;0.00965555664151907
0.0730743408203125;-0.1634674072265625;-0.99920654296875;0.03899773210287094;-0.020595822483301163;0.006908239796757698
0.0730743408203125;-0.1634674072265625;-0.99920654296875;0.03899773210287094;-0.020595822483301163;0.006908239796757698
0.0730743408203125;-0.1634674072265625;-0.99920654296875;0.03899773210287094;-0.020595822483301163;0.006908239796757698
0.0730743408203125;-0.1634674072265625;-0.99920654296875;0.03899773210287094;-0.020595822483301163;0.006908239796757698
0.0730743408203125;-0.1634674072265625;-0.99920654296875;0.03899773210287094;-0.020595822483301163;0.006908239796757698
0.0725250244140625;-0.1658782958984375;-1.0016937255859375;0.04000094532966614;-0.021409152075648308;0.003034405643120408
0.0725250244140625;-0.1658782958984375;-1.0016937255859375;0.04000094532966614;-0.021409152075648308;0.003034405643120408
0.0725250244140625;-0.1658782958984375;-1.0016937255859375;0.04000094532966614;-0.021409152075648308;0.003034405643120408
0.0725250244140625;-0.1658782958984375;-1.0016937255859375;0.04000094532966614;-0.021409152075648308;0.003034405643120408
0.0725250244140625;-0.1658782958984375;-1.0016937255859375;0.04000094532966614;-0.021409152075648308;0.003034405643120408
0.071868896484375;-0.1665191650390625;-1.0032806396484375;0.03688770905137062;-0.014487862586975098;0.0007488809060305357
0.071868896484375;-0.1665191650390625;-1.0032806396484375;0.03688770905137062;-0.014487862586975098;0.0007488809060305357
0.071868896484375;-0.1665191650390625;-1.0032806396484375;0.03688770905137062;-0.014487862586975098;0.0007488809060305357
0.071868896484375;-0.1665191650390625;-1.0032806396484375;0.03688770905137062;-0.014487862586975098;0.0007488809060305357
0.071868896484375;-0.1665191650390625;-1.0032806396484375;0.03688770905137062;-0.014487862586975098;0.0007488809060305357
0.07232666015625;-0.168182373046875;-1.0027313232421875;0.04502153769135475;-0.006146842148154974;0.0034091125708073378
0.07232666015625;-0.168182373046875;-1.0027313232421875;0.04502153769135475;-0.006146842148154974;0.0034091125708073378
0.07232666015625;-0.168182373046875;-1.0027313232421875;0.04502153769135475;-0.006146842148154974;0.0034091125708073378
0.07232666015625;-0.168182373046875;-1.0027313232421875;0.04502153769135475;-0.006146842148154974;0.0034091125708073378
0.07232666015625;-0.168182373046875;-1.0027313232421875;0.04502153769135475;-0.006146842148154974;0.0034091125708073378
0.074005126953125;-0.16748046875;-1.003326416015625;0.05109301209449768;-0.002624012529850006;0.004448810592293739
0.074005126953125;-0.16748046875;-1.003326416015625;0.05109301209449768;-0.002624012529850006;0.004448810592293739
0.074005126953125;-0.16748046875;-1.003326416015625;0.05109301209449768;-0.002624012529850006;0.004448810592293739
0.074005126953125;-0.16748046875;-1.003326416015625;0.05109301209449768;-0.002624012529850006;0.004448810592293739
0.074005126953125;-0.16748046875;-1.003326416015625;0.05109301209449768;-0.002624012529850006;0.004448810592293739
0.0717620849609375;-0.163116455078125;-1.0042724609375;0.04986502602696419;-0.006394782569259405;5.912217602599412e-05
0.0717620849609375;-0.163116455078125;-1.0042724609375;0.04986502602696419;-0.006394782569259405;5.912217602599412e-05
0.0717620849609375;-0.163116455078125;-1.0042724609375;0.04986502602696419;-0.006394782569259405;5.912217602599412e-05
0.0717620849609375;-0.163116455078125;-1.0042724609375;0.04986502602696419;-0.006394782569259405;5.912217602599412e-05
0.0717620849609375;-0.163116455078125;-1.0042724609375;0.04986502602696419;-0.006394782569259405;5.912217602599412e-05
0.072662353515625;-0.162628173828125;-1.0064849853515625;0.05529281497001648;-0.0019142802339047194;0.0026727484073489904
0.072662353515625;-0.162628173828125;-1.0064849853515625;0.05529281497001648;-0.0019142802339047194;0.0026727484073489904
0.072662353515625;-0.162628173828125;-1.0064849853515625;0.05529281497001648;-0.0019142802339047194;0.0026727484073489904
0.072662353515625;-0.162628173828125;-1.0064849853515625;0.05529281497001648;-0.0019142802339047194;0.0026727484073489904
0.072662353515625;-0.162628173828125;-1.0064849853515625;0.05529281497001648;-0.0019142802339047194;0.0026727484073489904
0.0759124755859375;-0.16375732421875;-1.00341796875;0.05253378301858902;0.007980694994330406;0.00512711750343442
0.0759124755859375;-0.16375732421875;-1.00341796875;0.05253378301858902;0.007980694994330406;0.00512711750343442
0.0759124755859375;-0.16375732421875;-1.00341796875;0.05253378301858902;0.007980694994330406;0.00512711750343442
0.0759124755859375;-0.16375732421875;-1.00341796875;0.05253378301858902;0.007980694994330406;0.00512711750343442
0.0759124755859375;-0.16375732421875;-1.00341796875;0.05253378301858902;0.007980694994330406;0.00512711750343442
0.075653076171875;-0.1632537841796875;-0.9989166259765625;0.04620105028152466;0.007662447169423103;0.005735650192946196
0.075653076171875;-0.1632537841796875;-0.9989166259765625;0.04620105028152466;0.007662447169423103;0.005735650192946196
0.075653076171875;-0.1632537841796875;-0.9989166259765625;0.04620105028152466;0.007662447169423103;0.005735650192946196
0.075653076171875;-0.1632537841796875;-0.9989166259765625;0.04620105028152466;0.007662447169423103;0.005735650192946196
0.075653076171875;-0.1632537841796875;-0.9989166259765625;0.04620105028152466;0.007662447169423103;0.005735650192946196
0.0746002197265625;-0.16064453125;-0.9952850341796875;0.03803020715713501;0.0012993563432246447;0.002523078816011548
0.0746002197265625;-0.16064453125;-0.9952850341796875;0.03803020715713501;0.0012993563432246447;0.002523078816011548
0.0746002197265625;-0.16064453125;-0.9952850341796875;0.03803020715713501;0.0012993563432246447;0.002523078816011548
0.0746002197265625;-0.16064453125;-0.9952850341796875;0.03803020715713501;0.0012993563432246447;0.002523078816011548
0.0746002197265625;-0.16064453125;-0.9952850341796875;0.03803020715713501;0.0012993563432246447;0.002523078816011548
0.074371337890625;-0.1569671630859375;-0.993927001953125;0.03261200338602066;-0.004608067683875561;0.0004958806093782187
0.074371337890625;-0.1569671630859375;-0.993927001953125;0.03261200338602066;-0.004608067683875561;0.0004958806093782187
0.074371337890625;-0.1569671630859375;-0.993927001953125;0.03261200338602066;-0.004608067683875561;0.0004958806093782187
0.074371337890625;-0.1569671630859375;-0.993927001953125;0.03261200338602066;-0.004608067683875561;0.0004958806093782187
0.074371337890625;-0.1569671630859375;-0.993927001953125;0.03261200338602066;-0.004608067683875561;0.0004958806093782187
0.0748291015625;-0.15667724609375;-0.995361328125;0.03744564205408096;-0.008933041244745255;6.391586794052273e-06
0.0748291015625;-0.15667724609375;-0.995361328125;0.03744564205408096;-0.008933041244745255;6.391586794052273e-06
0.0748291015625;-0.15667724609375;-0.995361328125;0.03744564205408096;-0.008933041244745255;6.391586794052273e-06
0.0748291015625;-0.15667724609375;-0.995361328125;0.03744564205408096;-0.008933041244745255;6.391586794052273e-06
0.0748291015625;-0.15667724609375;-0.995361328125;0.03744564205408096;-0.008933041244745255;6.391586794052273e-06
0.075225830078125;-0.1562347412109375;-0.9964599609375;0.03574015572667122;-0.010188455693423748;0.0024703482631593943
0.075225830078125;-0.1562347412109375;-0.9964599609375;0.03574015572667122;-0.010188455693423748;0.0024703482631593943
0.075225830078125;-0.1562347412109375;-0.9964599609375;0.03574015572667122;-0.010188455693423748;0.0024703482631593943
0.075225830078125;-0.1562347412109375;-0.9964599609375;0.03574015572667122;-0.010188455693423748;0.0024703482631593943
0.075225830078125;-0.1562347412109375;-0.9964599609375;0.03574015572667122;-0.010188455693423748;0.0024703482631593943
0.076385498046875;-0.1585845947265625;-0.996002197265625;0.04450727999210358;-0.007399859372526407;-0.00039840888348408043
0.076385498046875;-0.1585845947265625;-0.996002197265625;0.04450727999210358;-0.007399859372526407;-0.00039840888348408043
0.076385498046875;-0.1585845947265625;-0.996002197265625;0.04450727999210358;-0.007399859372526407;-0.00039840888348408043
0.076385498046875;-0.1585845947265625;-0.996002197265625;0.04450727999210358;-0.007399859372526407;-0.00039840888348408043
0.076385498046875;-0.1585845947265625;-0.996002197265625;0.04450727999210358;-0.007399859372526407;-0.00039840888348408043
0.0775146484375;-0.161163330078125;-0.9954071044921875;0.04827059432864189;-0.007308512926101685;0.004550543148070574
0.0775146484375;-0.161163330078125;-0.9954071044921875;0.04827059432864189;-0.007308512926101685;0.004550543148070574
0.0775146484375;-0.161163330078125;-0.9954071044921875;0.04827059432864189;-0.007308512926101685;0.004550543148070574
0.0775146484375;-0.161163330078125;-0.9954071044921875;0.04827059432864189;-0.007308512926101685;0.004550543148070574
0.0775146484375;-0.161163330078125;-0.9954071044921875;0.04827059432864189;-0.007308512926101685;0.004550543148070574
0.078369140625;-0.1622314453125;-0.9971466064453125;0.053700514137744904;-0.005311142187565565;0.004768389742821455
0.078369140625;-0.1622314453125;-0.9971466064453125;0.053700514137744904;-0.005311142187565565;0.004768389742821455
0.078369140625;-0.1622314453125;-0.9971466064453125;0.053700514137744904;-0.005311142187565565;0.004768389742821455
0.078369140625;-0.1622314453125;-0.9971466064453125;0.053700514137744904;-0.005311142187565565;0.004768389742821455
0.078369140625;-0.1622314453125;-0.9971466064453125;0.053700514137744904;-0.005311142187565565;0.004768389742821455
0.0781402587890625;-0.165740966796875;-0.997955322265625;0.052976664155721664;-0.009758621454238892;0.005343632772564888
0.0781402587890625;-0.165740966796875;-0.997955322265625;0.052976664155721664;-0.009758621454238892;0.005343632772564888
0.0781402587890625;-0.165740966796875;-0.997955322265625;0.052976664155721664;-0.009758621454238892;0.005343632772564888
0.0781402587890625;-0.165740966796875;-0.997955322265625;0.052976664155721664;-0.009758621454238892;0.005343632772564888
0.0781402587890625;-0.165740966796875;-0.997955322265625;0.052976664155721664;-0.009758621454238892;0.005343632772564888
0.077178955078125;-0.1696624755859375;-0.9989166259765625;0.050822433084249496;-0.011974104680120945;0.006640858482569456
0.077178955078125;-0.1696624755859375;-0.9989166259765625;0.050822433084249496;-0.011974104680120945;0.006640858482569456
0.077178955078125;-0.1696624755859375;-0.9989166259765625;0.050822433084249496;-0.011974104680120945;0.006640858482569456
0.077178955078125;-0.1696624755859375;-0.9989166259765625;0.050822433084249496;-0.011974104680120945;0.006640858482569456
0.077178955078125;-0.1696624755859375;-0.9989166259765625;0.050822433084249496;-0.011974104680120945;0.006640858482569456
0.075592041015625;-0.1717987060546875;-1.00140380859375;0.04357224330306053;-0.014676680788397789;0.008627044036984444
0.075592041015625;-0.1717987060546875;-1.00140380859375;0.04357224330306053;-0.014676680788397789;0.008627044036984444
0.075592041015625;-0.1717987060546875;-1.00140380859375;0.04357224330306053;-0.014676680788397789;0.008627044036984444
0.075592041015625;-0.1717987060546875;-1.00140380859375;0.04357224330306053;-0.014676680788397789;0.008627044036984444
0.075592041015625;-0.1717987060546875;-1.00140380859375;0.04357224330306053;-0.014676680788397789;0.008627044036984444
0.0744476318359375;-0.1729736328125;-1.0010986328125;0.03922676295042038;-0.014455106109380722;0.013742444105446339
0.0744476318359375;-0.1729736328125;-1.0010986328125;0.03922676295042038;-0.014455106109380722;0.013742444105446339
0.0744476318359375;-0.1729736328125;-1.0010986328125;0.03922676295042038;-0.014455106109380722;0.013742444105446339
0.0744476318359375;-0.1729736328125;-1.0010986328125;0.03922676295042038;-0.014455106109380722;0.013742444105446339
0.0744476318359375;-0.1729736328125;-1.0010986328125;0.03922676295042038;-0.014455106109380722;0.013742444105446339
0.07440185546875;-0.1743011474609375;-1.001739501953125;0.0326109416782856;-0.013430055230855942;0.009969543665647507
0.07440185546875;-0.1743011474609375;-1.001739501953125;0.0326109416782856;-0.013430055230855942;0.009969543665647507
0.07440185546875;-0.1743011474609375;-1.001739501953125;0.0326109416782856;-0.013430055230855942;0.009969543665647507
0.07440185546875;-0.1743011474609375;-1.001739501953125;0.0326109416782856;-0.013430055230855942;0.009969543665647507
0.07440185546875;-0.1743011474609375;-1.001739501953125;0.028979454189538956;-0.0054339137859642506;0.012257465161383152
0.0752410888671875;-0.174102783203125;-1.0019073486328125;0.028979454189538956;-0.0054339137859642506;0.012257465161383152
0.0752410888671875;-0.174102783203125;-1.0019073486328125;0.028979454189538956;-0.0054339137859642506;0.012257465161383152
0.0752410888671875;-0.174102783203125;-1.0019073486328125;0.028979454189538956;-0.0054339137859642506;0.012257465161383152
0.0752410888671875;-0.174102783203125;-1.0019073486328125;0.028979454189538956;-0.0054339137859642506;0.012257465161383152
0.0752410888671875;-0.174102783203125;-1.0019073486328125;0.028979454189538956;-0.0054339137859642506;0.012257465161383152
0.0760650634765625;-0.1724700927734375;-1.002349853515625;0.026402046903967857;0.0020058928057551384;0.011611648835241795
0.0760650634765625;-0.1724700927734375;-1.002349853515625;0.026402046903967857;0.0020058928057551384;0.011611648835241795
0.0760650634765625;-0.1724700927734375;-1.002349853515625;0.026402046903967857;0.0020058928057551384;0.011611648835241795
0.0760650634765625;-0.1724700927734375;-1.002349853515625;0.026402046903967857;0.0020058928057551384;0.011611648835241795
0.0772552490234375;-0.172210693359375;-1.0023040771484375;0.02544756978750229;0.004748682491481304;0.008956743404269218
0.0772552490234375;-0.172210693359375;-1.0023040771484375;0.02544756978750229;0.004748682491481304;0.008956743404269218
0.0772552490234375;-0.172210693359375;-1.0023040771484375;0.02544756978750229;0.004748682491481304;0.008956743404269218
0.0772552490234375;-0.172210693359375;-1.0023040771484375;0.02544756978750229;0.004748682491481304;0.008956743404269218
0.0772552490234375;-0.172210693359375;-1.0023040771484375;0.02544756978750229;0.004748682491481304;0.008956743404269218
0.0772552490234375;-0.172210693359375;-1.0023040771484375;0.024690166115760803;-0.0003981425834354013;0.008421448059380054
0.0777435302734375;-0.1705322265625;-1.0020294189453125;0.024690166115760803;-0.0003981425834354013;0.008421448059380054
0.0777435302734375;-0.1705322265625;-1.0020294189453125;0.024690166115760803;-0.0003981425834354013;0.008421448059380054
0.0777435302734375;-0.1705322265625;-1.0020294189453125;0.024690166115760803;-0.0003981425834354013;0.008421448059380054
0.0777435302734375;-0.1705322265625;-1.0020294189453125;0.024690166115760803;-0.0003981425834354013;0.008421448059380054
0.0776214599609375;-0.1695556640625;-1.00146484375;0.02802950330078602;0.0012697952333837748;0.006997988559305668
0.0776214599609375;-0.1695556640625;-1.00146484375;0.02802950330078602;0.0012697952333837748;0.006997988559305668
0.0776214599609375;-0.1695556640625;-1.00146484375;0.02802950330078602;0.0012697952333837748;0.006997988559305668
0.0776214599609375;-0.1695556640625;-1.00146484375;0.02802950330078602;0.0012697952333837748;0.006997988559305668
0.0776214599609375;-0.1695556640625;-1.00146484375;0.02802950330078602;0.0012697952333837748;0.006997988559305668
0.0776214599609375;-0.1695556640625;-1.00146484375;0.03147723153233528;0.0016860472969710827;0.002251702593639493
0.07745361328125;-0.1692352294921875;-1.0022430419921875;0.03147723153233528;0.0016860472969710827;0.002251702593639493
0.07745361328125;-0.1692352294921875;-1.0022430419921875;0.03147723153233528;0.0016860472969710827;0.002251702593639493
0.07745361328125;-0.1692352294921875;-1.0022430419921875;0.03147723153233528;0.0016860472969710827;0.002251702593639493
0.07745361328125;-0.1692352294921875;-1.0022430419921875;0.03147723153233528;0.0016860472969710827;0.002251702593639493
0.075347900390625;-0.1692352294921875;-1.001739501953125;0.04049602895975113;-0.0017411747248843312;0.00025832661776803434
0.075347900390625;-0.1692352294921875;-1.001739501953125;0.04049602895975113;-0.0017411747248843312;0.00025832661776803434
0.075347900390625;-0.1692352294921875;-1.001739501953125;0.04049602895975113;-0.0017411747248843312;0.00025832661776803434
0.075347900390625;-0.1692352294921875;-1.001739501953125;0.04049602895975113;-0.0017411747248843312;0.00025832661776803434
0.075347900390625;-0.1692352294921875;-1.001739501953125;0.04049602895975113;-0.0017411747248843312;0.00025832661776803434
0.075592041015625;-0.1682891845703125;-1.0011749267578125;0.043537624180316925;-0.005674397107213736;0.0032692966051399708
0.075592041015625;-0.1682891845703125;-1.0011749267578125;0.043537624180316925;-0.005674397107213736;0.0032692966051399708
0.075592041015625;-0.1682891845703125;-1.0011749267578125;0.043537624180316925;-0.005674397107213736;0.0032692966051399708
0.075592041015625;-0.1682891845703125;-1.0011749267578125;0.043537624180316925;-0.005674397107213736;0.0032692966051399708
0.075592041015625;-0.1682891845703125;-1.0011749267578125;0.043537624180316925;-0.005674397107213736;0.0032692966051399708
0.0757293701171875;-0.1684722900390625;-1.0011749267578125;0.04403643310070038;-0.003742540255188942;0.002034122357144952
0.0757293701171875;-0.1684722900390625;-1.0011749267578125;0.04403643310070038;-0.003742540255188942;0.002034122357144952
0.0757293701171875;-0.1684722900390625;-1.0011749267578125;0.04403643310070038;-0.003742540255188942;0.002034122357144952
0.0757293701171875;-0.1684722900390625;-1.0011749267578125;0.04403643310070038;-0.003742540255188942;0.002034122357144952
0.0757293701171875;-0.1684722900390625;-1.0011749267578125;0.04403643310070038;-0.003742540255188942;0.002034122357144952
0.0747222900390625;-0.168701171875;-1.0012969970703125;0.04879763349890709;0.00013608753215521574;0.0023286680225282907
0.0747222900390625;-0.168701171875;-1.0012969970703125;0.04879763349890709;0.00013608753215521574;0.0023286680225282907
0.0747222900390625;-0.168701171875;-1.0012969970703125;0.04879763349890709;0.00013608753215521574;0.0023286680225282907
0.0747222900390625;-0.168701171875;-1.0012969970703125;0.04879763349890709;0.00013608753215521574;0.0023286680225282907
0.0747222900390625;-0.168701171875;-1.0012969970703125;0.04879763349890709;0.00013608753215521574;0.0023286680225282907
0.0750732421875;-0.170074462890625;-0.9976654052734375;0.04640371724963188;-0.0006415555253624916;0.001668736687861383
0.0750732421875;-0.170074462890625;-0.9976654052734375;0.04640371724963188;-0.0006415555253624916;0.001668736687861383
0.0750732421875;-0.170074462890625;-0.9976654052734375;0.04640371724963188;-0.0006415555253624916;0.001668736687861383
0.0750732421875;-0.170074462890625;-0.9976654052734375;0.04640371724963188;-0.0006415555253624916;0.001668736687861383
0.0750732421875;-0.170074462890625;-0.9976654052734375;0.04640371724963188;-0.0006415555253624916;0.001668736687861383
0.0756072998046875;-0.170654296875;-0.994384765625;0.04247608780860901;-0.0022029669489711523;0.006614759564399719
0.0756072998046875;-0.170654296875;-0.994384765625;0.04247608780860901;-0.0022029669489711523;0.006614759564399719
0.0756072998046875;-0.170654296875;-0.994384765625;0.04247608780860901;-0.0022029669489711523;0.006614759564399719
0.0756072998046875;-0.170654296875;-0.994384765625;0.04247608780860901;-0.0022029669489711523;0.006614759564399719
0.0756072998046875;-0.170654296875;-0.994384765625;0.04247608780860901;-0.0022029669489711523;0.006614759564399719
0.0763702392578125;-0.17169189453125;-0.9944915771484375;0.04222894459962845;0.0017515610670670867;0.006068811286240816
0.0763702392578125;-0.17169189453125;-0.9944915771484375;0.04222894459962845;0.0017515610670670867;0.006068811286240816
0.0763702392578125;-0.17169189453125;-0.9944915771484375;0.04222894459962845;0.0017515610670670867;0.006068811286240816
0.0763702392578125;-0.17169189453125;-0.9944915771484375;0.04222894459962845;0.0017515610670670867;0.006068811286240816
0.0763702392578125;-0.17169189453125;-0.9944915771484375;0.04222894459962845;0.0017515610670670867;0.006068811286240816
0.0756378173828125;-0.1724700927734375;-0.9952850341796875;0.0391165092587471;-0.001315335277467966;0.007364172954112291
0.0756378173828125;-0.1724700927734375;-0.9952850341796875;0.0391165092587471;-0.001315335277467966;0.007364172954112291
0.0756378173828125;-0.1724700927734375;-0.9952850341796875;0.0391165092587471;-0.001315335277467966;0.007364172954112291
0.0756378173828125;-0.1724700927734375;-0.9952850341796875;0.0391165092587471;-0.001315335277467966;0.007364172954112291
0.0756378173828125;-0.1724700927734375;-0.9952850341796875;0.0391165092587471;-0.001315335277467966;0.007364172954112291
0.075347900390625;-0.17364501953125;-0.994354248046875;0.03407035395503044;-0.0009507485083304346;0.006482933182269335
0.075347900390625;-0.17364501953125;-0.994354248046875;0.03407035395503044;-0.0009507485083304346;0.006482933182269335
0.075347900390625;-0.17364501953125;-0.994354248046875;0.03407035395503044;-0.0009507485083304346;0.006482933182269335
0.075347900390625;-0.17364501953125;-0.994354248046875;0.03407035395503044;-0.0009507485083304346;0.006482933182269335
0.075347900390625;-0.17364501953125;-0.994354248046875;0.03407035395503044;-0.0009507485083304346;0.006482933182269335
0.07513427734375;-0.1738739013671875;-0.9940338134765625;0.0313054583966732;-0.0016234630020335317;0.009623599238693714
0.07513427734375;-0.1738739013671875;-0.9940338134765625;0.0313054583966732;-0.0016234630020335317;0.009623599238693714
0.07513427734375;-0.1738739013671875;-0.9940338134765625;0.0313054583966732;-0.0016234630020335317;0.009623599238693714
0.07513427734375;-0.1738739013671875;-0.9940338134765625;0.0313054583966732;-0.0016234630020335317;0.009623599238693714
0.07513427734375;-0.1738739013671875;-0.9940338134765625;0.0313054583966732;-0.0016234630020335317;0.009623599238693714
0.0750274658203125;-0.1754608154296875;-0.992523193359375;0.01853986270725727;-0.006194779183715582;0.008682171814143658
0.0750274658203125;-0.1754608154296875;-0.992523193359375;0.01853986270725727;-0.006194779183715582;0.008682171814143658
0.0750274658203125;-0.1754608154296875;-0.992523193359375;0.01853986270725727;-0.006194779183715582;0.008682171814143658
0.0750274658203125;-0.1754608154296875;-0.992523193359375;0.01853986270725727;-0.006194779183715582;0.008682171814143658
0.0750274658203125;-0.1754608154296875;-0.992523193359375;0.01853986270725727;-0.006194779183715582;0.008682171814143658
0.0754547119140625;-0.1755523681640625;-0.99102783203125;0.013995710760354996;-0.0065348646603524685;0.008838498964905739
0.0754547119140625;-0.1755523681640625;-0.99102783203125;0.013995710760354996;-0.0065348646603524685;0.008838498964905739
0.0754547119140625;-0.1755523681640625;-0.99102783203125;0.013995710760354996;-0.0065348646603524685;0.008838498964905739
0.0754547119140625;-0.1755523681640625;-0.99102783203125;0.013995710760354996;-0.0065348646603524685;0.008838498964905739
0.0754547119140625;-0.1755523681640625;-0.99102783203125;0.013995710760354996;-0.0065348646603524685;0.008838498964905739
0.074981689453125;-0.1755828857421875;-0.9907684326171875;0.008102401159703732;-0.005110606085509062;0.01088620349764824
0.074981689453125;-0.1755828857421875;-0.9907684326171875;0.008102401159703732;-0.005110606085509062;0.01088620349764824
0.074981689453125;-0.1755828857421875;-0.9907684326171875;0.008102401159703732;-0.005110606085509062;0.01088620349764824
0.074981689453125;-0.1755828857421875;-0.9907684326171875;0.008102401159703732;-0.005110606085509062;0.01088620349764824
0.074981689453125;-0.1755828857421875;-0.9907684326171875;0.008102401159703732;-0.005110606085509062;0.01088620349764824
0.0757598876953125;-0.1752777099609375;-0.993621826171875;0.00777643034234643;-0.0009954896522685885;0.007354585453867912
0.0757598876953125;-0.1752777099609375;-0.993621826171875;0.00777643034234643;-0.0009954896522685885;0.007354585453867912
0.0757598876953125;-0.1752777099609375;-0.993621826171875;0.00777643034234643;-0.0009954896522685885;0.007354585453867912
0.0757598876953125;-0.1752777099609375;-0.993621826171875;0.00777643034234643;-0.0009954896522685885;0.007354585453867912
0.0757598876953125;-0.1752777099609375;-0.993621826171875;0.00777643034234643;-0.0009954896522685885;0.007354585453867912
0.0752410888671875;-0.1754913330078125;-0.999359130859375;0.008841162547469139;-0.0037119139451533556;0.006730074528604746
0.0752410888671875;-0.1754913330078125;-0.999359130859375;0.008841162547469139;-0.0037119139451533556;0.006730074528604746
0.0752410888671875;-0.1754913330078125;-0.999359130859375;0.008841162547469139;-0.0037119139451533556;0.006730074528604746
0.0752410888671875;-0.1754913330078125;-0.999359130859375;0.008841162547469139;-0.0037119139451533556;0.006730074528604746
0.0752410888671875;-0.1754913330078125;-0.999359130859375;0.008841162547469139;-0.0037119139451533556;0.006730074528604746
0.074737548828125;-0.174041748046875;-1.0041656494140625;0.010364756919443607;-1.9707391402334906e-05;0.0037177728954702616
0.074737548828125;-0.174041748046875;-1.0041656494140625;0.010364756919443607;-1.9707391402334906e-05;0.0037177728954702616
0.074737548828125;-0.174041748046875;-1.0041656494140625;0.010364756919443607;-1.9707391402334906e-05;0.0037177728954702616
0.074737548828125;-0.174041748046875;-1.0041656494140625;0.010364756919443607;-1.9707391402334906e-05;0.0037177728954702616
0.074737548828125;-0.174041748046875;-1.0041656494140625;0.010364756919443607;-1.9707391402334906e-05;0.0037177728954702616
0.073760986328125;-0.175201416015625;-1.0067596435546875;0.016231967136263847;0.006024869158864021;0.006963899824768305
0.073760986328125;-0.175201416015625;-1.0067596435546875;0.016231967136263847;0.006024869158864021;0.006963899824768305
0.073760986328125;-0.175201416015625;-1.0067596435546875;0.016231967136263847;0.006024869158864021;0.006963899824768305
0.073760986328125;-0.175201416015625;-1.0067596435546875;0.016231967136263847;0.006024869158864021;0.006963899824768305
0.073760986328125;-0.175201416015625;-1.0067596435546875;0.016231967136263847;0.006024869158864021;0.006963899824768305
0.074066162109375;-0.1768035888671875;-1.006439208984375;0.021813685074448586;0.005687979515641928;0.006253635045140982
0.074066162109375;-0.1768035888671875;-1.006439208984375;0.021813685074448586;0.005687979515641928;0.006253635045140982
0.074066162109375;-0.1768035888671875;-1.006439208984375;0.021813685074448586;0.005687979515641928;0.006253635045140982
0.074066162109375;-0.1768035888671875;-1.006439208984375;0.021813685074448586;0.005687979515641928;0.006253635045140982
0.074066162109375;-0.1768035888671875;-1.006439208984375;0.021813685074448586;0.005687979515641928;0.006253635045140982
0.074310302734375;-0.1767578125;-1.00433349609375;0.02148851379752159;0.002104163635522127;0.0046149916015565395
0.074310302734375;-0.1767578125;-1.00433349609375;0.02148851379752159;0.002104163635522127;0.0046149916015565395
0.074310302734375;-0.1767578125;-1.00433349609375;0.02148851379752159;0.002104163635522127;0.0046149916015565395
0.074310302734375;-0.1767578125;-1.00433349609375;0.02148851379752159;0.002104163635522127;0.0046149916015565395
0.074310302734375;-0.1767578125;-1.00433349609375;0.02148851379752159;0.002104163635522127;0.0046149916015565395
0.074981689453125;-0.176727294921875;-1.003204345703125;0.019903134554624557;-0.00041332258842885494;0.003751062322407961
0.074981689453125;-0.176727294921875;-1.003204345703125;0.019903134554624557;-0.00041332258842885494;0.003751062322407961
0.074981689453125;-0.176727294921875;-1.003204345703125;0.019903134554624557;-0.00041332258842885494;0.003751062322407961
0.074981689453125;-0.176727294921875;-1.003204345703125;0.019903134554624557;-0.00041332258842885494;0.003751062322407961
0.074981689453125;-0.176727294921875;-1.003204345703125;0.019903134554624557;-0.00041332258842885494;0.003751062322407961
0.07550048828125;-0.1772003173828125;-0.9986419677734375;0.014535266906023026;0.004201402887701988;0.005785983521491289
0.07550048828125;-0.1772003173828125;-0.9986419677734375;0.014535266906023026;0.004201402887701988;0.005785983521491289
0.07550048828125;-0.1772003173828125;-0.9986419677734375;0.014535266906023026;0.004201402887701988;0.005785983521491289
0.07550048828125;-0.1772003173828125;-0.9986419677734375;0.014535266906023026;0.004201402887701988;0.005785983521491289
0.07550048828125;-0.1772003173828125;-0.9986419677734375;0.014535266906023026;0.004201402887701988;0.005785983521491289
0.0751495361328125;-0.1769256591796875;-0.99151611328125;0.010755974799394608;0.0024290692526847124;0.005546831991523504
0.0751495361328125;-0.1769256591796875;-0.99151611328125;0.010755974799394608;0.0024290692526847124;0.005546831991523504
0.0751495361328125;-0.1769256591796875;-0.99151611328125;0.010755974799394608;0.0024290692526847124;0.005546831991523504
0.0751495361328125;-0.1769256591796875;-0.99151611328125;0.010755974799394608;0.0024290692526847124;0.005546831991523504
0.0751495361328125;-0.1769256591796875;-0.99151611328125;0.010755974799394608;0.0024290692526847124;0.005546831991523504
0.0764617919921875;-0.177459716796875;-0.9853973388671875;0.001998968655243516;0.002282329136505723;0.004436027258634567
0.0764617919921875;-0.177459716796875;-0.9853973388671875;0.001998968655243516;0.002282329136505723;0.004436027258634567
0.0764617919921875;-0.177459716796875;-0.9853973388671875;0.001998968655243516;0.002282329136505723;0.004436027258634567
0.0764617919921875;-0.177459716796875;-0.9853973388671875;0.001998968655243516;0.002282329136505723;0.004436027258634567
0.0764617919921875;-0.177459716796875;-0.9853973388671875;0.001998968655243516;0.002282329136505723;0.004436027258634567
0.076416015625;-0.1745758056640625;-0.986907958984375;0.005485845264047384;-0.004930309951305389;0.0002378202771069482
0.076416015625;-0.1745758056640625;-0.986907958984375;0.005485845264047384;-0.004930309951305389;0.0002378202771069482
0.076416015625;-0.1745758056640625;-0.986907958984375;0.005485845264047384;-0.004930309951305389;0.0002378202771069482
0.076416015625;-0.1745758056640625;-0.986907958984375;0.005485845264047384;-0.004930309951305389;0.0002378202771069482
0.076416015625;-0.1745758056640625;-0.986907958984375;0.005485845264047384;-0.004930309951305389;0.0002378202771069482
0.0719146728515625;-0.1693878173828125;-1.00079345703125;0.016948090866208076;-0.016077503561973572;-0.0024889903143048286
0.0719146728515625;-0.1693878173828125;-1.00079345703125;0.016948090866208076;-0.016077503561973572;-0.0024889903143048286
0.0719146728515625;-0.1693878173828125;-1.00079345703125;0.016948090866208076;-0.016077503561973572;-0.0024889903143048286
0.0719146728515625;-0.1693878173828125;-1.00079345703125;0.016948090866208076;-0.016077503561973572;-0.0024889903143048286
0.0719146728515625;-0.1693878173828125;-1.00079345703125;0.016948090866208076;-0.016077503561973572;-0.0024889903143048286
0.07159423828125;-0.1696014404296875;-1.011932373046875;0.02263367362320423;-0.03440644219517708;-0.0026724820490926504
0.07159423828125;-0.1696014404296875;-1.011932373046875;0.02263367362320423;-0.03440644219517708;-0.0026724820490926504
0.07159423828125;-0.1696014404296875;-1.011932373046875;0.02263367362320423;-0.03440644219517708;-0.0026724820490926504
0.07159423828125;-0.1696014404296875;-1.011932373046875;0.02263367362320423;-0.03440644219517708;-0.0026724820490926504
0.07159423828125;-0.1696014404296875;-1.011932373046875;0.02263367362320423;-0.03440644219517708;-0.0026724820490926504
0.0736541748046875;-0.1739349365234375;-1.008575439453125;0.026023611426353455;-0.04470009356737137;0.0018309232546016574
0.0736541748046875;-0.1739349365234375;-1.008575439453125;0.026023611426353455;-0.04470009356737137;0.0018309232546016574
0.0736541748046875;-0.1739349365234375;-1.008575439453125;0.026023611426353455;-0.04470009356737137;0.0018309232546016574
0.0736541748046875;-0.1739349365234375;-1.008575439453125;0.026023611426353455;-0.04470009356737137;0.0018309232546016574
0.0736541748046875;-0.1739349365234375;-1.008575439453125;0.026023611426353455;-0.04470009356737137;0.0018309232546016574
0.0745697021484375;-0.1763153076171875;-0.9964447021484375;0.0199795663356781;-0.037696778774261475;0.005075452383607626
0.0745697021484375;-0.1763153076171875;-0.9964447021484375;0.0199795663356781;-0.037696778774261475;0.005075452383607626
0.0745697021484375;-0.1763153076171875;-0.9964447021484375;0.0199795663356781;-0.037696778774261475;0.005075452383607626
0.0745697021484375;-0.1763153076171875;-0.9964447021484375;0.0199795663356781;-0.037696778774261475;0.005075452383607626
0.0745697021484375;-0.1763153076171875;-0.9964447021484375;0.0199795663356781;-0.037696778774261475;0.005075452383607626
0.0738067626953125;-0.1766204833984375;-0.988922119140625;0.014430072158575058;-0.02215190790593624;0.01022893562912941
0.0738067626953125;-0.1766204833984375;-0.988922119140625;0.014430072158575058;-0.02215190790593624;0.01022893562912941
0.0738067626953125;-0.1766204833984375;-0.988922119140625;0.014430072158575058;-0.02215190790593624;0.01022893562912941
0.0738067626953125;-0.1766204833984375;-0.988922119140625;0.014430072158575058;-0.02215190790593624;0.01022893562912941
0.0738067626953125;-0.1766204833984375;-0.988922119140625;0.014430072158575058;-0.02215190790593624;0.01022893562912941
0.07232666015625;-0.177642822265625;-0.9844512939453125;0.005130313336849213;0.0015361113473773003;0.00939137116074562
0.07232666015625;-0.177642822265625;-0.9844512939453125;0.005130313336849213;0.0015361113473773003;0.00939137116074562
0.07232666015625;-0.177642822265625;-0.9844512939453125;0.005130313336849213;0.0015361113473773003;0.00939137116074562
0.07232666015625;-0.177642822265625;-0.9844512939453125;0.005130313336849213;0.0015361113473773003;0.00939137116074562
0.07232666015625;-0.177642822265625;-0.9844512939453125;0.005130313336849213;0.0015361113473773003;0.00939137116074562
0.0726318359375;-0.1769256591796875;-0.9853668212890625;-0.0005842975224368274;0.015661250799894333;0.006381466519087553
0.0726318359375;-0.1769256591796875;-0.9853668212890625;-0.0005842975224368274;0.015661250799894333;0.006381466519087553
0.0726318359375;-0.1769256591796875;-0.9853668212890625;-0.0005842975224368274;0.015661250799894333;0.006381466519087553
0.0726318359375;-0.1769256591796875;-0.9853668212890625;-0.0005842975224368274;0.015661250799894333;0.006381466519087553
0.0726318359375;-0.1769256591796875;-0.9853668212890625;-0.0005842975224368274;0.015661250799894333;0.006381466519087553
0.07489013671875;-0.1761932373046875;-0.9917144775390625;0.0015297196805477142;0.030235134065151215;0.00652714166790247
0.07489013671875;-0.1761932373046875;-0.9917144775390625;0.0015297196805477142;0.030235134065151215;0.00652714166790247
0.07489013671875;-0.1761932373046875;-0.9917144775390625;0.0015297196805477142;0.030235134065151215;0.00652714166790247
0.07489013671875;-0.1761932373046875;-0.9917144775390625;0.0015297196805477142;0.030235134065151215;0.00652714166790247
0.07489013671875;-0.1761932373046875;-0.9917144775390625;0.0015297196805477142;0.030235134065151215;0.00652714166790247
0.078338623046875;-0.177276611328125;-0.9962310791015625;0.005085572600364685;0.03809225931763649;0.007984156720340252
0.078338623046875;-0.177276611328125;-0.9962310791015625;0.005085572600364685;0.03809225931763649;0.007984156720340252
0.078338623046875;-0.177276611328125;-0.9962310791015625;0.005085572600364685;0.03809225931763649;0.007984156720340252
0.078338623046875;-0.177276611328125;-0.9962310791015625;0.005085572600364685;0.03809225931763649;0.007984156720340252
0.078338623046875;-0.177276611328125;-0.9962310791015625;0.005085572600364685;0.03809225931763649;0.007984156720340252
0.0809173583984375;-0.1803741455078125;-1.000396728515625;0.010927216149866581;0.04177327826619148;0.01085664238780737
0.0809173583984375;-0.1803741455078125;-1.000396728515625;0.010927216149866581;0.04177327826619148;0.01085664238780737
0.0809173583984375;-0.1803741455078125;-1.000396728515625;0.010927216149866581;0.04177327826619148;0.01085664238780737
0.0809173583984375;-0.1803741455078125;-1.000396728515625;0.010927216149866581;0.04177327826619148;0.01085664238780737
0.0809173583984375;-0.1803741455078125;-1.000396728515625;0.010927216149866581;0.04177327826619148;0.01085664238780737
0.081817626953125;-0.1810455322265625;-1.0042572021484375;0.01503940299153328;0.03202584385871887;0.011174890212714672
0.081817626953125;-0.1810455322265625;-1.0042572021484375;0.01503940299153328;0.03202584385871887;0.011174890212714672
0.081817626953125;-0.1810455322265625;-1.0042572021484375;0.01503940299153328;0.03202584385871887;0.011174890212714672
0.081817626953125;-0.1810455322265625;-1.0042572021484375;0.01503940299153328;0.03202584385871887;0.011174890212714672
0.081817626953125;-0.1810455322265625;-1.0042572021484375;0.01503940299153328;0.03202584385871887;0.011174890212714672
0.0802154541015625;-0.1806488037109375;-1.0072784423828125;0.017619207501411438;0.019157448783516884;0.007448328658938408
0.0802154541015625;-0.1806488037109375;-1.0072784423828125;0.017619207501411438;0.019157448783516884;0.007448328658938408
0.0802154541015625;-0.1806488037109375;-1.0072784423828125;0.017619207501411438;0.019157448783516884;0.007448328658938408
0.0802154541015625;-0.1806488037109375;-1.0072784423828125;0.017619207501411438;0.019157448783516884;0.007448328658938408
0.0802154541015625;-0.1806488037109375;-1.0072784423828125;0.017619207501411438;0.019157448783516884;0.007448328658938408
0.0758819580078125;-0.1807861328125;-1.0075836181640625;0.020980115979909897;0.00752103328704834;0.0068331388756632805
0.0758819580078125;-0.1807861328125;-1.0075836181640625;0.020980115979909897;0.00752103328704834;0.0068331388756632805
0.0758819580078125;-0.1807861328125;-1.0075836181640625;0.020980115979909897;0.00752103328704834;0.0068331388756632805
0.0758819580078125;-0.1807861328125;-1.0075836181640625;0.020980115979909897;0.00752103328704834;0.0068331388756632805
0.0758819580078125;-0.1807861328125;-1.0075836181640625;0.02099689468741417;-0.003061836352571845;0.0023166837636381388
0.075653076171875;-0.1809539794921875;-1.0064239501953125;0.02099689468741417;-0.003061836352571845;0.0023166837636381388
0.075653076171875;-0.1809539794921875;-1.0064239501953125;0.02099689468741417;-0.003061836352571845;0.0023166837636381388
0.075653076171875;-0.1809539794921875;-1.0064239501953125;0.02099689468741417;-0.003061836352571845;0.0023166837636381388
0.075653076171875;-0.1809539794921875;-1.0064239501953125;0.02099689468741417;-0.003061836352571845;0.0023166837636381388
0.075653076171875;-0.1809539794921875;-1.0064239501953125;0.021640313789248466;-0.008582036942243576;0.004028031136840582
0.0739898681640625;-0.18017578125;-1.004425048828125;0.021640313789248466;-0.008582036942243576;0.004028031136840582
0.0739898681640625;-0.18017578125;-1.004425048828125;0.021640313789248466;-0.008582036942243576;0.004028031136840582
0.0739898681640625;-0.18017578125;-1.004425048828125;0.021640313789248466;-0.008582036942243576;0.004028031136840582
0.0739898681640625;-0.18017578125;-1.004425048828125;0.021640313789248466;-0.008582036942243576;0.004028031136840582
0.0739898681640625;-0.18017578125;-1.004425048828125;0.020506873726844788;-0.01095411367714405;0.0031095067970454693
0.074432373046875;-0.17919921875;-1.0031890869140625;0.020506873726844788;-0.01095411367714405;0.0031095067970454693
0.074432373046875;-0.17919921875;-1.0031890869140625;0.020506873726844788;-0.01095411367714405;0.0031095067970454693
0.074432373046875;-0.17919921875;-1.0031890869140625;0.020506873726844788;-0.01095411367714405;0.0031095067970454693
0.074432373046875;-0.17919921875;-1.0031890869140625;0.020506873726844788;-0.01095411367714405;0.0031095067970454693
0.075592041015625;-0.1786956787109375;-0.9993743896484375;0.01799391396343708;-0.013013270683586597;0.005254949443042278
0.075592041015625;-0.1786956787109375;-0.9993743896484375;0.01799391396343708;-0.013013270683586597;0.005254949443042278
0.075592041015625;-0.1786956787109375;-0.9993743896484375;0.01799391396343708;-0.013013270683586597;0.005254949443042278
0.075592041015625;-0.1786956787109375;-0.9993743896484375;0.01799391396343708;-0.013013270683586597;0.005254949443042278
0.075592041015625;-0.1786956787109375;-0.9993743896484375;0.01799391396343708;-0.013013270683586597;0.005254949443042278
0.075592041015625;-0.1786956787109375;-0.9993743896484375;0.013765080831944942;-0.009636647999286652;0.006701578386127949
0.07659912109375;-0.178253173828125;-0.9971771240234375;0.013765080831944942;-0.009636647999286652;0.006701578386127949
0.07659912109375;-0.178253173828125;-0.9971771240234375;0.013765080831944942;-0.009636647999286652;0.006701578386127949
0.07659912109375;-0.178253173828125;-0.9971771240234375;0.013765080831944942;-0.009636647999286652;0.006701578386127949
0.07659912109375;-0.178253173828125;-0.9971771240234375;0.013765080831944942;-0.009636647999286652;0.006701578386127949
0.077789306640625;-0.177642822265625;-0.9939422607421875;0.01569853536784649;-9.454221435589716e-05;0.008502674289047718
0.077789306640625;-0.177642822265625;-0.9939422607421875;0.01569853536784649;-9.454221435589716e-05;0.008502674289047718
0.077789306640625;-0.177642822265625;-0.9939422607421875;0.01569853536784649;-9.454221435589716e-05;0.008502674289047718
0.077789306640625;-0.177642822265625;-0.9939422607421875;0.01569853536784649;-9.454221435589716e-05;0.008502674289047718
0.077789306640625;-0.177642822265625;-0.9939422607421875;0.01569853536784649;-9.454221435589716e-05;0.008502674289047718
0.0782012939453125;-0.177276611328125;-0.9916534423828125;0.013199958018958569;0.0013638047967106104;0.010928547941148281
0.0782012939453125;-0.177276611328125;-0.9916534423828125;0.013199958018958569;0.0013638047967106104;0.010928547941148281
0.0782012939453125;-0.177276611328125;-0.9916534423828125;0.013199958018958569;0.0013638047967106104;0.010928547941148281
0.0782012939453125;-0.177276611328125;-0.9916534423828125;0.013199958018958569;0.0013638047967106104;0.010928547941148281
0.0782012939453125;-0.177276611328125;-0.9916534423828125;0.013199958018958569;0.0013638047967106104;0.010928547941148281
0.07794189453125;-0.1771392822265625;-0.9930572509765625;0.016741428524255753;0.0015188007382676005;0.009364473633468151
0.07794189453125;-0.1771392822265625;-0.9930572509765625;0.016741428524255753;0.0015188007382676005;0.009364473633468151
0.07794189453125;-0.1771392822265625;-0.9930572509765625;0.016741428524255753;0.0015188007382676005;0.009364473633468151
0.07794189453125;-0.1771392822265625;-0.9930572509765625;0.016741428524255753;0.0015188007382676005;0.009364473633468151
0.07794189453125;-0.1771392822265625;-0.9930572509765625;0.016741428524255753;0.0015188007382676005;0.009364473633468151
0.0766448974609375;-0.1771087646484375;-0.996368408203125;0.019222963601350784;-0.0005480785621330142;0.008854744024574757
0.0766448974609375;-0.1771087646484375;-0.996368408203125;0.019222963601350784;-0.0005480785621330142;0.008854744024574757
0.0766448974609375;-0.1771087646484375;-0.996368408203125;0.019222963601350784;-0.0005480785621330142;0.008854744024574757
0.0766448974609375;-0.1771087646484375;-0.996368408203125;0.019222963601350784;-0.0005480785621330142;0.008854744024574757
0.0766448974609375;-0.1771087646484375;-0.996368408203125;0.019222963601350784;-0.0005480785621330142;0.008854744024574757
0.07550048828125;-0.1777496337890625;-0.9998931884765625;0.02582280896604061;-0.004502872936427593;0.007155381143093109
0.07550048828125;-0.1777496337890625;-0.9998931884765625;0.02582280896604061;-0.004502872936427593;0.007155381143093109
0.07550048828125;-0.1777496337890625;-0.9998931884765625;0.02582280896604061;-0.004502872936427593;0.007155381143093109
0.07550048828125;-0.1777496337890625;-0.9998931884765625;0.02582280896604061;-0.004502872936427593;0.007155381143093109
0.07550048828125;-0.1777496337890625;-0.9998931884765625;0.02582280896604061;-0.004502872936427593;0.007155381143093109
0.0736541748046875;-0.1785888671875;-1.002899169921875;0.0332769975066185;-0.013877999037504196;0.003547064261510968
0.0736541748046875;-0.1785888671875;-1.002899169921875;0.0332769975066185;-0.013877999037504196;0.003547064261510968
0.0736541748046875;-0.1785888671875;-1.002899169921875;0.0332769975066185;-0.013877999037504196;0.003547064261510968
0.0736541748046875;-0.1785888671875;-1.002899169921875;0.0332769975066185;-0.013877999037504196;0.003547064261510968
0.0736541748046875;-0.1785888671875;-1.002899169921875;0.0332769975066185;-0.013877999037504196;0.003547064261510968
0.0735931396484375;-0.1802978515625;-1.0034637451171875;0.0373750701546669;-0.01648123934864998;0.006057892460376024
0.0735931396484375;-0.1802978515625;-1.0034637451171875;0.0373750701546669;-0.01648123934864998;0.006057892460376024
0.0735931396484375;-0.1802978515625;-1.0034637451171875;0.0373750701546669;-0.01648123934864998;0.006057892460376024
0.0735931396484375;-0.1802978515625;-1.0034637451171875;0.0373750701546669;-0.01648123934864998;0.006057892460376024
0.0735931396484375;-0.1802978515625;-1.0034637451171875;0.0373750701546669;-0.01648123934864998;0.006057892460376024
0.0738983154296875;-0.1822662353515625;-1.00201416015625;0.04337756708264351;-0.013166402466595173;0.008770322427153587
0.0738983154296875;-0.1822662353515625;-1.00201416015625;0.04337756708264351;-0.013166402466595173;0.008770322427153587
0.0738983154296875;-0.1822662353515625;-1.00201416015625;0.04337756708264351;-0.013166402466595173;0.008770322427153587
0.0738983154296875;-0.1822662353515625;-1.00201416015625;0.04337756708264351;-0.013166402466595173;0.008770322427153587
0.0738983154296875;-0.1822662353515625;-1.00201416015625;0.04337756708264351;-0.013166402466595173;0.008770322427153587
0.0743560791015625;-0.1829071044921875;-0.9992828369140625;0.04538718983530998;-0.011699266731739044;0.008712264709174633
0.0743560791015625;-0.1829071044921875;-0.9992828369140625;0.04538718983530998;-0.011699266731739044;0.008712264709174633
0.0743560791015625;-0.1829071044921875;-0.9992828369140625;0.04538718983530998;-0.011699266731739044;0.008712264709174633
0.0743560791015625;-0.1829071044921875;-0.9992828369140625;0.04538718983530998;-0.011699266731739044;0.008712264709174633
0.0743560791015625;-0.1829071044921875;-0.9992828369140625;0.04538718983530998;-0.011699266731739044;0.008712264709174633
0.0731658935546875;-0.181793212890625;-1.0010223388671875;0.047272175550460815;-0.021877335384488106;0.008537028916180134
0.0731658935546875;-0.181793212890625;-1.0010223388671875;0.047272175550460815;-0.021877335384488106;0.008537028916180134
0.0731658935546875;-0.181793212890625;-1.0010223388671875;0.047272175550460815;-0.021877335384488106;0.008537028916180134
0.0731658935546875;-0.181793212890625;-1.0010223388671875;0.047272175550460815;-0.021877335384488106;0.008537028916180134
