Acell X;Acell Y;Acell Z;Gyro X;Gyro Y;Gyro Z

0.0093841552734375;-0.1242218017578125;-1.02081298828125;-0.052318863570690155;0.0005906891310587525;-0.0024596955627202988
0.017181396484375;-0.1286468505859375;-0.9684906005859375;-0.07410938292741776;-0.03604428842663765;-0.002073537092655897
0.017181396484375;-0.1286468505859375;-0.9684906005859375;-0.07410938292741776;-0.03604428842663765;-0.002073537092655897
0.017181396484375;-0.1286468505859375;-0.9684906005859375;-0.07410938292741776;-0.03604428842663765;-0.002073537092655897
0.017181396484375;-0.1286468505859375;-0.9684906005859375;-0.07410938292741776;-0.03604428842663765;-0.002073537092655897
0.017181396484375;-0.1286468505859375;-0.9684906005859375;-0.07641594111919403;-0.049903109669685364;-0.0025039040483534336
0.01654052734375;-0.12127685546875;-0.9689788818359375;-0.07641594111919403;-0.049903109669685364;-0.0025039040483534336
0.01654052734375;-0.12127685546875;-0.9689788818359375;-0.07641594111919403;-0.049903109669685364;-0.0025039040483534336
0.01654052734375;-0.12127685546875;-0.9689788818359375;-0.07641594111919403;-0.049903109669685364;-0.0025039040483534336
0.01654052734375;-0.12127685546875;-0.9689788818359375;-0.07641594111919403;-0.049903109669685364;-0.0025039040483534336
0.01654052734375;-0.12127685546875;-0.9689788818359375;-0.07641594111919403;-0.049903109669685364;-0.0025039040483534336
0.0111236572265625;-0.121551513671875;-0.9882354736328125;-0.04869003966450691;-0.03693697974085808;-5.326322025211994e-06
0.0111236572265625;-0.121551513671875;-0.9882354736328125;-0.04869003966450691;-0.03693697974085808;-5.326322025211994e-06
0.0111236572265625;-0.121551513671875;-0.9882354736328125;-0.04869003966450691;-0.03693697974085808;-5.326322025211994e-06
0.0111236572265625;-0.121551513671875;-0.9882354736328125;-0.04869003966450691;-0.03693697974085808;-5.326322025211994e-06
0.0111236572265625;-0.121551513671875;-0.9882354736328125;-0.04869003966450691;-0.03693697974085808;-5.326322025211994e-06
0.0088043212890625;-0.1196746826171875;-1.0005035400390625;-0.021040303632616997;-0.021817414090037346;0.004673847462981939
0.0088043212890625;-0.1196746826171875;-1.0005035400390625;-0.021040303632616997;-0.021817414090037346;0.004673847462981939
0.0088043212890625;-0.1196746826171875;-1.0005035400390625;-0.021040303632616997;-0.021817414090037346;0.004673847462981939
0.0088043212890625;-0.1196746826171875;-1.0005035400390625;-0.021040303632616997;-0.021817414090037346;0.004673847462981939
0.0088043212890625;-0.1196746826171875;-1.0005035400390625;-0.021040303632616997;-0.021817414090037346;0.004673847462981939
0.0081329345703125;-0.1196441650390625;-1.004486083984375;-0.001975266495719552;-0.016404006630182266;0.004945223685353994
0.0081329345703125;-0.1196441650390625;-1.004486083984375;-0.001975266495719552;-0.016404006630182266;0.004945223685353994
0.0081329345703125;-0.1196441650390625;-1.004486083984375;-0.001975266495719552;-0.016404006630182266;0.004945223685353994
0.0081329345703125;-0.1196441650390625;-1.004486083984375;-0.001975266495719552;-0.016404006630182266;0.004945223685353994
0.0081329345703125;-0.1196441650390625;-1.004486083984375;0.0041763694025576115;-0.014978417195379734;0.0037851508241146803
0.0073699951171875;-0.120819091796875;-1.0057525634765625;0.0041763694025576115;-0.014978417195379734;0.0037851508241146803
0.0073699951171875;-0.120819091796875;-1.0057525634765625;0.0041763694025576115;-0.014978417195379734;0.0037851508241146803
0.0073699951171875;-0.120819091796875;-1.0057525634765625;0.0041763694025576115;-0.014978417195379734;0.0037851508241146803
0.0073699951171875;-0.120819091796875;-1.0057525634765625;0.0041763694025576115;-0.014978417195379734;0.0037851508241146803
0.0073699951171875;-0.120819091796875;-1.0057525634765625;0.0031470574904233217;-0.02167014218866825;5.379585491027683e-05
0.0077362060546875;-0.1241302490234375;-1.0074310302734375;0.0031470574904233217;-0.02167014218866825;5.379585491027683e-05
0.0077362060546875;-0.1241302490234375;-1.0074310302734375;0.0031470574904233217;-0.02167014218866825;5.379585491027683e-05
0.0077362060546875;-0.1241302490234375;-1.0074310302734375;0.0031470574904233217;-0.02167014218866825;5.379585491027683e-05
0.0077362060546875;-0.1241302490234375;-1.0074310302734375;0.0031470574904233217;-0.02167014218866825;5.379585491027683e-05
0.0077362060546875;-0.1241302490234375;-1.0074310302734375;0.003466370515525341;-0.018572619184851646;-0.0006242449744604528
0.00787353515625;-0.1265716552734375;-1.0115509033203125;0.003466370515525341;-0.018572619184851646;-0.0006242449744604528
0.00787353515625;-0.1265716552734375;-1.0115509033203125;0.003466370515525341;-0.018572619184851646;-0.0006242449744604528
0.00787353515625;-0.1265716552734375;-1.0115509033203125;0.003466370515525341;-0.018572619184851646;-0.0006242449744604528
0.00787353515625;-0.1265716552734375;-1.0115509033203125;0.003466370515525341;-0.018572619184851646;-0.0006242449744604528
0.00787353515625;-0.1265716552734375;-1.0115509033203125;0.003466370515525341;-0.018572619184851646;-0.0006242449744604528
0.0070648193359375;-0.1283416748046875;-1.0137481689453125;-0.0018628811230883002;-0.01344576757401228;0.0003126551164314151
0.0070648193359375;-0.1283416748046875;-1.0137481689453125;-0.0018628811230883002;-0.01344576757401228;0.0003126551164314151
0.0070648193359375;-0.1283416748046875;-1.0137481689453125;-0.0018628811230883002;-0.01344576757401228;0.0003126551164314151
0.0070648193359375;-0.1283416748046875;-1.0137481689453125;-0.0018628811230883002;-0.01344576757401228;0.0003126551164314151
0.005645751953125;-0.128662109375;-1.01361083984375;-0.007043794728815556;-0.004208859521895647;0.002924683503806591
0.005645751953125;-0.128662109375;-1.01361083984375;-0.007043794728815556;-0.004208859521895647;0.002924683503806591
0.005645751953125;-0.128662109375;-1.01361083984375;-0.007043794728815556;-0.004208859521895647;0.002924683503806591
0.005645751953125;-0.128662109375;-1.01361083984375;-0.007043794728815556;-0.004208859521895647;0.002924683503806591
0.005645751953125;-0.128662109375;-1.01361083984375;-0.007043794728815556;-0.004208859521895647;0.002924683503806591
0.00848388671875;-0.1266937255859375;-1.01153564453125;-0.007839547470211983;-0.004492220003157854;0.004189418628811836
0.00848388671875;-0.1266937255859375;-1.01153564453125;-0.007839547470211983;-0.004492220003157854;0.004189418628811836
0.00848388671875;-0.1266937255859375;-1.01153564453125;-0.007839547470211983;-0.004492220003157854;0.004189418628811836
0.00848388671875;-0.1266937255859375;-1.01153564453125;-0.007839547470211983;-0.004492220003157854;0.004189418628811836
0.00848388671875;-0.1266937255859375;-1.01153564453125;-0.007839547470211983;-0.004492220003157854;0.004189418628811836
0.0108184814453125;-0.126068115234375;-1.00897216796875;-0.013712616637349129;-0.00917352456599474;0.0022072279825806618
0.0108184814453125;-0.126068115234375;-1.00897216796875;-0.013712616637349129;-0.00917352456599474;0.0022072279825806618
0.0108184814453125;-0.126068115234375;-1.00897216796875;-0.013712616637349129;-0.00917352456599474;0.0022072279825806618
0.0108184814453125;-0.126068115234375;-1.00897216796875;-0.013712616637349129;-0.00917352456599474;0.0022072279825806618
0.0108184814453125;-0.126068115234375;-1.00897216796875;-0.013712616637349129;-0.00917352456599474;0.0022072279825806618
0.01171875;-0.125244140625;-1.00921630859375;-0.009831325151026249;-0.014196246862411499;0.004709800239652395
0.01171875;-0.125244140625;-1.00921630859375;-0.009831325151026249;-0.014196246862411499;0.004709800239652395
0.01171875;-0.125244140625;-1.00921630859375;-0.009831325151026249;-0.014196246862411499;0.004709800239652395
0.01171875;-0.125244140625;-1.00921630859375;-0.009831325151026249;-0.014196246862411499;0.004709800239652395
0.01171875;-0.125244140625;-1.00921630859375;-0.009831325151026249;-0.014196246862411499;0.004709800239652395
0.0113677978515625;-0.1220245361328125;-1.0099945068359375;-0.0016881778137758374;-0.014271880500018597;0.004715126473456621
0.0113677978515625;-0.1220245361328125;-1.0099945068359375;-0.0016881778137758374;-0.014271880500018597;0.004715126473456621
0.0113677978515625;-0.1220245361328125;-1.0099945068359375;-0.0016881778137758374;-0.014271880500018597;0.004715126473456621
0.0113677978515625;-0.1220245361328125;-1.0099945068359375;-0.0016881778137758374;-0.014271880500018597;0.004715126473456621
0.0113677978515625;-0.1220245361328125;-1.0099945068359375;-0.0016881778137758374;-0.014271880500018597;0.004715126473456621
0.0106353759765625;-0.120147705078125;-1.0106353759765625;0.003953728824853897;-0.013339773751795292;0.004442951641976833
0.0106353759765625;-0.120147705078125;-1.0106353759765625;0.003953728824853897;-0.013339773751795292;0.004442951641976833
0.0106353759765625;-0.120147705078125;-1.0106353759765625;0.003953728824853897;-0.013339773751795292;0.004442951641976833
0.0106353759765625;-0.120147705078125;-1.0106353759765625;0.003953728824853897;-0.013339773751795292;0.004442951641976833
0.0106353759765625;-0.120147705078125;-1.0106353759765625;0.003953728824853897;-0.013339773751795292;0.004442951641976833
0.009765625;-0.1178131103515625;-1.0111236572265625;0.008876582607626915;-0.010875551030039787;0.0037470676470547915
0.009765625;-0.1178131103515625;-1.0111236572265625;0.008876582607626915;-0.010875551030039787;0.0037470676470547915
0.009765625;-0.1178131103515625;-1.0111236572265625;0.008876582607626915;-0.010875551030039787;0.0037470676470547915
0.009765625;-0.1178131103515625;-1.0111236572265625;0.008876582607626915;-0.010875551030039787;0.0037470676470547915
0.009765625;-0.1178131103515625;-1.0111236572265625;0.008876582607626915;-0.010875551030039787;0.0037470676470547915
0.009033203125;-0.117889404296875;-1.0105438232421875;0.012193815782666206;-0.014141651801764965;0.003745469730347395
0.009033203125;-0.117889404296875;-1.0105438232421875;0.012193815782666206;-0.014141651801764965;0.003745469730347395
0.009033203125;-0.117889404296875;-1.0105438232421875;0.012193815782666206;-0.014141651801764965;0.003745469730347395
0.009033203125;-0.117889404296875;-1.0105438232421875;0.012193815782666206;-0.014141651801764965;0.003745469730347395
0.009033203125;-0.117889404296875;-1.0105438232421875;0.012193815782666206;-0.014141651801764965;0.003745469730347395
0.0084686279296875;-0.117340087890625;-1.0114593505859375;0.016823986545205116;-0.014051103964447975;0.004002731293439865
0.0084686279296875;-0.117340087890625;-1.0114593505859375;0.016823986545205116;-0.014051103964447975;0.004002731293439865
0.0084686279296875;-0.117340087890625;-1.0114593505859375;0.016823986545205116;-0.014051103964447975;0.004002731293439865
0.0084686279296875;-0.117340087890625;-1.0114593505859375;0.016823986545205116;-0.014051103964447975;0.004002731293439865
0.0084686279296875;-0.117340087890625;-1.0114593505859375;0.016823986545205116;-0.014051103964447975;0.004002731293439865
0.008819580078125;-0.1164398193359375;-1.01287841796875;0.0258659515529871;-0.019933227449655533;-0.0006314354832284153
0.008819580078125;-0.1164398193359375;-1.01287841796875;0.0258659515529871;-0.019933227449655533;-0.0006314354832284153
0.008819580078125;-0.1164398193359375;-1.01287841796875;0.0258659515529871;-0.019933227449655533;-0.0006314354832284153
0.008819580078125;-0.1164398193359375;-1.01287841796875;0.0258659515529871;-0.019933227449655533;-0.0006314354832284153
0.008819580078125;-0.1164398193359375;-1.01287841796875;0.0258659515529871;-0.019933227449655533;-0.0006314354832284153
0.0081329345703125;-0.1175079345703125;-1.0133819580078125;0.029397569596767426;-0.020288759842514992;-0.0016607472207397223
0.0081329345703125;-0.1175079345703125;-1.0133819580078125;0.029397569596767426;-0.020288759842514992;-0.0016607472207397223
0.0081329345703125;-0.1175079345703125;-1.0133819580078125;0.029397569596767426;-0.020288759842514992;-0.0016607472207397223
0.0081329345703125;-0.1175079345703125;-1.0133819580078125;0.029397569596767426;-0.020288759842514992;-0.0016607472207397223
0.0081329345703125;-0.1175079345703125;-1.0133819580078125;0.029397569596767426;-0.020288759842514992;-0.0016607472207397223
0.0083160400390625;-0.118255615234375;-1.012237548828125;0.03761368617415428;-0.022594790905714035;-0.0002713761059567332
0.0083160400390625;-0.118255615234375;-1.012237548828125;0.03761368617415428;-0.022594790905714035;-0.0002713761059567332
0.0083160400390625;-0.118255615234375;-1.012237548828125;0.03761368617415428;-0.022594790905714035;-0.0002713761059567332
0.0083160400390625;-0.118255615234375;-1.012237548828125;0.03761368617415428;-0.022594790905714035;-0.0002713761059567332
0.0083160400390625;-0.118255615234375;-1.012237548828125;0.03761368617415428;-0.022594790905714035;-0.0002713761059567332
0.0074920654296875;-0.119964599609375;-1.0105743408203125;0.0421714223921299;-0.026162095367908478;-9.187905379803851e-05
0.0074920654296875;-0.119964599609375;-1.0105743408203125;0.0421714223921299;-0.026162095367908478;-9.187905379803851e-05
0.0074920654296875;-0.119964599609375;-1.0105743408203125;0.0421714223921299;-0.026162095367908478;-9.187905379803851e-05
0.0074920654296875;-0.119964599609375;-1.0105743408203125;0.0421714223921299;-0.026162095367908478;-9.187905379803851e-05
0.0074920654296875;-0.119964599609375;-1.0105743408203125;0.0421714223921299;-0.026162095367908478;-9.187905379803851e-05
0.0076446533203125;-0.1209716796875;-1.00628662109375;0.04579971358180046;-0.030940072610974312;-0.0003371562052052468
0.0076446533203125;-0.1209716796875;-1.00628662109375;0.04579971358180046;-0.030940072610974312;-0.0003371562052052468
0.0076446533203125;-0.1209716796875;-1.00628662109375;0.04579971358180046;-0.030940072610974312;-0.0003371562052052468
0.0076446533203125;-0.1209716796875;-1.00628662109375;0.04579971358180046;-0.030940072610974312;-0.0003371562052052468
0.0076446533203125;-0.1209716796875;-1.00628662109375;0.04579971358180046;-0.030940072610974312;-0.0003371562052052468
0.0074005126953125;-0.1227569580078125;-1.0030975341796875;0.043527502566576004;-0.02473144605755806;0.0008609999786131084
0.0074005126953125;-0.1227569580078125;-1.0030975341796875;0.043527502566576004;-0.02473144605755806;0.0008609999786131084
0.0074005126953125;-0.1227569580078125;-1.0030975341796875;0.043527502566576004;-0.02473144605755806;0.0008609999786131084
0.0074005126953125;-0.1227569580078125;-1.0030975341796875;0.043527502566576004;-0.02473144605755806;0.0008609999786131084
0.0074005126953125;-0.1227569580078125;-1.0030975341796875;0.043527502566576004;-0.02473144605755806;0.0008609999786131084
0.00689697265625;-0.124481201171875;-0.9997100830078125;0.04277196526527405;-0.019631491973996162;0.004339620936661959
0.00689697265625;-0.124481201171875;-0.9997100830078125;0.04277196526527405;-0.019631491973996162;0.004339620936661959
0.00689697265625;-0.124481201171875;-0.9997100830078125;0.04277196526527405;-0.019631491973996162;0.004339620936661959
0.00689697265625;-0.124481201171875;-0.9997100830078125;0.04277196526527405;-0.019631491973996162;0.004339620936661959
0.00689697265625;-0.124481201171875;-0.9997100830078125;0.04277196526527405;-0.019631491973996162;0.004339620936661959
0.006134033203125;-0.1241912841796875;-0.996368408203125;0.03960999473929405;-0.010466489009559155;0.008315454237163067
0.006134033203125;-0.1241912841796875;-0.996368408203125;0.03960999473929405;-0.010466489009559155;0.008315454237163067
0.006134033203125;-0.1241912841796875;-0.996368408203125;0.03960999473929405;-0.010466489009559155;0.008315454237163067
0.006134033203125;-0.1241912841796875;-0.996368408203125;0.03960999473929405;-0.010466489009559155;0.008315454237163067
0.006134033203125;-0.1241912841796875;-0.996368408203125;0.03960999473929405;-0.010466489009559155;0.008315454237163067
0.0066986083984375;-0.12451171875;-0.9956207275390625;0.039202261716127396;-0.005146825220435858;0.006469350773841143
0.0066986083984375;-0.12451171875;-0.9956207275390625;0.039202261716127396;-0.005146825220435858;0.006469350773841143
0.0066986083984375;-0.12451171875;-0.9956207275390625;0.039202261716127396;-0.005146825220435858;0.006469350773841143
0.0066986083984375;-0.12451171875;-0.9956207275390625;0.039202261716127396;-0.005146825220435858;0.006469350773841143
0.0066986083984375;-0.12451171875;-0.9956207275390625;0.039202261716127396;-0.005146825220435858;0.006469350773841143
0.005889892578125;-0.12384033203125;-0.9985198974609375;0.03958176448941231;-0.007960454560816288;0.005291168577969074
0.005889892578125;-0.12384033203125;-0.9985198974609375;0.03958176448941231;-0.007960454560816288;0.005291168577969074
0.005889892578125;-0.12384033203125;-0.9985198974609375;0.03958176448941231;-0.007960454560816288;0.005291168577969074
0.005889892578125;-0.12384033203125;-0.9985198974609375;0.03958176448941231;-0.007960454560816288;0.005291168577969074
0.005889892578125;-0.12384033203125;-0.9985198974609375;0.03958176448941231;-0.007960454560816288;0.005291168577969074
0.0062103271484375;-0.123626708984375;-1.0046539306640625;0.041313618421554565;-0.008971123956143856;0.002552107209339738
0.0062103271484375;-0.123626708984375;-1.0046539306640625;0.041313618421554565;-0.008971123956143856;0.002552107209339738
0.0062103271484375;-0.123626708984375;-1.0046539306640625;0.041313618421554565;-0.008971123956143856;0.002552107209339738
0.0062103271484375;-0.123626708984375;-1.0046539306640625;0.041313618421554565;-0.008971123956143856;0.002552107209339738
0.0062103271484375;-0.123626708984375;-1.0046539306640625;0.041313618421554565;-0.008971123956143856;0.002552107209339738
0.005584716796875;-0.1259918212890625;-1.0080413818359375;0.04610970616340637;-0.0051803807727992535;0.007866178639233112
0.005584716796875;-0.1259918212890625;-1.0080413818359375;0.04610970616340637;-0.0051803807727992535;0.007866178639233112
0.005584716796875;-0.1259918212890625;-1.0080413818359375;0.04610970616340637;-0.0051803807727992535;0.007866178639233112
0.005584716796875;-0.1259918212890625;-1.0080413818359375;0.04610970616340637;-0.0051803807727992535;0.007866178639233112
0.005584716796875;-0.1259918212890625;-1.0080413818359375;0.04610970616340637;-0.0051803807727992535;0.007866178639233112
0.0059051513671875;-0.12738037109375;-1.0085601806640625;0.05134095251560211;-0.00032384038786403835;0.0075788237154483795
0.0059051513671875;-0.12738037109375;-1.0085601806640625;0.05134095251560211;-0.00032384038786403835;0.0075788237154483795
0.0059051513671875;-0.12738037109375;-1.0085601806640625;0.05134095251560211;-0.00032384038786403835;0.0075788237154483795
0.0059051513671875;-0.12738037109375;-1.0085601806640625;0.05134095251560211;-0.00032384038786403835;0.0075788237154483795
0.0059051513671875;-0.12738037109375;-1.0085601806640625;0.05134095251560211;-0.00032384038786403835;0.0075788237154483795
0.0052642822265625;-0.1292572021484375;-1.009552001953125;0.04736778140068054;0.005060805007815361;0.006551109720021486
0.0052642822265625;-0.1292572021484375;-1.009552001953125;0.04736778140068054;0.005060805007815361;0.006551109720021486
0.0052642822265625;-0.1292572021484375;-1.009552001953125;0.04736778140068054;0.005060805007815361;0.006551109720021486
0.0052642822265625;-0.1292572021484375;-1.009552001953125;0.04736778140068054;0.005060805007815361;0.006551109720021486
0.0052642822265625;-0.1292572021484375;-1.009552001953125;0.04736778140068054;0.005060805007815361;0.006551109720021486
0.0053558349609375;-0.1302947998046875;-1.0074920654296875;0.043171439319849014;0.009375392459332943;0.005149221979081631
0.0053558349609375;-0.1302947998046875;-1.0074920654296875;0.043171439319849014;0.009375392459332943;0.005149221979081631
0.0053558349609375;-0.1302947998046875;-1.0074920654296875;0.043171439319849014;0.009375392459332943;0.005149221979081631
0.0053558349609375;-0.1302947998046875;-1.0074920654296875;0.043171439319849014;0.009375392459332943;0.005149221979081631
0.0053558349609375;-0.1302947998046875;-1.0074920654296875;0.043171439319849014;0.009375392459332943;0.005149221979081631
0.0069580078125;-0.13116455078125;-1.0052490234375;0.032343823462724686;0.01167396642267704;0.007604389917105436
0.0069580078125;-0.13116455078125;-1.0052490234375;0.032343823462724686;0.01167396642267704;0.007604389917105436
0.0069580078125;-0.13116455078125;-1.0052490234375;0.032343823462724686;0.01167396642267704;0.007604389917105436
0.0069580078125;-0.13116455078125;-1.0052490234375;0.032343823462724686;0.01167396642267704;0.007604389917105436
0.0069580078125;-0.13116455078125;-1.0052490234375;0.032343823462724686;0.01167396642267704;0.007604389917105436
0.006103515625;-0.1318206787109375;-1.0036468505859375;0.024949291720986366;0.01158475037664175;0.00541447289288044
0.006103515625;-0.1318206787109375;-1.0036468505859375;0.024949291720986366;0.01158475037664175;0.00541447289288044
0.006103515625;-0.1318206787109375;-1.0036468505859375;0.024949291720986366;0.01158475037664175;0.00541447289288044
0.006103515625;-0.1318206787109375;-1.0036468505859375;0.024949291720986366;0.01158475037664175;0.00541447289288044
0.006103515625;-0.1318206787109375;-1.0036468505859375;0.024949291720986366;0.01158475037664175;0.00541447289288044
0.006927490234375;-0.1312408447265625;-1.002716064453125;0.016443688422441483;0.009069661609828472;-0.0012175972806289792
0.006927490234375;-0.1312408447265625;-1.002716064453125;0.016443688422441483;0.009069661609828472;-0.0012175972806289792
0.006927490234375;-0.1312408447265625;-1.002716064453125;0.016443688422441483;0.009069661609828472;-0.0012175972806289792
0.006927490234375;-0.1312408447265625;-1.002716064453125;0.016443688422441483;0.009069661609828472;-0.0012175972806289792
0.006927490234375;-0.1312408447265625;-1.002716064453125;0.016443688422441483;0.009069661609828472;-0.0012175972806289792
0.0075836181640625;-0.1310577392578125;-1.00421142578125;0.014209029264748096;-0.00282082031480968;-0.0005107942852191627
0.0075836181640625;-0.1310577392578125;-1.00421142578125;0.014209029264748096;-0.00282082031480968;-0.0005107942852191627
0.0075836181640625;-0.1310577392578125;-1.00421142578125;0.014209029264748096;-0.00282082031480968;-0.0005107942852191627
0.0075836181640625;-0.1310577392578125;-1.00421142578125;0.014209029264748096;-0.00282082031480968;-0.0005107942852191627
0.0075836181640625;-0.1310577392578125;-1.00421142578125;0.014209029264748096;-0.00282082031480968;-0.0005107942852191627
0.006591796875;-0.1279144287109375;-1.0141143798828125;0.02298094891011715;-0.02183712273836136;-0.00449727987870574
0.006591796875;-0.1279144287109375;-1.0141143798828125;0.02298094891011715;-0.02183712273836136;-0.00449727987870574
0.006591796875;-0.1279144287109375;-1.0141143798828125;0.02298094891011715;-0.02183712273836136;-0.00449727987870574
0.006591796875;-0.1279144287109375;-1.0141143798828125;0.02298094891011715;-0.02183712273836136;-0.00449727987870574
0.006591796875;-0.1279144287109375;-1.0141143798828125;0.02298094891011715;-0.02183712273836136;-0.00449727987870574
0.0047454833984375;-0.124176025390625;-1.022674560546875;0.03368739038705826;-0.04085369035601616;-0.0075841499492526054
0.0047454833984375;-0.124176025390625;-1.022674560546875;0.03368739038705826;-0.04085369035601616;-0.0075841499492526054
0.0047454833984375;-0.124176025390625;-1.022674560546875;0.03368739038705826;-0.04085369035601616;-0.0075841499492526054
0.0047454833984375;-0.124176025390625;-1.022674560546875;0.03368739038705826;-0.04085369035601616;-0.0075841499492526054
0.0047454833984375;-0.124176025390625;-1.022674560546875;0.03368739038705826;-0.04085369035601616;-0.0075841499492526054
0.0034637451171875;-0.12469482421875;-1.0165863037109375;0.03615374490618706;-0.06700007617473602;-0.0070557789877057076
0.0034637451171875;-0.12469482421875;-1.0165863037109375;0.03615374490618706;-0.06700007617473602;-0.0070557789877057076
0.0034637451171875;-0.12469482421875;-1.0165863037109375;0.03615374490618706;-0.06700007617473602;-0.0070557789877057076
0.0034637451171875;-0.12469482421875;-1.0165863037109375;0.03615374490618706;-0.06700007617473602;-0.0070557789877057076
0.0034637451171875;-0.12469482421875;-1.0165863037109375;0.03615374490618706;-0.06700007617473602;-0.0070557789877057076
0.0019683837890625;-0.12567138671875;-1.0074005126953125;0.029021264985203743;-0.06466128677129745;-0.006645385641604662
0.0019683837890625;-0.12567138671875;-1.0074005126953125;0.029021264985203743;-0.06466128677129745;-0.006645385641604662
0.0019683837890625;-0.12567138671875;-1.0074005126953125;0.029021264985203743;-0.06466128677129745;-0.006645385641604662
0.0019683837890625;-0.12567138671875;-1.0074005126953125;0.029021264985203743;-0.06466128677129745;-0.006645385641604662
0.0019683837890625;-0.12567138671875;-1.0074005126953125;0.029021264985203743;-0.06466128677129745;-0.006645385641604662
0.00103759765625;-0.125762939453125;-0.9973907470703125;0.03295661881566048;-0.03278804197907448;-0.002267149044200778
0.00103759765625;-0.125762939453125;-0.9973907470703125;0.03295661881566048;-0.03278804197907448;-0.002267149044200778
0.00103759765625;-0.125762939453125;-0.9973907470703125;0.03295661881566048;-0.03278804197907448;-0.002267149044200778
0.00103759765625;-0.125762939453125;-0.9973907470703125;0.03295661881566048;-0.03278804197907448;-0.002267149044200778
0.00103759765625;-0.125762939453125;-0.9973907470703125;0.03295661881566048;-0.03278804197907448;-0.002267149044200778
-0.0005340576171875;-0.1264190673828125;-0.9946746826171875;0.04140176996588707;-0.002900448627769947;-0.0024743429385125637
-0.0005340576171875;-0.1264190673828125;-0.9946746826171875;0.04140176996588707;-0.002900448627769947;-0.0024743429385125637
-0.0005340576171875;-0.1264190673828125;-0.9946746826171875;0.04140176996588707;-0.002900448627769947;-0.0024743429385125637
-0.0005340576171875;-0.1264190673828125;-0.9946746826171875;0.04140176996588707;-0.002900448627769947;-0.0024743429385125637
-0.0005340576171875;-0.1264190673828125;-0.9946746826171875;0.04140176996588707;-0.002900448627769947;-0.0024743429385125637
0.0007781982421875;-0.1265716552734375;-0.9988555908203125;0.052378520369529724;0.021734856069087982;0.004381965380162001
0.0007781982421875;-0.1265716552734375;-0.9988555908203125;0.052378520369529724;0.021734856069087982;0.004381965380162001
0.0007781982421875;-0.1265716552734375;-0.9988555908203125;0.052378520369529724;0.021734856069087982;0.004381965380162001
0.0007781982421875;-0.1265716552734375;-0.9988555908203125;0.052378520369529724;0.021734856069087982;0.004381965380162001
0.0007781982421875;-0.1265716552734375;-0.9988555908203125;0.052378520369529724;0.021734856069087982;0.004381965380162001
0.0045623779296875;-0.127655029296875;-0.999969482421875;0.055935438722372055;0.03442774713039398;0.002822684356942773
0.0045623779296875;-0.127655029296875;-0.999969482421875;0.055935438722372055;0.03442774713039398;0.002822684356942773
0.0045623779296875;-0.127655029296875;-0.999969482421875;0.055935438722372055;0.03442774713039398;0.002822684356942773
0.0045623779296875;-0.127655029296875;-0.999969482421875;0.055935438722372055;0.03442774713039398;0.002822684356942773
0.0045623779296875;-0.127655029296875;-0.999969482421875;0.05744704604148865;0.03668637573719025;0.006697850301861763
0.0076904296875;-0.1271514892578125;-1.0018463134765625;0.05744704604148865;0.03668637573719025;0.006697850301861763
0.0076904296875;-0.1271514892578125;-1.0018463134765625;0.05744704604148865;0.03668637573719025;0.006697850301861763
0.0076904296875;-0.1271514892578125;-1.0018463134765625;0.05744704604148865;0.03668637573719025;0.006697850301861763
0.0076904296875;-0.1271514892578125;-1.0018463134765625;0.05744704604148865;0.03668637573719025;0.006697850301861763
0.0076904296875;-0.1271514892578125;-1.0018463134765625;0.060087572783231735;0.031926508992910385;0.007366836071014404
0.0113525390625;-0.128814697265625;-1.00469970703125;0.060087572783231735;0.031926508992910385;0.007366836071014404
0.0113525390625;-0.128814697265625;-1.00469970703125;0.060087572783231735;0.031926508992910385;0.007366836071014404
0.0113525390625;-0.128814697265625;-1.00469970703125;0.060087572783231735;0.031926508992910385;0.007366836071014404
0.0113525390625;-0.128814697265625;-1.00469970703125;0.060087572783231735;0.031926508992910385;0.007366836071014404
0.0113525390625;-0.128814697265625;-1.00469970703125;0.06037359684705734;0.02370905689895153;0.008497614413499832
0.0127105712890625;-0.130859375;-1.007843017578125;0.06037359684705734;0.02370905689895153;0.008497614413499832
0.0127105712890625;-0.130859375;-1.007843017578125;0.06037359684705734;0.02370905689895153;0.008497614413499832
0.0127105712890625;-0.130859375;-1.007843017578125;0.06037359684705734;0.02370905689895153;0.008497614413499832
0.0127105712890625;-0.130859375;-1.007843017578125;0.06037359684705734;0.02370905689895153;0.008497614413499832
0.0130767822265625;-0.1356201171875;-1.011199951171875;0.05648617818951607;0.016522783786058426;0.009940515272319317
0.0130767822265625;-0.1356201171875;-1.011199951171875;0.05648617818951607;0.016522783786058426;0.009940515272319317
0.0130767822265625;-0.1356201171875;-1.011199951171875;0.05648617818951607;0.016522783786058426;0.009940515272319317
0.0130767822265625;-0.1356201171875;-1.011199951171875;0.05648617818951607;0.016522783786058426;0.009940515272319317
0.0130767822265625;-0.1356201171875;-1.011199951171875;0.05648617818951607;0.016522783786058426;0.009940515272319317
0.0117645263671875;-0.13983154296875;-1.010223388671875;0.04548732191324234;0.00746244378387928;0.0070397998206317425
0.0117645263671875;-0.13983154296875;-1.010223388671875;0.04548732191324234;0.00746244378387928;0.0070397998206317425
0.0117645263671875;-0.13983154296875;-1.010223388671875;0.04548732191324234;0.00746244378387928;0.0070397998206317425
0.0117645263671875;-0.13983154296875;-1.010223388671875;0.04548732191324234;0.00746244378387928;0.0070397998206317425
0.0117645263671875;-0.13983154296875;-1.010223388671875;0.04548732191324234;0.00746244378387928;0.0070397998206317425
0.00811767578125;-0.1411285400390625;-1.0082244873046875;0.026730414479970932;-0.0015004249289631844;0.0023158849216997623
0.00811767578125;-0.1411285400390625;-1.0082244873046875;0.026730414479970932;-0.0015004249289631844;0.0023158849216997623
0.00811767578125;-0.1411285400390625;-1.0082244873046875;0.026730414479970932;-0.0015004249289631844;0.0023158849216997623
0.00811767578125;-0.1411285400390625;-1.0082244873046875;0.026730414479970932;-0.0015004249289631844;0.0023158849216997623
0.00811767578125;-0.1411285400390625;-1.0082244873046875;0.026730414479970932;-0.0015004249289631844;0.0023158849216997623
0.006805419921875;-0.1428985595703125;-1.0051422119140625;0.009040899574756622;-0.005887450184673071;0.0010162622202187777
0.006805419921875;-0.1428985595703125;-1.0051422119140625;0.009040899574756622;-0.005887450184673071;0.0010162622202187777
0.006805419921875;-0.1428985595703125;-1.0051422119140625;0.009040899574756622;-0.005887450184673071;0.0010162622202187777
0.006805419921875;-0.1428985595703125;-1.0051422119140625;0.009040899574756622;-0.005887450184673071;0.0010162622202187777
0.006805419921875;-0.1428985595703125;-1.0051422119140625;0.009040899574756622;-0.005887450184673071;0.0010162622202187777
0.0049591064453125;-0.1432342529296875;-1.0040435791015625;-0.0016146745765581727;-0.007869641296565533;-0.001341434195637703
0.0049591064453125;-0.1432342529296875;-1.0040435791015625;-0.0016146745765581727;-0.007869641296565533;-0.001341434195637703
0.0049591064453125;-0.1432342529296875;-1.0040435791015625;-0.0016146745765581727;-0.007869641296565533;-0.001341434195637703
0.0049591064453125;-0.1432342529296875;-1.0040435791015625;-0.0016146745765581727;-0.007869641296565533;-0.001341434195637703
0.0049591064453125;-0.1432342529296875;-1.0040435791015625;-0.0016146745765581727;-0.007869641296565533;-0.001341434195637703
0.005828857421875;-0.1410369873046875;-1.004913330078125;-0.014031130820512772;-0.0007938882918097079;-0.0044171190820634365
0.005828857421875;-0.1410369873046875;-1.004913330078125;-0.014031130820512772;-0.0007938882918097079;-0.0044171190820634365
0.005828857421875;-0.1410369873046875;-1.004913330078125;-0.014031130820512772;-0.0007938882918097079;-0.0044171190820634365
0.005828857421875;-0.1410369873046875;-1.004913330078125;-0.014031130820512772;-0.0007938882918097079;-0.0044171190820634365
0.005828857421875;-0.1410369873046875;-1.004913330078125;-0.014031130820512772;-0.0007938882918097079;-0.0044171190820634365
0.0063934326171875;-0.1403045654296875;-1.0063018798828125;-0.011949603445827961;0.001740375766530633;-0.0035228293854743242
0.0063934326171875;-0.1403045654296875;-1.0063018798828125;-0.011949603445827961;0.001740375766530633;-0.0035228293854743242
0.0063934326171875;-0.1403045654296875;-1.0063018798828125;-0.011949603445827961;0.001740375766530633;-0.0035228293854743242
0.0063934326171875;-0.1403045654296875;-1.0063018798828125;-0.011949603445827961;0.001740375766530633;-0.0035228293854743242
0.0063934326171875;-0.1403045654296875;-1.0063018798828125;-0.011949603445827961;0.001740375766530633;-0.0035228293854743242
0.0078887939453125;-0.1368560791015625;-1.008636474609375;-0.007481351960450411;0.0002103897277265787;-0.0008191883680410683
0.0078887939453125;-0.1368560791015625;-1.008636474609375;-0.007481351960450411;0.0002103897277265787;-0.0008191883680410683
0.0078887939453125;-0.1368560791015625;-1.008636474609375;-0.007481351960450411;0.0002103897277265787;-0.0008191883680410683
0.0078887939453125;-0.1368560791015625;-1.008636474609375;-0.007481351960450411;0.0002103897277265787;-0.0008191883680410683
0.0078887939453125;-0.1368560791015625;-1.008636474609375;-0.007481351960450411;0.0002103897277265787;-0.0008191883680410683
0.00927734375;-0.134033203125;-1.0100250244140625;0.0031577101908624172;-0.005869074258953333;-0.0008905610884539783
0.00927734375;-0.134033203125;-1.0100250244140625;0.0031577101908624172;-0.005869074258953333;-0.0008905610884539783
0.00927734375;-0.134033203125;-1.0100250244140625;0.0031577101908624172;-0.005869074258953333;-0.0008905610884539783
0.00927734375;-0.134033203125;-1.0100250244140625;0.0031577101908624172;-0.005869074258953333;-0.0008905610884539783
0.00927734375;-0.134033203125;-1.0100250244140625;0.0031577101908624172;-0.005869074258953333;-0.0008905610884539783
0.0092926025390625;-0.1327056884765625;-1.0110015869140625;0.015576562844216824;-0.009120527654886246;0.000746750389225781
0.0092926025390625;-0.1327056884765625;-1.0110015869140625;0.015576562844216824;-0.009120527654886246;0.000746750389225781
0.0092926025390625;-0.1327056884765625;-1.0110015869140625;0.015576562844216824;-0.009120527654886246;0.000746750389225781
0.0092926025390625;-0.1327056884765625;-1.0110015869140625;0.015576562844216824;-0.009120527654886246;0.000746750389225781
0.0092926025390625;-0.1327056884765625;-1.0110015869140625;0.015576562844216824;-0.009120527654886246;0.000746750389225781
0.0083160400390625;-0.130828857421875;-1.011932373046875;0.03310948237776756;-0.010831874795258045;0.0012508867075666785
0.0083160400390625;-0.130828857421875;-1.011932373046875;0.03310948237776756;-0.010831874795258045;0.0012508867075666785
0.0083160400390625;-0.130828857421875;-1.011932373046875;0.03310948237776756;-0.010831874795258045;0.0012508867075666785
0.0083160400390625;-0.130828857421875;-1.011932373046875;0.03310948237776756;-0.010831874795258045;0.0012508867075666785
0.0083160400390625;-0.130828857421875;-1.011932373046875;0.03310948237776756;-0.010831874795258045;0.0012508867075666785
0.0080413818359375;-0.129852294921875;-1.0116119384765625;0.04542021080851555;-0.011387144215404987;0.00044022052315995097
0.0080413818359375;-0.129852294921875;-1.0116119384765625;0.04542021080851555;-0.011387144215404987;0.00044022052315995097
0.0080413818359375;-0.129852294921875;-1.0116119384765625;0.04542021080851555;-0.011387144215404987;0.00044022052315995097
0.0080413818359375;-0.129852294921875;-1.0116119384765625;0.04542021080851555;-0.011387144215404987;0.00044022052315995097
0.0080413818359375;-0.129852294921875;-1.0116119384765625;0.04542021080851555;-0.011387144215404987;0.00044022052315995097
0.006195068359375;-0.1314544677734375;-1.01226806640625;0.057680871337652206;-0.012752546928822994;0.001100950757972896
0.006195068359375;-0.1314544677734375;-1.01226806640625;0.057680871337652206;-0.012752546928822994;0.001100950757972896
0.006195068359375;-0.1314544677734375;-1.01226806640625;0.057680871337652206;-0.012752546928822994;0.001100950757972896
0.006195068359375;-0.1314544677734375;-1.01226806640625;0.057680871337652206;-0.012752546928822994;0.001100950757972896
0.006195068359375;-0.1314544677734375;-1.01226806640625;0.057680871337652206;-0.012752546928822994;0.001100950757972896
0.00506591796875;-0.132476806640625;-1.0111846923828125;0.06721099466085434;-0.009761017747223377;-0.0011520835105329752
0.00506591796875;-0.132476806640625;-1.0111846923828125;0.06721099466085434;-0.009761017747223377;-0.0011520835105329752
0.00506591796875;-0.132476806640625;-1.0111846923828125;0.06721099466085434;-0.009761017747223377;-0.0011520835105329752
0.00506591796875;-0.132476806640625;-1.0111846923828125;0.06721099466085434;-0.009761017747223377;-0.0011520835105329752
0.00506591796875;-0.132476806640625;-1.0111846923828125;0.06721099466085434;-0.009761017747223377;-0.0011520835105329752
0.0044097900390625;-0.1343231201171875;-1.0093231201171875;0.06604772806167603;-0.007078948430716991;-0.00024154871061909944
0.0044097900390625;-0.1343231201171875;-1.0093231201171875;0.06604772806167603;-0.007078948430716991;-0.00024154871061909944
0.0044097900390625;-0.1343231201171875;-1.0093231201171875;0.06604772806167603;-0.007078948430716991;-0.00024154871061909944
0.0044097900390625;-0.1343231201171875;-1.0093231201171875;0.06604772806167603;-0.007078948430716991;-0.00024154871061909944
0.0044097900390625;-0.1343231201171875;-1.0093231201171875;0.06604772806167603;-0.007078948430716991;-0.00024154871061909944
0.0050201416015625;-0.136688232421875;-1.00830078125;0.06133446469902992;-0.0038133803755044937;0.0004271710349712521
0.0050201416015625;-0.136688232421875;-1.00830078125;0.06133446469902992;-0.0038133803755044937;0.0004271710349712521
0.0050201416015625;-0.136688232421875;-1.00830078125;0.06133446469902992;-0.0038133803755044937;0.0004271710349712521
0.0050201416015625;-0.136688232421875;-1.00830078125;0.06133446469902992;-0.0038133803755044937;0.0004271710349712521
0.0050201416015625;-0.136688232421875;-1.00830078125;0.06133446469902992;-0.0038133803755044937;0.0004271710349712521
0.006683349609375;-0.139434814453125;-1.0059356689453125;0.05353885889053345;-0.002639725338667631;0.0025936525780707598
0.006683349609375;-0.139434814453125;-1.0059356689453125;0.05353885889053345;-0.002639725338667631;0.0025936525780707598
0.006683349609375;-0.139434814453125;-1.0059356689453125;0.05353885889053345;-0.002639725338667631;0.0025936525780707598
0.006683349609375;-0.139434814453125;-1.0059356689453125;0.05353885889053345;-0.002639725338667631;0.0025936525780707598
0.006683349609375;-0.139434814453125;-1.0059356689453125;0.05353885889053345;-0.002639725338667631;0.0025936525780707598
0.006011962890625;-0.1411590576171875;-1.0043182373046875;0.0462774820625782;0.002356897573918104;0.0032144354190677404
0.006011962890625;-0.1411590576171875;-1.0043182373046875;0.0462774820625782;0.002356897573918104;0.0032144354190677404
0.006011962890625;-0.1411590576171875;-1.0043182373046875;0.0462774820625782;0.002356897573918104;0.0032144354190677404
0.006011962890625;-0.1411590576171875;-1.0043182373046875;0.0462774820625782;0.002356897573918104;0.0032144354190677404
0.006011962890625;-0.1411590576171875;-1.0043182373046875;0.0462774820625782;0.002356897573918104;0.0032144354190677404
0.0050506591796875;-0.1413726806640625;-1.0034942626953125;0.03776681795716286;-0.007882158271968365;-0.0011536814272403717
0.0050506591796875;-0.1413726806640625;-1.0034942626953125;0.03776681795716286;-0.007882158271968365;-0.0011536814272403717
0.0050506591796875;-0.1413726806640625;-1.0034942626953125;0.03776681795716286;-0.007882158271968365;-0.0011536814272403717
0.0050506591796875;-0.1413726806640625;-1.0034942626953125;0.03776681795716286;-0.007882158271968365;-0.0011536814272403717
0.0050506591796875;-0.1413726806640625;-1.0034942626953125;0.03776681795716286;-0.007882158271968365;-0.0011536814272403717
0.0057525634765625;-0.1432037353515625;-1.0078887939453125;0.03642299026250839;-0.013517939485609531;-1.757686368364375e-05
0.0057525634765625;-0.1432037353515625;-1.0078887939453125;0.03642299026250839;-0.013517939485609531;-1.757686368364375e-05
0.0057525634765625;-0.1432037353515625;-1.0078887939453125;0.03642299026250839;-0.013517939485609531;-1.757686368364375e-05
0.0057525634765625;-0.1432037353515625;-1.0078887939453125;0.03642299026250839;-0.013517939485609531;-1.757686368364375e-05
0.0057525634765625;-0.1432037353515625;-1.0078887939453125;0.03642299026250839;-0.013517939485609531;-1.757686368364375e-05
0.006988525390625;-0.145843505859375;-1.007843017578125;0.027103256434202194;-0.008222510106861591;0.0006823018775321543
0.006988525390625;-0.145843505859375;-1.007843017578125;0.027103256434202194;-0.008222510106861591;0.0006823018775321543
0.006988525390625;-0.145843505859375;-1.007843017578125;0.027103256434202194;-0.008222510106861591;0.0006823018775321543
0.006988525390625;-0.145843505859375;-1.007843017578125;0.027103256434202194;-0.008222510106861591;0.0006823018775321543
0.006988525390625;-0.145843505859375;-1.007843017578125;0.027103256434202194;-0.008222510106861591;0.0006823018775321543
0.0056304931640625;-0.1472625732421875;-1.003570556640625;0.02099050208926201;-0.005732454359531403;0.0005917543894611299
0.0056304931640625;-0.1472625732421875;-1.003570556640625;0.02099050208926201;-0.005732454359531403;0.0005917543894611299
0.0056304931640625;-0.1472625732421875;-1.003570556640625;0.02099050208926201;-0.005732454359531403;0.0005917543894611299
0.0056304931640625;-0.1472625732421875;-1.003570556640625;0.02099050208926201;-0.005732454359531403;0.0005917543894611299
0.0056304931640625;-0.1472625732421875;-1.003570556640625;0.02099050208926201;-0.005732454359531403;0.0005917543894611299
0.0036468505859375;-0.1457977294921875;-1.001434326171875;0.011028682813048363;-0.007168164476752281;-0.002368349116295576
0.0036468505859375;-0.1457977294921875;-1.001434326171875;0.011028682813048363;-0.007168164476752281;-0.002368349116295576
0.0036468505859375;-0.1457977294921875;-1.001434326171875;0.011028682813048363;-0.007168164476752281;-0.002368349116295576
0.0036468505859375;-0.1457977294921875;-1.001434326171875;0.011028682813048363;-0.007168164476752281;-0.002368349116295576
0.0036468505859375;-0.1457977294921875;-1.001434326171875;0.011028682813048363;-0.007168164476752281;-0.002368349116295576
0.0036468505859375;-0.1457977294921875;-1.001434326171875;0.003882089862599969;-0.00740145705640316;-0.0009289105655625463
0.0027618408203125;-0.1436614990234375;-1.001007080078125;0.003882089862599969;-0.00740145705640316;-0.0009289105655625463
0.0027618408203125;-0.1436614990234375;-1.001007080078125;0.003882089862599969;-0.00740145705640316;-0.0009289105655625463
0.0027618408203125;-0.1436614990234375;-1.001007080078125;0.003882089862599969;-0.00740145705640316;-0.0009289105655625463
0.0027618408203125;-0.1436614990234375;-1.001007080078125;0.003882089862599969;-0.00740145705640316;-0.0009289105655625463
0.002960205078125;-0.143341064453125;-1.0016326904296875;-0.0015214639715850353;-0.007636614143848419;-0.00018029600323643535
0.002960205078125;-0.143341064453125;-1.0016326904296875;-0.0015214639715850353;-0.007636614143848419;-0.00018029600323643535
0.002960205078125;-0.143341064453125;-1.0016326904296875;-0.0015214639715850353;-0.007636614143848419;-0.00018029600323643535
0.002960205078125;-0.143341064453125;-1.0016326904296875;-0.0015214639715850353;-0.007636614143848419;-0.00018029600323643535
0.002960205078125;-0.143341064453125;-1.0016326904296875;-0.0015214639715850353;-0.007636614143848419;-0.00018029600323643535
0.0040283203125;-0.1426849365234375;-1.001922607421875;0.001210939371958375;0.005150021053850651;-0.0008287757518701255
0.0040283203125;-0.1426849365234375;-1.001922607421875;0.001210939371958375;0.005150021053850651;-0.0008287757518701255
0.0040283203125;-0.1426849365234375;-1.001922607421875;0.001210939371958375;0.005150021053850651;-0.0008287757518701255
0.0040283203125;-0.1426849365234375;-1.001922607421875;0.001210939371958375;0.005150021053850651;-0.0008287757518701255
0.0040283203125;-0.1426849365234375;-1.001922607421875;0.001210939371958375;0.005150021053850651;-0.0008287757518701255
0.00396728515625;-0.142547607421875;-1.0040283203125;0.002685797866433859;0.0150990579277277;0.0010218549286946654
0.00396728515625;-0.142547607421875;-1.0040283203125;0.002685797866433859;0.0150990579277277;0.0010218549286946654
0.00396728515625;-0.142547607421875;-1.0040283203125;0.002685797866433859;0.0150990579277277;0.0010218549286946654
0.00396728515625;-0.142547607421875;-1.0040283203125;0.002685797866433859;0.0150990579277277;0.0010218549286946654
0.00396728515625;-0.142547607421875;-1.0040283203125;0.002685797866433859;0.0150990579277277;0.0010218549286946654
0.0050506591796875;-0.14251708984375;-1.004180908203125;0.008131429553031921;0.022578014060854912;0.004677842371165752
0.0050506591796875;-0.14251708984375;-1.004180908203125;0.008131429553031921;0.022578014060854912;0.004677842371165752
0.0050506591796875;-0.14251708984375;-1.004180908203125;0.008131429553031921;0.022578014060854912;0.004677842371165752
0.0050506591796875;-0.14251708984375;-1.004180908203125;0.008131429553031921;0.022578014060854912;0.004677842371165752
0.0050506591796875;-0.14251708984375;-1.004180908203125;0.008131429553031921;0.022578014060854912;0.004677842371165752
0.0074005126953125;-0.141754150390625;-1.0049285888671875;0.01284868735820055;0.02178838662803173;0.003674097126349807
0.0074005126953125;-0.141754150390625;-1.0049285888671875;0.01284868735820055;0.02178838662803173;0.003674097126349807
0.0074005126953125;-0.141754150390625;-1.0049285888671875;0.01284868735820055;0.02178838662803173;0.003674097126349807
0.0074005126953125;-0.141754150390625;-1.0049285888671875;0.01284868735820055;0.02178838662803173;0.003674097126349807
0.0074005126953125;-0.141754150390625;-1.0049285888671875;0.01284868735820055;0.02178838662803173;0.003674097126349807
0.0074615478515625;-0.1417388916015625;-1.0097503662109375;0.021138841286301613;0.020019248127937317;0.0028812738601118326
0.0074615478515625;-0.1417388916015625;-1.0097503662109375;0.021138841286301613;0.020019248127937317;0.0028812738601118326
0.0074615478515625;-0.1417388916015625;-1.0097503662109375;0.021138841286301613;0.020019248127937317;0.0028812738601118326
0.0074615478515625;-0.1417388916015625;-1.0097503662109375;0.021138841286301613;0.020019248127937317;0.0028812738601118326
0.0074615478515625;-0.1417388916015625;-1.0097503662109375;0.021138841286301613;0.020019248127937317;0.0028812738601118326
0.0078887939453125;-0.1407470703125;-1.01336669921875;0.031000260263681412;0.01624554954469204;0.0014745922526344657
0.0078887939453125;-0.1407470703125;-1.01336669921875;0.031000260263681412;0.01624554954469204;0.0014745922526344657
0.0078887939453125;-0.1407470703125;-1.01336669921875;0.031000260263681412;0.01624554954469204;0.0014745922526344657
0.0078887939453125;-0.1407470703125;-1.01336669921875;0.031000260263681412;0.01624554954469204;0.0014745922526344657
0.0078887939453125;-0.1407470703125;-1.01336669921875;0.031000260263681412;0.01624554954469204;0.0014745922526344657
0.007476806640625;-0.14141845703125;-1.0155487060546875;0.04372377693653107;0.009065133519470692;-0.0004945489927195013
0.007476806640625;-0.14141845703125;-1.0155487060546875;0.04372377693653107;0.009065133519470692;-0.0004945489927195013
0.007476806640625;-0.14141845703125;-1.0155487060546875;0.04372377693653107;0.009065133519470692;-0.0004945489927195013
0.007476806640625;-0.14141845703125;-1.0155487060546875;0.04372377693653107;0.009065133519470692;-0.0004945489927195013
0.007476806640625;-0.14141845703125;-1.0155487060546875;0.04372377693653107;0.009065133519470692;-0.0004945489927195013
0.007537841796875;-0.1427764892578125;-1.016204833984375;0.04914011433720589;-0.0006186523241922259;-0.0012745888670906425
0.007537841796875;-0.1427764892578125;-1.016204833984375;0.04914011433720589;-0.0006186523241922259;-0.0012745888670906425
0.007537841796875;-0.1427764892578125;-1.016204833984375;0.04914011433720589;-0.0006186523241922259;-0.0012745888670906425
0.007537841796875;-0.1427764892578125;-1.016204833984375;0.04914011433720589;-0.0006186523241922259;-0.0012745888670906425
0.007537841796875;-0.1427764892578125;-1.016204833984375;0.04914011433720589;-0.0006186523241922259;-0.0012745888670906425
0.0070037841796875;-0.143829345703125;-1.0158843994140625;0.055757004767656326;-0.003936418332159519;0.0012783173006027937
0.0070037841796875;-0.143829345703125;-1.0158843994140625;0.055757004767656326;-0.003936418332159519;0.0012783173006027937
0.0070037841796875;-0.143829345703125;-1.0158843994140625;0.055757004767656326;-0.003936418332159519;0.0012783173006027937
0.0070037841796875;-0.143829345703125;-1.0158843994140625;0.055757004767656326;-0.003936418332159519;0.0012783173006027937
0.0070037841796875;-0.143829345703125;-1.0158843994140625;0.055757004767656326;-0.003936418332159519;0.0012783173006027937
0.0073089599609375;-0.1436004638671875;-1.0146026611328125;0.060631390661001205;0.0009693906176835299;0.001088966615498066
0.0073089599609375;-0.1436004638671875;-1.0146026611328125;0.060631390661001205;0.0009693906176835299;0.001088966615498066
0.0073089599609375;-0.1436004638671875;-1.0146026611328125;0.060631390661001205;0.0009693906176835299;0.001088966615498066
0.0073089599609375;-0.1436004638671875;-1.0146026611328125;0.060631390661001205;0.0009693906176835299;0.001088966615498066
0.0073089599609375;-0.1436004638671875;-1.0146026611328125;0.060631390661001205;0.0009693906176835299;0.001088966615498066
0.0070343017578125;-0.1448211669921875;-1.0126495361328125;0.06132141500711441;-0.0027092336677014828;-2.956108801299706e-05
0.0070343017578125;-0.1448211669921875;-1.0126495361328125;0.06132141500711441;-0.0027092336677014828;-2.956108801299706e-05
0.0070343017578125;-0.1448211669921875;-1.0126495361328125;0.06132141500711441;-0.0027092336677014828;-2.956108801299706e-05
0.0070343017578125;-0.1448211669921875;-1.0126495361328125;0.06132141500711441;-0.0027092336677014828;-2.956108801299706e-05
0.0070343017578125;-0.1448211669921875;-1.0126495361328125;0.06298482418060303;-0.00526693370193243;0.004644286818802357
0.0085601806640625;-0.1458587646484375;-1.0099334716796875;0.06298482418060303;-0.00526693370193243;0.004644286818802357
0.0085601806640625;-0.1458587646484375;-1.0099334716796875;0.06298482418060303;-0.00526693370193243;0.004644286818802357
0.0085601806640625;-0.1458587646484375;-1.0099334716796875;0.06298482418060303;-0.00526693370193243;0.004644286818802357
0.0085601806640625;-0.1458587646484375;-1.0099334716796875;0.06298482418060303;-0.00526693370193243;0.004644286818802357
0.0085601806640625;-0.1458587646484375;-1.0099334716796875;0.06088785082101822;-0.0024679512716829777;0.0062943813391029835
0.0095062255859375;-0.1455841064453125;-1.0083465576171875;0.06088785082101822;-0.0024679512716829777;0.0062943813391029835
0.0095062255859375;-0.1455841064453125;-1.0083465576171875;0.06088785082101822;-0.0024679512716829777;0.0062943813391029835
0.0095062255859375;-0.1455841064453125;-1.0083465576171875;0.06088785082101822;-0.0024679512716829777;0.0062943813391029835
0.0095062255859375;-0.1455841064453125;-1.0083465576171875;0.06088785082101822;-0.0024679512716829777;0.0062943813391029835
0.0093536376953125;-0.14617919921875;-1.00689697265625;0.059234827756881714;-0.0060171461664140224;0.005301288329064846
0.0093536376953125;-0.14617919921875;-1.00689697265625;0.059234827756881714;-0.0060171461664140224;0.005301288329064846
0.0093536376953125;-0.14617919921875;-1.00689697265625;0.059234827756881714;-0.0060171461664140224;0.005301288329064846
0.0093536376953125;-0.14617919921875;-1.00689697265625;0.059234827756881714;-0.0060171461664140224;0.005301288329064846
0.0093536376953125;-0.14617919921875;-1.00689697265625;0.059234827756881714;-0.0060171461664140224;0.005301288329064846
0.0093536376953125;-0.14617919921875;-1.00689697265625;0.059234827756881714;-0.0060171461664140224;0.005301288329064846
0.0091094970703125;-0.1459503173828125;-1.00543212890625;0.05989422649145126;-0.004555603489279747;0.0033004553988575935
0.0091094970703125;-0.1459503173828125;-1.00543212890625;0.05989422649145126;-0.004555603489279747;0.0033004553988575935
0.0091094970703125;-0.1459503173828125;-1.00543212890625;0.05989422649145126;-0.004555603489279747;0.0033004553988575935
0.0091094970703125;-0.1459503173828125;-1.00543212890625;0.05989422649145126;-0.004555603489279747;0.0033004553988575935
0.008514404296875;-0.1470489501953125;-1.0059967041015625;0.05932164564728737;-0.004454403184354305;0.0026549051981419325
0.008514404296875;-0.1470489501953125;-1.0059967041015625;0.05932164564728737;-0.004454403184354305;0.0026549051981419325
0.008514404296875;-0.1470489501953125;-1.0059967041015625;0.05932164564728737;-0.004454403184354305;0.0026549051981419325
0.008514404296875;-0.1470489501953125;-1.0059967041015625;0.05932164564728737;-0.004454403184354305;0.0026549051981419325
0.008514404296875;-0.1470489501953125;-1.0059967041015625;0.05932164564728737;-0.004454403184354305;0.0026549051981419325
0.0075836181640625;-0.1468505859375;-1.0050506591796875;0.05748086795210838;-0.0010527475969865918;0.0037819549906998873
0.0075836181640625;-0.1468505859375;-1.0050506591796875;0.05748086795210838;-0.0010527475969865918;0.0037819549906998873
0.0075836181640625;-0.1468505859375;-1.0050506591796875;0.05748086795210838;-0.0010527475969865918;0.0037819549906998873
0.0075836181640625;-0.1468505859375;-1.0050506591796875;0.05748086795210838;-0.0010527475969865918;0.0037819549906998873
0.0075836181640625;-0.1468505859375;-1.0050506591796875;0.05748086795210838;-0.0010527475969865918;0.0037819549906998873
0.0075836181640625;-0.1468505859375;-1.0050506591796875;0.052919406443834305;-0.006452572997659445;0.0018338527297601104
0.0077667236328125;-0.1480712890625;-1.004302978515625;0.052919406443834305;-0.006452572997659445;0.0018338527297601104
0.0077667236328125;-0.1480712890625;-1.004302978515625;0.052919406443834305;-0.006452572997659445;0.0018338527297601104
0.0077667236328125;-0.1480712890625;-1.004302978515625;0.052919406443834305;-0.006452572997659445;0.0018338527297601104
0.0077667236328125;-0.1480712890625;-1.004302978515625;0.052919406443834305;-0.006452572997659445;0.0018338527297601104
0.0087738037109375;-0.1499481201171875;-1.00396728515625;0.05206586420536041;-0.005399559158831835;1.0652644277797663e-06
0.0087738037109375;-0.1499481201171875;-1.00396728515625;0.05206586420536041;-0.005399559158831835;1.0652644277797663e-06
0.0087738037109375;-0.1499481201171875;-1.00396728515625;0.05206586420536041;-0.005399559158831835;1.0652644277797663e-06
0.0087738037109375;-0.1499481201171875;-1.00396728515625;0.05206586420536041;-0.005399559158831835;1.0652644277797663e-06
0.0087738037109375;-0.1499481201171875;-1.00396728515625;0.05206586420536041;-0.005399559158831835;1.0652644277797663e-06
0.0087738037109375;-0.1499481201171875;-1.00396728515625;0.053896255791187286;0.0014684670604765415;0.001654622028581798
0.0076141357421875;-0.1507415771484375;-1.004638671875;0.053896255791187286;0.0014684670604765415;0.001654622028581798
0.0076141357421875;-0.1507415771484375;-1.004638671875;0.053896255791187286;0.0014684670604765415;0.001654622028581798
0.0076141357421875;-0.1507415771484375;-1.004638671875;0.053896255791187286;0.0014684670604765415;0.001654622028581798
0.0076141357421875;-0.1507415771484375;-1.004638671875;0.053896255791187286;0.0014684670604765415;0.001654622028581798
0.0078277587890625;-0.151702880859375;-1.0038909912109375;0.052852828055620193;0.001829591696150601;0.0005446164286695421
0.0078277587890625;-0.151702880859375;-1.0038909912109375;0.052852828055620193;0.001829591696150601;0.0005446164286695421
0.0078277587890625;-0.151702880859375;-1.0038909912109375;0.052852828055620193;0.001829591696150601;0.0005446164286695421
0.0078277587890625;-0.151702880859375;-1.0038909912109375;0.052852828055620193;0.001829591696150601;0.0005446164286695421
0.0078277587890625;-0.151702880859375;-1.0038909912109375;0.052852828055620193;0.001829591696150601;0.0005446164286695421
0.00799560546875;-0.1530914306640625;-1.0051422119140625;0.0557442232966423;0.004866127856075764;0.0008197209681384265
0.00799560546875;-0.1530914306640625;-1.0051422119140625;0.0557442232966423;0.004866127856075764;0.0008197209681384265
0.00799560546875;-0.1530914306640625;-1.0051422119140625;0.0557442232966423;0.004866127856075764;0.0008197209681384265
0.00799560546875;-0.1530914306640625;-1.0051422119140625;0.0557442232966423;0.004866127856075764;0.0008197209681384265
0.00799560546875;-0.1530914306640625;-1.0051422119140625;0.0557442232966423;0.004866127856075764;0.0008197209681384265
0.0071258544921875;-0.1527099609375;-1.0063629150390625;0.06341759115457535;0.00401711231097579;0.0004114583716727793
0.0071258544921875;-0.1527099609375;-1.0063629150390625;0.06341759115457535;0.00401711231097579;0.0004114583716727793
0.0071258544921875;-0.1527099609375;-1.0063629150390625;0.06341759115457535;0.00401711231097579;0.0004114583716727793
0.0071258544921875;-0.1527099609375;-1.0063629150390625;0.06341759115457535;0.00401711231097579;0.0004114583716727793
0.0071258544921875;-0.1527099609375;-1.0063629150390625;0.06341759115457535;0.00401711231097579;0.0004114583716727793
0.0087127685546875;-0.1531524658203125;-1.0072174072265625;0.06124045327305794;0.007010771427303553;0.001014398061670363
0.0087127685546875;-0.1531524658203125;-1.0072174072265625;0.06124045327305794;0.007010771427303553;0.001014398061670363
0.0087127685546875;-0.1531524658203125;-1.0072174072265625;0.06124045327305794;0.007010771427303553;0.001014398061670363
0.0087127685546875;-0.1531524658203125;-1.0072174072265625;0.06124045327305794;0.007010771427303553;0.001014398061670363
0.0087127685546875;-0.1531524658203125;-1.0072174072265625;0.06124045327305794;0.007010771427303553;0.001014398061670363
0.008270263671875;-0.1528778076171875;-1.007049560546875;0.060621801763772964;0.0026008430868387222;0.0019406455103307962
0.008270263671875;-0.1528778076171875;-1.007049560546875;0.060621801763772964;0.0026008430868387222;0.0019406455103307962
0.008270263671875;-0.1528778076171875;-1.007049560546875;0.060621801763772964;0.0026008430868387222;0.0019406455103307962
0.008270263671875;-0.1528778076171875;-1.007049560546875;0.060621801763772964;0.0026008430868387222;0.0019406455103307962
0.008270263671875;-0.1528778076171875;-1.007049560546875;0.060621801763772964;0.0026008430868387222;0.0019406455103307962
0.0076751708984375;-0.1534271240234375;-1.0048675537109375;0.05805984139442444;0.0016447682864964008;-0.0015560849569737911
0.0076751708984375;-0.1534271240234375;-1.0048675537109375;0.05805984139442444;0.0016447682864964008;-0.0015560849569737911
0.0076751708984375;-0.1534271240234375;-1.0048675537109375;0.05805984139442444;0.0016447682864964008;-0.0015560849569737911
0.0076751708984375;-0.1534271240234375;-1.0048675537109375;0.05805984139442444;0.0016447682864964008;-0.0015560849569737911
0.0076751708984375;-0.1534271240234375;-1.0048675537109375;0.05805984139442444;0.0016447682864964008;-0.0015560849569737911
0.0079345703125;-0.1537628173828125;-1.0024566650390625;0.0534437820315361;0.003784351982176304;0.004082892090082169
0.0079345703125;-0.1537628173828125;-1.0024566650390625;0.0534437820315361;0.003784351982176304;0.004082892090082169
0.0079345703125;-0.1537628173828125;-1.0024566650390625;0.0534437820315361;0.003784351982176304;0.004082892090082169
0.0079345703125;-0.1537628173828125;-1.0024566650390625;0.0534437820315361;0.003784351982176304;0.004082892090082169
0.0079345703125;-0.1537628173828125;-1.0024566650390625;0.0534437820315361;0.003784351982176304;0.004082892090082169
0.007598876953125;-0.154205322265625;-0.999053955078125;0.044313400983810425;0.005095692351460457;0.0026130937039852142
0.007598876953125;-0.154205322265625;-0.999053955078125;0.044313400983810425;0.005095692351460457;0.0026130937039852142
0.007598876953125;-0.154205322265625;-0.999053955078125;0.044313400983810425;0.005095692351460457;0.0026130937039852142
0.007598876953125;-0.154205322265625;-0.999053955078125;0.044313400983810425;0.005095692351460457;0.0026130937039852142
0.007598876953125;-0.154205322265625;-0.999053955078125;0.044313400983810425;0.005095692351460457;0.0026130937039852142
0.007232666015625;-0.154052734375;-0.9989166259765625;0.041131190955638885;0.0056986319832503796;0.0013347762869670987
0.007232666015625;-0.154052734375;-0.9989166259765625;0.041131190955638885;0.0056986319832503796;0.0013347762869670987
0.007232666015625;-0.154052734375;-0.9989166259765625;0.041131190955638885;0.0056986319832503796;0.0013347762869670987
0.007232666015625;-0.154052734375;-0.9989166259765625;0.041131190955638885;0.0056986319832503796;0.0013347762869670987
0.007232666015625;-0.154052734375;-0.9989166259765625;0.041131190955638885;0.0056986319832503796;0.0013347762869670987
0.0083465576171875;-0.1538543701171875;-1.001983642578125;0.03788559511303902;0.005290902219712734;0.003863980295136571
0.0083465576171875;-0.1538543701171875;-1.001983642578125;0.03788559511303902;0.005290902219712734;0.003863980295136571
0.0083465576171875;-0.1538543701171875;-1.001983642578125;0.03788559511303902;0.005290902219712734;0.003863980295136571
0.0083465576171875;-0.1538543701171875;-1.001983642578125;0.03788559511303902;0.005290902219712734;0.003863980295136571
0.0083465576171875;-0.1538543701171875;-1.001983642578125;0.03788559511303902;0.005290902219712734;0.003863980295136571
0.0092620849609375;-0.1534271240234375;-1.0067596435546875;0.04495495930314064;-0.0007882956997491419;0.004057858604937792
0.0092620849609375;-0.1534271240234375;-1.0067596435546875;0.04495495930314064;-0.0007882956997491419;0.004057858604937792
0.0092620849609375;-0.1534271240234375;-1.0067596435546875;0.04495495930314064;-0.0007882956997491419;0.004057858604937792
0.0092620849609375;-0.1534271240234375;-1.0067596435546875;0.04495495930314064;-0.0007882956997491419;0.004057858604937792
0.0092620849609375;-0.1534271240234375;-1.0067596435546875;0.04495495930314064;-0.0007882956997491419;0.004057858604937792
0.008392333984375;-0.15350341796875;-1.0099945068359375;0.04963333159685135;-0.0027113643009215593;0.001930791768245399
0.008392333984375;-0.15350341796875;-1.0099945068359375;0.04963333159685135;-0.0027113643009215593;0.001930791768245399
0.008392333984375;-0.15350341796875;-1.0099945068359375;0.04963333159685135;-0.0027113643009215593;0.001930791768245399
0.008392333984375;-0.15350341796875;-1.0099945068359375;0.04963333159685135;-0.0027113643009215593;0.001930791768245399
0.008392333984375;-0.15350341796875;-1.0099945068359375;0.04963333159685135;-0.0027113643009215593;0.001930791768245399
0.0079498291015625;-0.1548614501953125;-1.0108184814453125;0.04989751800894737;0.0016314524691551924;0.00245090713724494
0.0079498291015625;-0.1548614501953125;-1.0108184814453125;0.04989751800894737;0.0016314524691551924;0.00245090713724494
0.0079498291015625;-0.1548614501953125;-1.0108184814453125;0.04989751800894737;0.0016314524691551924;0.00245090713724494
0.0079498291015625;-0.1548614501953125;-1.0108184814453125;0.04989751800894737;0.0016314524691551924;0.00245090713724494
0.0079498291015625;-0.1548614501953125;-1.0108184814453125;0.04989751800894737;0.0016314524691551924;0.00245090713724494
0.007568359375;-0.1572113037109375;-1.00860595703125;0.050164900720119476;0.0002798982313834131;0.003754524514079094
0.007568359375;-0.1572113037109375;-1.00860595703125;0.050164900720119476;0.0002798982313834131;0.003754524514079094
0.007568359375;-0.1572113037109375;-1.00860595703125;0.050164900720119476;0.0002798982313834131;0.003754524514079094
0.007568359375;-0.1572113037109375;-1.00860595703125;0.050164900720119476;0.0002798982313834131;0.003754524514079094
0.007568359375;-0.1572113037109375;-1.00860595703125;0.050164900720119476;0.0002798982313834131;0.003754524514079094
0.0076904296875;-0.1588134765625;-1.005401611328125;0.04704101011157036;-0.00021997711155563593;0.005175853613764048
0.0076904296875;-0.1588134765625;-1.005401611328125;0.04704101011157036;-0.00021997711155563593;0.005175853613764048
0.0076904296875;-0.1588134765625;-1.005401611328125;0.04704101011157036;-0.00021997711155563593;0.005175853613764048
0.0076904296875;-0.1588134765625;-1.005401611328125;0.04704101011157036;-0.00021997711155563593;0.005175853613764048
0.0076904296875;-0.1588134765625;-1.005401611328125;0.04704101011157036;-0.00021997711155563593;0.005175853613764048
0.0072784423828125;-0.1591644287109375;-1.0026397705078125;0.0361526794731617;-0.0010351707460358739;0.006618221756070852
0.0072784423828125;-0.1591644287109375;-1.0026397705078125;0.0361526794731617;-0.0010351707460358739;0.006618221756070852
0.0072784423828125;-0.1591644287109375;-1.0026397705078125;0.0361526794731617;-0.0010351707460358739;0.006618221756070852
0.0072784423828125;-0.1591644287109375;-1.0026397705078125;0.0361526794731617;-0.0010351707460358739;0.006618221756070852
0.0072784423828125;-0.1591644287109375;-1.0026397705078125;0.0361526794731617;-0.0010351707460358739;0.006618221756070852
0.0084075927734375;-0.161956787109375;-0.9987945556640625;0.0250835157930851;0.00376011710613966;0.003606186481192708
0.0084075927734375;-0.161956787109375;-0.9987945556640625;0.0250835157930851;0.00376011710613966;0.003606186481192708
0.0084075927734375;-0.161956787109375;-0.9987945556640625;0.0250835157930851;0.00376011710613966;0.003606186481192708
0.0084075927734375;-0.161956787109375;-0.9987945556640625;0.0250835157930851;0.00376011710613966;0.003606186481192708
0.0084075927734375;-0.161956787109375;-0.9987945556640625;0.0250835157930851;0.00376011710613966;0.003606186481192708
0.0066375732421875;-0.1607513427734375;-0.994415283203125;0.02082299068570137;0.0051801144145429134;0.006742857396602631
0.0066375732421875;-0.1607513427734375;-0.994415283203125;0.02082299068570137;0.0051801144145429134;0.006742857396602631
0.0066375732421875;-0.1607513427734375;-0.994415283203125;0.02082299068570137;0.0051801144145429134;0.006742857396602631
0.0066375732421875;-0.1607513427734375;-0.994415283203125;0.02082299068570137;0.0051801144145429134;0.006742857396602631
0.0066375732421875;-0.1607513427734375;-0.994415283203125;0.02082299068570137;0.0051801144145429134;0.006742857396602631
0.007049560546875;-0.160400390625;-0.995025634765625;0.014334730803966522;0.0007030745036900043;0.00464588450267911
0.007049560546875;-0.160400390625;-0.995025634765625;0.014334730803966522;0.0007030745036900043;0.00464588450267911
0.007049560546875;-0.160400390625;-0.995025634765625;0.014334730803966522;0.0007030745036900043;0.00464588450267911
0.007049560546875;-0.160400390625;-0.995025634765625;0.014334730803966522;0.0007030745036900043;0.00464588450267911
0.007049560546875;-0.160400390625;-0.995025634765625;0.014334730803966522;0.0007030745036900043;0.00464588450267911
0.0081787109375;-0.1591644287109375;-1.001495361328125;0.018930282443761826;0.0018354506464675069;0.0034999263007193804
0.0081787109375;-0.1591644287109375;-1.001495361328125;0.018930282443761826;0.0018354506464675069;0.0034999263007193804
0.0081787109375;-0.1591644287109375;-1.001495361328125;0.018930282443761826;0.0018354506464675069;0.0034999263007193804
0.0081787109375;-0.1591644287109375;-1.001495361328125;0.018930282443761826;0.0018354506464675069;0.0034999263007193804
0.0081787109375;-0.1591644287109375;-1.001495361328125;0.018930282443761826;0.0018354506464675069;0.0034999263007193804
0.0065155029296875;-0.1566619873046875;-1.01165771484375;0.030289195477962494;-0.011715511791408062;0.0016085492679849267
0.0065155029296875;-0.1566619873046875;-1.01165771484375;0.030289195477962494;-0.011715511791408062;0.0016085492679849267
0.0065155029296875;-0.1566619873046875;-1.01165771484375;0.030289195477962494;-0.011715511791408062;0.0016085492679849267
0.0065155029296875;-0.1566619873046875;-1.01165771484375;0.030289195477962494;-0.011715511791408062;0.0016085492679849267
0.0065155029296875;-0.1566619873046875;-1.01165771484375;0.030289195477962494;-0.011715511791408062;0.0016085492679849267
0.00640869140625;-0.1561279296875;-1.0161285400390625;0.037038177251815796;-0.03206232935190201;4.926848123432137e-05
0.00640869140625;-0.1561279296875;-1.0161285400390625;0.037038177251815796;-0.03206232935190201;4.926848123432137e-05
0.00640869140625;-0.1561279296875;-1.0161285400390625;0.037038177251815796;-0.03206232935190201;4.926848123432137e-05
0.00640869140625;-0.1561279296875;-1.0161285400390625;0.037038177251815796;-0.03206232935190201;4.926848123432137e-05
0.00640869140625;-0.1561279296875;-1.0161285400390625;0.037038177251815796;-0.03206232935190201;4.926848123432137e-05
0.0060882568359375;-0.1583404541015625;-1.0125885009765625;0.033058617264032364;-0.033789388835430145;0.0022421153262257576
0.0060882568359375;-0.1583404541015625;-1.0125885009765625;0.033058617264032364;-0.033789388835430145;0.0022421153262257576
0.0060882568359375;-0.1583404541015625;-1.0125885009765625;0.033058617264032364;-0.033789388835430145;0.0022421153262257576
0.0060882568359375;-0.1583404541015625;-1.0125885009765625;0.033058617264032364;-0.033789388835430145;0.0022421153262257576
0.0060882568359375;-0.1583404541015625;-1.0125885009765625;0.033058617264032364;-0.033789388835430145;0.0022421153262257576
0.0055999755859375;-0.1591033935546875;-1.0002593994140625;0.024989239871501923;-0.02014814503490925;0.005903162993490696
0.0055999755859375;-0.1591033935546875;-1.0002593994140625;0.024989239871501923;-0.02014814503490925;0.005903162993490696
0.0055999755859375;-0.1591033935546875;-1.0002593994140625;0.024989239871501923;-0.02014814503490925;0.005903162993490696
0.0055999755859375;-0.1591033935546875;-1.0002593994140625;0.024989239871501923;-0.02014814503490925;0.005903162993490696
0.0055999755859375;-0.1591033935546875;-1.0002593994140625;0.024989239871501923;-0.02014814503490925;0.005903162993490696
0.0036773681640625;-0.1589813232421875;-0.994140625;0.021211279556155205;-0.000365918327588588;0.005820871330797672
0.0036773681640625;-0.1589813232421875;-0.994140625;0.021211279556155205;-0.000365918327588588;0.005820871330797672
0.0036773681640625;-0.1589813232421875;-0.994140625;0.021211279556155205;-0.000365918327588588;0.005820871330797672
0.0036773681640625;-0.1589813232421875;-0.994140625;0.021211279556155205;-0.000365918327588588;0.005820871330797672
0.0036773681640625;-0.1589813232421875;-0.994140625;0.021211279556155205;-0.000365918327588588;0.005820871330797672
0.0040740966796875;-0.1594390869140625;-0.9952392578125;0.017785122618079185;0.01714383251965046;0.008868326433002949
0.0040740966796875;-0.1594390869140625;-0.9952392578125;0.017785122618079185;0.01714383251965046;0.008868326433002949
0.0040740966796875;-0.1594390869140625;-0.9952392578125;0.017785122618079185;0.01714383251965046;0.008868326433002949
0.0040740966796875;-0.1594390869140625;-0.9952392578125;0.017785122618079185;0.01714383251965046;0.008868326433002949
0.0040740966796875;-0.1594390869140625;-0.9952392578125;0.017785122618079185;0.01714383251965046;0.008868326433002949
0.0056610107421875;-0.1607666015625;-0.9982452392578125;0.01787646859884262;0.028718464076519012;0.007682953495532274
0.0056610107421875;-0.1607666015625;-0.9982452392578125;0.01787646859884262;0.028718464076519012;0.007682953495532274
0.0056610107421875;-0.1607666015625;-0.9982452392578125;0.01787646859884262;0.028718464076519012;0.007682953495532274
0.0056610107421875;-0.1607666015625;-0.9982452392578125;0.01787646859884262;0.028718464076519012;0.007682953495532274
0.0056610107421875;-0.1607666015625;-0.9982452392578125;0.01787646859884262;0.028718464076519012;0.007682953495532274
0.0089111328125;-0.1590118408203125;-1.000640869140625;0.022101840004324913;0.030530212447047234;0.007048321887850761
0.0089111328125;-0.1590118408203125;-1.000640869140625;0.022101840004324913;0.030530212447047234;0.007048321887850761
0.0089111328125;-0.1590118408203125;-1.000640869140625;0.022101840004324913;0.030530212447047234;0.007048321887850761
0.0089111328125;-0.1590118408203125;-1.000640869140625;0.022101840004324913;0.030530212447047234;0.007048321887850761
0.0089111328125;-0.1590118408203125;-1.000640869140625;0.022101840004324913;0.030530212447047234;0.007048321887850761
0.01153564453125;-0.1594390869140625;-1.0029754638671875;0.027103789150714874;0.03027481585741043;0.005979862064123154
0.01153564453125;-0.1594390869140625;-1.0029754638671875;0.027103789150714874;0.03027481585741043;0.005979862064123154
0.01153564453125;-0.1594390869140625;-1.0029754638671875;0.027103789150714874;0.03027481585741043;0.005979862064123154
0.01153564453125;-0.1594390869140625;-1.0029754638671875;0.027103789150714874;0.03027481585741043;0.005979862064123154
0.01153564453125;-0.1594390869140625;-1.0029754638671875;0.027103789150714874;0.03027481585741043;0.005979862064123154
0.0139007568359375;-0.16033935546875;-1.007598876953125;0.037632863968610764;0.02889369986951351;0.004834702704101801
0.0139007568359375;-0.16033935546875;-1.007598876953125;0.037632863968610764;0.02889369986951351;0.004834702704101801
0.0139007568359375;-0.16033935546875;-1.007598876953125;0.037632863968610764;0.02889369986951351;0.004834702704101801
0.0139007568359375;-0.16033935546875;-1.007598876953125;0.037632863968610764;0.02889369986951351;0.004834702704101801
0.0139007568359375;-0.16033935546875;-1.007598876953125;0.037632863968610764;0.02889369986951351;0.004834702704101801
0.0128173828125;-0.162322998046875;-1.01031494140625;0.04390780255198479;0.02473623864352703;0.007278152741491795
0.0128173828125;-0.162322998046875;-1.01031494140625;0.04390780255198479;0.02473623864352703;0.007278152741491795
0.0128173828125;-0.162322998046875;-1.01031494140625;0.04390780255198479;0.02473623864352703;0.007278152741491795
0.0128173828125;-0.162322998046875;-1.01031494140625;0.04390780255198479;0.02473623864352703;0.007278152741491795
0.0128173828125;-0.162322998046875;-1.01031494140625;0.04864077270030975;0.01594514399766922;0.005051217507570982
0.013031005859375;-0.163726806640625;-1.01226806640625;0.04864077270030975;0.01594514399766922;0.005051217507570982
0.013031005859375;-0.163726806640625;-1.01226806640625;0.04864077270030975;0.01594514399766922;0.005051217507570982
0.013031005859375;-0.163726806640625;-1.01226806640625;0.04864077270030975;0.01594514399766922;0.005051217507570982
0.013031005859375;-0.163726806640625;-1.01226806640625;0.04864077270030975;0.01594514399766922;0.005051217507570982
0.013031005859375;-0.163726806640625;-1.01226806640625;0.0499449223279953;0.007436877116560936;0.0019358517602086067
0.0120086669921875;-0.16534423828125;-1.0117950439453125;0.0499449223279953;0.007436877116560936;0.0019358517602086067
0.0120086669921875;-0.16534423828125;-1.0117950439453125;0.0499449223279953;0.007436877116560936;0.0019358517602086067
0.0120086669921875;-0.16534423828125;-1.0117950439453125;0.0499449223279953;0.007436877116560936;0.0019358517602086067
0.0120086669921875;-0.16534423828125;-1.0117950439453125;0.0499449223279953;0.007436877116560936;0.0019358517602086067
0.0120086669921875;-0.16534423828125;-1.0117950439453125;0.0499449223279953;0.007436877116560936;0.0019358517602086067
0.009735107421875;-0.1656951904296875;-1.0097198486328125;0.046368297189474106;0.001148088718764484;0.0004993426846340299
0.009735107421875;-0.1656951904296875;-1.0097198486328125;0.046368297189474106;0.001148088718764484;0.0004993426846340299
0.009735107421875;-0.1656951904296875;-1.0097198486328125;0.046368297189474106;0.001148088718764484;0.0004993426846340299
0.009735107421875;-0.1656951904296875;-1.0097198486328125;0.046368297189474106;0.001148088718764484;0.0004993426846340299
0.009735107421875;-0.1656951904296875;-1.0097198486328125;0.044257208704948425;-0.0014937670202925801;0.0008103998843580484
0.008758544921875;-0.1671142578125;-1.0084381103515625;0.044257208704948425;-0.0014937670202925801;0.0008103998843580484
0.008758544921875;-0.1671142578125;-1.0084381103515625;0.044257208704948425;-0.0014937670202925801;0.0008103998843580484
0.008758544921875;-0.1671142578125;-1.0084381103515625;0.044257208704948425;-0.0014937670202925801;0.0008103998843580484
0.008758544921875;-0.1671142578125;-1.0084381103515625;0.044257208704948425;-0.0014937670202925801;0.0008103998843580484
0.008758544921875;-0.1671142578125;-1.0084381103515625;0.03822248801589012;0.0033007217571139336;-0.0007819040911272168
0.007415771484375;-0.167388916015625;-1.007965087890625;0.03822248801589012;0.0033007217571139336;-0.0007819040911272168
0.007415771484375;-0.167388916015625;-1.007965087890625;0.03822248801589012;0.0033007217571139336;-0.0007819040911272168
0.007415771484375;-0.167388916015625;-1.007965087890625;0.03822248801589012;0.0033007217571139336;-0.0007819040911272168
0.007415771484375;-0.167388916015625;-1.007965087890625;0.03822248801589012;0.0033007217571139336;-0.0007819040911272168
0.007415771484375;-0.167388916015625;-1.007965087890625;0.029406623914837837;0.005311674904078245;0.00138058268930763
0.00799560546875;-0.168060302734375;-1.00469970703125;0.029406623914837837;0.005311674904078245;0.00138058268930763
0.00799560546875;-0.168060302734375;-1.00469970703125;0.029406623914837837;0.005311674904078245;0.00138058268930763
0.00799560546875;-0.168060302734375;-1.00469970703125;0.029406623914837837;0.005311674904078245;0.00138058268930763
0.00799560546875;-0.168060302734375;-1.00469970703125;0.029406623914837837;0.005311674904078245;0.00138058268930763
0.0090789794921875;-0.1682281494140625;-1.002899169921875;0.021618742495775223;0.005344964098185301;0.00028389296494424343
0.0090789794921875;-0.1682281494140625;-1.002899169921875;0.021618742495775223;0.005344964098185301;0.00028389296494424343
0.0090789794921875;-0.1682281494140625;-1.002899169921875;0.021618742495775223;0.005344964098185301;0.00028389296494424343
0.0090789794921875;-0.1682281494140625;-1.002899169921875;0.021618742495775223;0.005344964098185301;0.00028389296494424343
0.0090789794921875;-0.1682281494140625;-1.002899169921875;0.021618742495775223;0.005344964098185301;0.00028389296494424343
0.010284423828125;-0.1673431396484375;-1.00152587890625;0.013689180836081505;0.011887552216649055;0.005360676907002926
0.010284423828125;-0.1673431396484375;-1.00152587890625;0.013689180836081505;0.011887552216649055;0.005360676907002926
0.010284423828125;-0.1673431396484375;-1.00152587890625;0.013689180836081505;0.011887552216649055;0.005360676907002926
0.010284423828125;-0.1673431396484375;-1.00152587890625;0.013689180836081505;0.011887552216649055;0.005360676907002926
0.010284423828125;-0.1673431396484375;-1.00152587890625;0.013689180836081505;0.011887552216649055;0.005360676907002926
0.0118865966796875;-0.1670074462890625;-1.0010986328125;0.00800519622862339;0.009444634430110455;0.006125004030764103
0.0118865966796875;-0.1670074462890625;-1.0010986328125;0.00800519622862339;0.009444634430110455;0.006125004030764103
0.0118865966796875;-0.1670074462890625;-1.0010986328125;0.00800519622862339;0.009444634430110455;0.006125004030764103
0.0118865966796875;-0.1670074462890625;-1.0010986328125;0.00800519622862339;0.009444634430110455;0.006125004030764103
0.0118865966796875;-0.1670074462890625;-1.0010986328125;0.00800519622862339;0.009444634430110455;0.006125004030764103
0.0123748779296875;-0.165802001953125;-1.0019683837890625;0.003879160387441516;0.009852098301053047;0.005711148958653212
0.0123748779296875;-0.165802001953125;-1.0019683837890625;0.003879160387441516;0.009852098301053047;0.005711148958653212
0.0123748779296875;-0.165802001953125;-1.0019683837890625;0.003879160387441516;0.009852098301053047;0.005711148958653212
0.0123748779296875;-0.165802001953125;-1.0019683837890625;0.003879160387441516;0.009852098301053047;0.005711148958653212
0.0123748779296875;-0.165802001953125;-1.0019683837890625;0.003879160387441516;0.009852098301053047;0.005711148958653212
0.0123748779296875;-0.165802001953125;-1.0019683837890625;0.007408115081489086;0.0037169738207012415;0.003397394670173526
0.0110626220703125;-0.1663055419921875;-1.0018310546875;0.007408115081489086;0.0037169738207012415;0.003397394670173526
0.0110626220703125;-0.1663055419921875;-1.0018310546875;0.007408115081489086;0.0037169738207012415;0.003397394670173526
0.0110626220703125;-0.1663055419921875;-1.0018310546875;0.007408115081489086;0.0037169738207012415;0.003397394670173526
0.0110626220703125;-0.1663055419921875;-1.0018310546875;0.007408115081489086;0.0037169738207012415;0.003397394670173526
0.010711669921875;-0.165618896484375;-1.00323486328125;0.006987069267779589;-0.00024341292737517506;0.0019257317762821913
0.010711669921875;-0.165618896484375;-1.00323486328125;0.006987069267779589;-0.00024341292737517506;0.0019257317762821913
0.010711669921875;-0.165618896484375;-1.00323486328125;0.006987069267779589;-0.00024341292737517506;0.0019257317762821913
0.010711669921875;-0.165618896484375;-1.00323486328125;0.006987069267779589;-0.00024341292737517506;0.0019257317762821913
0.010711669921875;-0.165618896484375;-1.00323486328125;0.006987069267779589;-0.00024341292737517506;0.0019257317762821913
0.010498046875;-0.1655731201171875;-1.0026397705078125;0.011524030938744545;-0.004541754722595215;0.0041156490333378315
0.010498046875;-0.1655731201171875;-1.0026397705078125;0.011524030938744545;-0.004541754722595215;0.0041156490333378315
0.010498046875;-0.1655731201171875;-1.0026397705078125;0.011524030938744545;-0.004541754722595215;0.0041156490333378315
0.010498046875;-0.1655731201171875;-1.0026397705078125;0.011524030938744545;-0.004541754722595215;0.0041156490333378315
0.010498046875;-0.1655731201171875;-1.0026397705078125;0.011524030938744545;-0.004541754722595215;0.0041156490333378315
0.01007080078125;-0.1657562255859375;-1.0047607421875;0.01393099594861269;-0.005687713157385588;0.0017156084068119526
0.01007080078125;-0.1657562255859375;-1.0047607421875;0.01393099594861269;-0.005687713157385588;0.0017156084068119526
0.01007080078125;-0.1657562255859375;-1.0047607421875;0.01393099594861269;-0.005687713157385588;0.0017156084068119526
0.01007080078125;-0.1657562255859375;-1.0047607421875;0.01393099594861269;-0.005687713157385588;0.0017156084068119526
0.01007080078125;-0.1657562255859375;-1.0047607421875;0.01393099594861269;-0.005687713157385588;0.0017156084068119526
0.00921630859375;-0.1678924560546875;-1.00634765625;0.017901236191391945;-0.00304638990201056;-0.0009773800848051906
0.00921630859375;-0.1678924560546875;-1.00634765625;0.017901236191391945;-0.00304638990201056;-0.0009773800848051906
0.00921630859375;-0.1678924560546875;-1.00634765625;0.017901236191391945;-0.00304638990201056;-0.0009773800848051906
0.00921630859375;-0.1678924560546875;-1.00634765625;0.017901236191391945;-0.00304638990201056;-0.0009773800848051906
0.00921630859375;-0.1678924560546875;-1.00634765625;0.017901236191391945;-0.00304638990201056;-0.0009773800848051906
0.008697509765625;-0.1677398681640625;-1.0059051513671875;0.019535617902874947;0.0003222425002604723;0.0016594156622886658
0.008697509765625;-0.1677398681640625;-1.0059051513671875;0.019535617902874947;0.0003222425002604723;0.0016594156622886658
0.008697509765625;-0.1677398681640625;-1.0059051513671875;0.019535617902874947;0.0003222425002604723;0.0016594156622886658
0.008697509765625;-0.1677398681640625;-1.0059051513671875;0.019535617902874947;0.0003222425002604723;0.0016594156622886658
0.008697509765625;-0.1677398681640625;-1.0059051513671875;0.019535617902874947;0.0003222425002604723;0.0016594156622886658
0.0087432861328125;-0.167938232421875;-1.004913330078125;0.018804047256708145;0.002226136391982436;0.0024770060554146767
0.0087432861328125;-0.167938232421875;-1.004913330078125;0.018804047256708145;0.002226136391982436;0.0024770060554146767
0.0087432861328125;-0.167938232421875;-1.004913330078125;0.018804047256708145;0.002226136391982436;0.0024770060554146767
0.0087432861328125;-0.167938232421875;-1.004913330078125;0.018804047256708145;0.002226136391982436;0.0024770060554146767
0.0087432861328125;-0.167938232421875;-1.004913330078125;0.018804047256708145;0.002226136391982436;0.0024770060554146767
0.0097198486328125;-0.16802978515625;-1.00543212890625;0.01955319568514824;-0.005458947736769915;0.0026458504144102335
0.0097198486328125;-0.16802978515625;-1.00543212890625;0.01955319568514824;-0.005458947736769915;0.0026458504144102335
0.0097198486328125;-0.16802978515625;-1.00543212890625;0.01955319568514824;-0.005458947736769915;0.0026458504144102335
0.0097198486328125;-0.16802978515625;-1.00543212890625;0.01955319568514824;-0.005458947736769915;0.0026458504144102335
0.0097198486328125;-0.16802978515625;-1.00543212890625;0.01955319568514824;-0.005458947736769915;0.0026458504144102335
0.009521484375;-0.1663360595703125;-1.007232666015625;0.019347066059708595;-0.01531557273119688;-0.00017496968212071806
0.009521484375;-0.1663360595703125;-1.007232666015625;0.019347066059708595;-0.01531557273119688;-0.00017496968212071806
0.009521484375;-0.1663360595703125;-1.007232666015625;0.019347066059708595;-0.01531557273119688;-0.00017496968212071806
0.009521484375;-0.1663360595703125;-1.007232666015625;0.019347066059708595;-0.01531557273119688;-0.00017496968212071806
0.009521484375;-0.1663360595703125;-1.007232666015625;0.019347066059708595;-0.01531557273119688;-0.00017496968212071806
0.01025390625;-0.1654205322265625;-1.0062713623046875;0.021272797137498856;-0.007899202406406403;0.0051628039218485355
0.01025390625;-0.1654205322265625;-1.0062713623046875;0.021272797137498856;-0.007899202406406403;0.0051628039218485355
0.01025390625;-0.1654205322265625;-1.0062713623046875;0.021272797137498856;-0.007899202406406403;0.0051628039218485355
0.01025390625;-0.1654205322265625;-1.0062713623046875;0.021272797137498856;-0.007899202406406403;0.0051628039218485355
0.01025390625;-0.1654205322265625;-1.0062713623046875;0.021272797137498856;-0.007899202406406403;0.0051628039218485355
0.010009765625;-0.1663360595703125;-1.001922607421875;0.016927052289247513;0.0005992112564854324;0.0011704593198373914
0.010009765625;-0.1663360595703125;-1.001922607421875;0.016927052289247513;0.0005992112564854324;0.0011704593198373914
0.010009765625;-0.1663360595703125;-1.001922607421875;0.016927052289247513;0.0005992112564854324;0.0011704593198373914
0.010009765625;-0.1663360595703125;-1.001922607421875;0.016927052289247513;0.0005992112564854324;0.0011704593198373914
0.010009765625;-0.1663360595703125;-1.001922607421875;0.016927052289247513;0.0005992112564854324;0.0011704593198373914
0.00775146484375;-0.166259765625;-1.0005035400390625;0.008985505439341068;0.001880191732198;0.003463707398623228
0.00775146484375;-0.166259765625;-1.0005035400390625;0.008985505439341068;0.001880191732198;0.003463707398623228
0.00775146484375;-0.166259765625;-1.0005035400390625;0.008985505439341068;0.001880191732198;0.003463707398623228
0.00775146484375;-0.166259765625;-1.0005035400390625;0.008985505439341068;0.001880191732198;0.003463707398623228
0.00775146484375;-0.166259765625;-1.0005035400390625;0.008985505439341068;0.001880191732198;0.003463707398623228
0.00909423828125;-0.1640472412109375;-1.0002288818359375;-5.1132694352418184e-05;0.00036671728594228625;0.0017118799732998013
0.00909423828125;-0.1640472412109375;-1.0002288818359375;-5.1132694352418184e-05;0.00036671728594228625;0.0017118799732998013
0.00909423828125;-0.1640472412109375;-1.0002288818359375;-5.1132694352418184e-05;0.00036671728594228625;0.0017118799732998013
0.00909423828125;-0.1640472412109375;-1.0002288818359375;-5.1132694352418184e-05;0.00036671728594228625;0.0017118799732998013
0.00909423828125;-0.1640472412109375;-1.0002288818359375;-5.1132694352418184e-05;0.00036671728594228625;0.0017118799732998013
0.0089569091796875;-0.1639556884765625;-1.0004425048828125;-0.00020905814017169178;-0.004732703324407339;0.002909769769757986
0.0089569091796875;-0.1639556884765625;-1.0004425048828125;-0.00020905814017169178;-0.004732703324407339;0.002909769769757986
0.0089569091796875;-0.1639556884765625;-1.0004425048828125;-0.00020905814017169178;-0.004732703324407339;0.002909769769757986
0.0089569091796875;-0.1639556884765625;-1.0004425048828125;-0.00020905814017169178;-0.004732703324407339;0.002909769769757986
0.0089569091796875;-0.1639556884765625;-1.0004425048828125;-0.00020905814017169178;-0.004732703324407339;0.002909769769757986
0.0088348388671875;-0.1638641357421875;-0.9986572265625;-0.007239270955324173;-0.0017086841398850083;0.0013821806060150266
0.0088348388671875;-0.1638641357421875;-0.9986572265625;-0.007239270955324173;-0.0017086841398850083;0.0013821806060150266
0.0088348388671875;-0.1638641357421875;-0.9986572265625;-0.007239270955324173;-0.0017086841398850083;0.0013821806060150266
0.0088348388671875;-0.1638641357421875;-0.9986572265625;-0.007239270955324173;-0.0017086841398850083;0.0013821806060150266
0.0088348388671875;-0.1638641357421875;-0.9986572265625;-0.007239270955324173;-0.0017086841398850083;0.0013821806060150266
0.008758544921875;-0.1659088134765625;-0.99676513671875;-0.003154247999191284;0.004177700728178024;0.0018343853298574686
0.008758544921875;-0.1659088134765625;-0.99676513671875;-0.003154247999191284;0.004177700728178024;0.0018343853298574686
0.008758544921875;-0.1659088134765625;-0.99676513671875;-0.003154247999191284;0.004177700728178024;0.0018343853298574686
0.008758544921875;-0.1659088134765625;-0.99676513671875;-0.003154247999191284;0.004177700728178024;0.0018343853298574686
0.008758544921875;-0.1659088134765625;-0.99676513671875;-0.003154247999191284;0.004177700728178024;0.0018343853298574686
0.0098724365234375;-0.1650238037109375;-0.9968109130859375;-0.0044408212415874004;0.004643221385776997;0.0015108112711459398
0.0098724365234375;-0.1650238037109375;-0.9968109130859375;-0.0044408212415874004;0.004643221385776997;0.0015108112711459398
0.0098724365234375;-0.1650238037109375;-0.9968109130859375;-0.0044408212415874004;0.004643221385776997;0.0015108112711459398
0.0098724365234375;-0.1650238037109375;-0.9968109130859375;-0.0044408212415874004;0.004643221385776997;0.0015108112711459398
0.0098724365234375;-0.1650238037109375;-0.9968109130859375;-0.0044408212415874004;0.004643221385776997;0.0015108112711459398
0.0097808837890625;-0.1672515869140625;-0.9989013671875;-0.00455693481490016;0.005077849142253399;0.0020184097811579704
0.0097808837890625;-0.1672515869140625;-0.9989013671875;-0.00455693481490016;0.005077849142253399;0.0020184097811579704
0.0097808837890625;-0.1672515869140625;-0.9989013671875;-0.00455693481490016;0.005077849142253399;0.0020184097811579704
0.0097808837890625;-0.1672515869140625;-0.9989013671875;-0.00455693481490016;0.005077849142253399;0.0020184097811579704
0.0097808837890625;-0.1672515869140625;-0.9989013671875;-0.00455693481490016;0.005077849142253399;0.0020184097811579704
0.009429931640625;-0.168243408203125;-1.0009765625;-0.0014085458824411035;0.003864246653392911;-8.468852320220321e-05
0.009429931640625;-0.168243408203125;-1.0009765625;-0.0014085458824411035;0.003864246653392911;-8.468852320220321e-05
0.009429931640625;-0.168243408203125;-1.0009765625;-0.0014085458824411035;0.003864246653392911;-8.468852320220321e-05
0.009429931640625;-0.168243408203125;-1.0009765625;-0.0014085458824411035;0.003864246653392911;-8.468852320220321e-05
0.009429931640625;-0.168243408203125;-1.0009765625;-0.0014085458824411035;0.003864246653392911;-8.468852320220321e-05
0.0094451904296875;-0.168914794921875;-1.0040740966796875;0.00034194986801594496;0.005774798337370157;0.0018940401496365666
0.0094451904296875;-0.168914794921875;-1.0040740966796875;0.00034194986801594496;0.005774798337370157;0.0018940401496365666
0.0094451904296875;-0.168914794921875;-1.0040740966796875;0.00034194986801594496;0.005774798337370157;0.0018940401496365666
0.0094451904296875;-0.168914794921875;-1.0040740966796875;0.00034194986801594496;0.005774798337370157;0.0018940401496365666
0.0094451904296875;-0.168914794921875;-1.0040740966796875;0.00034194986801594496;0.005774798337370157;0.0018940401496365666
0.0100555419921875;-0.1699676513671875;-1.006256103515625;0.002400306984782219;0.0020450414158403873;0.002469016704708338
0.0100555419921875;-0.1699676513671875;-1.006256103515625;0.002400306984782219;0.0020450414158403873;0.002469016704708338
0.0100555419921875;-0.1699676513671875;-1.006256103515625;0.002400306984782219;0.0020450414158403873;0.002469016704708338
0.0100555419921875;-0.1699676513671875;-1.006256103515625;0.002400306984782219;0.0020450414158403873;0.002469016704708338
0.0100555419921875;-0.1699676513671875;-1.006256103515625;0.002400306984782219;0.0020450414158403873;0.002469016704708338
0.01031494140625;-0.1705169677734375;-1.0098876953125;0.005564941558986902;-0.00021118867152836174;0.001817607437260449
0.01031494140625;-0.1705169677734375;-1.0098876953125;0.005564941558986902;-0.00021118867152836174;0.001817607437260449
0.01031494140625;-0.1705169677734375;-1.0098876953125;0.005564941558986902;-0.00021118867152836174;0.001817607437260449
0.01031494140625;-0.1705169677734375;-1.0098876953125;0.005564941558986902;-0.00021118867152836174;0.001817607437260449
0.01031494140625;-0.1705169677734375;-1.0098876953125;0.005564941558986902;-0.00021118867152836174;0.001817607437260449
0.0108184814453125;-0.1711578369140625;-1.0098876953125;0.001020257011987269;-0.002672215923666954;-0.0004114583716727793
0.0108184814453125;-0.1711578369140625;-1.0098876953125;0.001020257011987269;-0.002672215923666954;-0.0004114583716727793
0.0108184814453125;-0.1711578369140625;-1.0098876953125;0.001020257011987269;-0.002672215923666954;-0.0004114583716727793
0.0108184814453125;-0.1711578369140625;-1.0098876953125;0.001020257011987269;-0.002672215923666954;-0.0004114583716727793
0.0108184814453125;-0.1711578369140625;-1.0098876953125;0.001020257011987269;-0.002672215923666954;-0.0004114583716727793
0.011505126953125;-0.171112060546875;-1.0091705322265625;-0.0008125304593704641;-0.003721234854310751;0.0014229270163923502
0.011505126953125;-0.171112060546875;-1.0091705322265625;-0.0008125304593704641;-0.003721234854310751;0.0014229270163923502
0.011505126953125;-0.171112060546875;-1.0091705322265625;-0.0008125304593704641;-0.003721234854310751;0.0014229270163923502
0.011505126953125;-0.171112060546875;-1.0091705322265625;-0.0008125304593704641;-0.003721234854310751;0.0014229270163923502
0.011505126953125;-0.171112060546875;-1.0091705322265625;-0.0008125304593704641;-0.003721234854310751;0.0014229270163923502
0.0105438232421875;-0.1707305908203125;-1.008148193359375;-0.009557818993926048;-0.00341523764654994;0.002667954657226801
0.0105438232421875;-0.1707305908203125;-1.008148193359375;-0.009557818993926048;-0.00341523764654994;0.002667954657226801
0.0105438232421875;-0.1707305908203125;-1.008148193359375;-0.009557818993926048;-0.00341523764654994;0.002667954657226801
0.0105438232421875;-0.1707305908203125;-1.008148193359375;-0.009557818993926048;-0.00341523764654994;0.002667954657226801
0.0105438232421875;-0.1707305908203125;-1.008148193359375;-0.009557818993926048;-0.00341523764654994;0.002667954657226801
0.0110626220703125;-0.1712646484375;-1.00726318359375;-0.014572551473975182;-0.0017478326335549355;0.0016594156622886658
0.0110626220703125;-0.1712646484375;-1.00726318359375;-0.014572551473975182;-0.0017478326335549355;0.0016594156622886658
0.0110626220703125;-0.1712646484375;-1.00726318359375;-0.014572551473975182;-0.0017478326335549355;0.0016594156622886658
0.0110626220703125;-0.1712646484375;-1.00726318359375;-0.014572551473975182;-0.0017478326335549355;0.0016594156622886658
0.0110626220703125;-0.1712646484375;-1.00726318359375;-0.014572551473975182;-0.0017478326335549355;0.0016594156622886658
0.0114288330078125;-0.1697845458984375;-1.005340576171875;-0.02484995685517788;-0.001669003046117723;0.003579288488253951
0.0114288330078125;-0.1697845458984375;-1.005340576171875;-0.02484995685517788;-0.001669003046117723;0.003579288488253951
0.0114288330078125;-0.1697845458984375;-1.005340576171875;-0.02484995685517788;-0.001669003046117723;0.003579288488253951
0.0114288330078125;-0.1697845458984375;-1.005340576171875;-0.02484995685517788;-0.001669003046117723;0.003579288488253951
0.0114288330078125;-0.1697845458984375;-1.005340576171875;-0.02484995685517788;-0.001669003046117723;0.003579288488253951
0.01177978515625;-0.1699676513671875;-1.0028076171875;-0.03524986654520035;0.0036756948102265596;0.0024471788201481104
0.01177978515625;-0.1699676513671875;-1.0028076171875;-0.03524986654520035;0.0036756948102265596;0.0024471788201481104
0.01177978515625;-0.1699676513671875;-1.0028076171875;-0.03524986654520035;0.0036756948102265596;0.0024471788201481104
0.01177978515625;-0.1699676513671875;-1.0028076171875;-0.03524986654520035;0.0036756948102265596;0.0024471788201481104
0.01177978515625;-0.1699676513671875;-1.0028076171875;-0.03524986654520035;0.0036756948102265596;0.0024471788201481104
0.01251220703125;-0.1704864501953125;-0.99847412109375;-0.04489690065383911;0.008224373683333397;0.00177925790194422
0.01251220703125;-0.1704864501953125;-0.99847412109375;-0.04489690065383911;0.008224373683333397;0.00177925790194422
0.01251220703125;-0.1704864501953125;-0.99847412109375;-0.04489690065383911;0.008224373683333397;0.00177925790194422
0.01251220703125;-0.1704864501953125;-0.99847412109375;-0.04489690065383911;0.008224373683333397;0.00177925790194422
0.01251220703125;-0.1704864501953125;-0.99847412109375;-0.04489690065383911;0.008224373683333397;0.00177925790194422
0.0132293701171875;-0.1685028076171875;-0.9984130859375;-0.04976888746023178;0.010469685308635235;0.0009824400767683983
0.0132293701171875;-0.1685028076171875;-0.9984130859375;-0.04976888746023178;0.010469685308635235;0.0009824400767683983
0.0132293701171875;-0.1685028076171875;-0.9984130859375;-0.04976888746023178;0.010469685308635235;0.0009824400767683983
0.0132293701171875;-0.1685028076171875;-0.9984130859375;-0.04976888746023178;0.010469685308635235;0.0009824400767683983
0.0132293701171875;-0.1685028076171875;-0.9984130859375;-0.04976888746023178;0.010469685308635235;0.0009824400767683983
0.012603759765625;-0.168792724609375;-0.9999542236328125;-0.05781616270542145;0.013376525603234768;0.0015805860748514533
0.012603759765625;-0.168792724609375;-0.9999542236328125;-0.05781616270542145;0.013376525603234768;0.0015805860748514533
0.012603759765625;-0.168792724609375;-0.9999542236328125;-0.05781616270542145;0.013376525603234768;0.0015805860748514533
0.012603759765625;-0.168792724609375;-0.9999542236328125;-0.05781616270542145;0.013376525603234768;0.0015805860748514533
0.012603759765625;-0.168792724609375;-0.9999542236328125;-0.05781616270542145;0.013376525603234768;0.0015805860748514533
0.01287841796875;-0.1695404052734375;-1.002716064453125;-0.06245778501033783;0.010717892087996006;-0.0013073458103463054
0.01287841796875;-0.1695404052734375;-1.002716064453125;-0.06245778501033783;0.010717892087996006;-0.0013073458103463054
0.01287841796875;-0.1695404052734375;-1.002716064453125;-0.06245778501033783;0.010717892087996006;-0.0013073458103463054
0.01287841796875;-0.1695404052734375;-1.002716064453125;-0.06245778501033783;0.010717892087996006;-0.0013073458103463054
0.01287841796875;-0.1695404052734375;-1.002716064453125;-0.06245778501033783;0.010717892087996006;-0.0013073458103463054
0.01373291015625;-0.1682586669921875;-1.00408935546875;-0.06474784016609192;0.007379086688160896;-5.9921123465755954e-05
0.01373291015625;-0.1682586669921875;-1.00408935546875;-0.06474784016609192;0.007379086688160896;-5.9921123465755954e-05
0.01373291015625;-0.1682586669921875;-1.00408935546875;-0.06474784016609192;0.007379086688160896;-5.9921123465755954e-05
0.01373291015625;-0.1682586669921875;-1.00408935546875;-0.06474784016609192;0.007379086688160896;-5.9921123465755954e-05
0.01373291015625;-0.1682586669921875;-1.00408935546875;-0.06869916617870331;0.006895190104842186;-0.002807770622894168
0.0142059326171875;-0.1677093505859375;-1.005340576171875;-0.06869916617870331;0.006895190104842186;-0.002807770622894168
0.0142059326171875;-0.1677093505859375;-1.005340576171875;-0.06869916617870331;0.006895190104842186;-0.002807770622894168
0.0142059326171875;-0.1677093505859375;-1.005340576171875;-0.06869916617870331;0.006895190104842186;-0.002807770622894168
0.0142059326171875;-0.1677093505859375;-1.005340576171875;-0.06869916617870331;0.006895190104842186;-0.002807770622894168
0.0142059326171875;-0.1677093505859375;-1.005340576171875;-0.0736185610294342;0.0036160401068627834;-0.0038546593859791756
0.0141448974609375;-0.1669921875;-1.0052490234375;-0.0736185610294342;0.0036160401068627834;-0.0038546593859791756
0.0141448974609375;-0.1669921875;-1.0052490234375;-0.0736185610294342;0.0036160401068627834;-0.0038546593859791756
0.0141448974609375;-0.1669921875;-1.0052490234375;-0.0736185610294342;0.0036160401068627834;-0.0038546593859791756
0.0141448974609375;-0.1669921875;-1.0052490234375;-0.0736185610294342;0.0036160401068627834;-0.0038546593859791756
0.0141448974609375;-0.1669921875;-1.0052490234375;-0.07845433056354523;0.005563609767705202;-0.0038362834602594376
0.0133514404296875;-0.1661376953125;-1.0044403076171875;-0.07845433056354523;0.005563609767705202;-0.0038362834602594376
0.0133514404296875;-0.1661376953125;-1.0044403076171875;-0.07845433056354523;0.005563609767705202;-0.0038362834602594376
0.0133514404296875;-0.1661376953125;-1.0044403076171875;-0.07845433056354523;0.005563609767705202;-0.0038362834602594376
0.0133514404296875;-0.1661376953125;-1.0044403076171875;-0.07845433056354523;0.005563609767705202;-0.0038362834602594376
0.0134735107421875;-0.1656646728515625;-1.003387451171875;-0.07845433056354523;0.005563609767705202;-0.0038362834602594376
0.0134735107421875;-0.1656646728515625;-1.003387451171875;-0.08163760602474213;0.007150587625801563;-0.0025273398496210575
0.0134735107421875;-0.1656646728515625;-1.003387451171875;-0.08163760602474213;0.007150587625801563;-0.0025273398496210575
0.0134735107421875;-0.1656646728515625;-1.003387451171875;-0.08163760602474213;0.007150587625801563;-0.0025273398496210575
0.0134735107421875;-0.1656646728515625;-1.003387451171875;-0.08163760602474213;0.007150587625801563;-0.0025273398496210575
0.0134735107421875;-0.1656646728515625;-1.003387451171875;-0.08871815353631973;0.009817743673920631;-0.0015717976493760943
0.0148773193359375;-0.1639556884765625;-1.0029754638671875;-0.08871815353631973;0.009817743673920631;-0.0015717976493760943
0.0148773193359375;-0.1639556884765625;-1.0029754638671875;-0.08871815353631973;0.009817743673920631;-0.0015717976493760943
0.0148773193359375;-0.1639556884765625;-1.0029754638671875;-0.08871815353631973;0.009817743673920631;-0.0015717976493760943
0.0148773193359375;-0.1639556884765625;-1.0029754638671875;-0.08871815353631973;0.009817743673920631;-0.0015717976493760943
0.0148162841796875;-0.162445068359375;-1.0036773681640625;-0.09745358675718307;0.011422297917306423;-0.0010098706698045135
0.0148162841796875;-0.162445068359375;-1.0036773681640625;-0.09745358675718307;0.011422297917306423;-0.0010098706698045135
0.0148162841796875;-0.162445068359375;-1.0036773681640625;-0.09745358675718307;0.011422297917306423;-0.0010098706698045135
0.0148162841796875;-0.162445068359375;-1.0036773681640625;-0.09745358675718307;0.011422297917306423;-0.0010098706698045135
0.0148162841796875;-0.162445068359375;-1.0036773681640625;-0.09745358675718307;0.011422297917306423;-0.0010098706698045135
0.0139923095703125;-0.160186767578125;-1.0042266845703125;-0.09873057156801224;0.01113094761967659;0.0011877698125317693
0.0139923095703125;-0.160186767578125;-1.0042266845703125;-0.09873057156801224;0.01113094761967659;0.0011877698125317693
0.0139923095703125;-0.160186767578125;-1.0042266845703125;-0.09873057156801224;0.01113094761967659;0.0011877698125317693
0.0139923095703125;-0.160186767578125;-1.0042266845703125;-0.09873057156801224;0.01113094761967659;0.0011877698125317693
0.0139923095703125;-0.160186767578125;-1.0042266845703125;-0.09873057156801224;0.01113094761967659;0.0011877698125317693
0.013427734375;-0.159332275390625;-1.00103759765625;-0.10128507763147354;0.008624646812677383;-0.0041217743419110775
0.013427734375;-0.159332275390625;-1.00103759765625;-0.10128507763147354;0.008624646812677383;-0.0041217743419110775
0.013427734375;-0.159332275390625;-1.00103759765625;-0.10128507763147354;0.008624646812677383;-0.0041217743419110775
0.013427734375;-0.159332275390625;-1.00103759765625;-0.10128507763147354;0.008624646812677383;-0.0041217743419110775
0.013427734375;-0.159332275390625;-1.00103759765625;-0.10128507763147354;0.008624646812677383;-0.0041217743419110775
0.0133056640625;-0.1573486328125;-0.99945068359375;-0.10480417311191559;0.015423164702951908;0.0012519520241767168
0.0133056640625;-0.1573486328125;-0.99945068359375;-0.10480417311191559;0.015423164702951908;0.0012519520241767168
0.0133056640625;-0.1573486328125;-0.99945068359375;-0.10480417311191559;0.015423164702951908;0.0012519520241767168
0.0133056640625;-0.1573486328125;-0.99945068359375;-0.10480417311191559;0.015423164702951908;0.0012519520241767168
0.0133056640625;-0.1573486328125;-0.99945068359375;-0.10480417311191559;0.015423164702951908;0.0012519520241767168
0.0133056640625;-0.1573486328125;-0.99945068359375;-0.10967057198286057;0.019215505570173264;-3.328951424919069e-05
0.0136566162109375;-0.155670166015625;-1.0032501220703125;-0.10967057198286057;0.019215505570173264;-3.328951424919069e-05
0.0136566162109375;-0.155670166015625;-1.0032501220703125;-0.10967057198286057;0.019215505570173264;-3.328951424919069e-05
0.0136566162109375;-0.155670166015625;-1.0032501220703125;-0.10967057198286057;0.019215505570173264;-3.328951424919069e-05
0.0136566162109375;-0.155670166015625;-1.0032501220703125;-0.10967057198286057;0.019215505570173264;-3.328951424919069e-05
0.013427734375;-0.15594482421875;-1.0048065185546875;-0.11460034549236298;0.02700818143785;0.0019244002178311348
0.013427734375;-0.15594482421875;-1.0048065185546875;-0.11460034549236298;0.02700818143785;0.0019244002178311348
0.013427734375;-0.15594482421875;-1.0048065185546875;-0.11460034549236298;0.02700818143785;0.0019244002178311348
0.013427734375;-0.15594482421875;-1.0048065185546875;-0.11460034549236298;0.02700818143785;0.0019244002178311348
0.013427734375;-0.15594482421875;-1.0048065185546875;-0.11460034549236298;0.02700818143785;0.0019244002178311348
0.0141143798828125;-0.1561126708984375;-1.003875732421875;-0.1236787959933281;0.02364993467926979;-0.001413339632563293
0.0141143798828125;-0.1561126708984375;-1.003875732421875;-0.1236787959933281;0.02364993467926979;-0.001413339632563293
0.0141143798828125;-0.1561126708984375;-1.003875732421875;-0.1236787959933281;0.02364993467926979;-0.001413339632563293
0.0141143798828125;-0.1561126708984375;-1.003875732421875;-0.1236787959933281;0.02364993467926979;-0.001413339632563293
0.0141143798828125;-0.1561126708984375;-1.003875732421875;-0.1236787959933281;0.02364993467926979;-0.001413339632563293
0.0151519775390625;-0.156005859375;-1.0059967041015625;-0.12873853743076324;0.010636133141815662;-0.004050934221595526
0.0151519775390625;-0.156005859375;-1.0059967041015625;-0.12873853743076324;0.010636133141815662;-0.004050934221595526
0.0151519775390625;-0.156005859375;-1.0059967041015625;-0.12873853743076324;0.010636133141815662;-0.004050934221595526
0.0151519775390625;-0.156005859375;-1.0059967041015625;-0.12873853743076324;0.010636133141815662;-0.004050934221595526
0.0151519775390625;-0.156005859375;-1.0059967041015625;-0.12873853743076324;0.010636133141815662;-0.004050934221595526
0.0152740478515625;-0.1547698974609375;-1.01361083984375;-0.1293843537569046;8.628641808172688e-05;-0.007239536847919226
0.0152740478515625;-0.1547698974609375;-1.01361083984375;-0.1293843537569046;8.628641808172688e-05;-0.007239536847919226
0.0152740478515625;-0.1547698974609375;-1.01361083984375;-0.1293843537569046;8.628641808172688e-05;-0.007239536847919226
0.0152740478515625;-0.1547698974609375;-1.01361083984375;-0.1293843537569046;8.628641808172688e-05;-0.007239536847919226
0.0152740478515625;-0.1547698974609375;-1.01361083984375;-0.1293843537569046;8.628641808172688e-05;-0.007239536847919226
0.0137481689453125;-0.153961181640625;-1.017242431640625;-0.12810736894607544;-0.0062941149808466434;-0.0034493261482566595
0.0137481689453125;-0.153961181640625;-1.017242431640625;-0.12810736894607544;-0.0062941149808466434;-0.0034493261482566595
0.0137481689453125;-0.153961181640625;-1.017242431640625;-0.12810736894607544;-0.0062941149808466434;-0.0034493261482566595
0.0137481689453125;-0.153961181640625;-1.017242431640625;-0.12810736894607544;-0.0062941149808466434;-0.0034493261482566595
0.0137481689453125;-0.153961181640625;-1.017242431640625;-0.12810736894607544;-0.0062941149808466434;-0.0034493261482566595
0.0118408203125;-0.1539306640625;-1.0146026611328125;-0.13117267191410065;-0.004583832807838917;-0.003936151973903179
0.0118408203125;-0.1539306640625;-1.0146026611328125;-0.13117267191410065;-0.004583832807838917;-0.003936151973903179
0.0118408203125;-0.1539306640625;-1.0146026611328125;-0.13117267191410065;-0.004583832807838917;-0.003936151973903179
0.0118408203125;-0.1539306640625;-1.0146026611328125;-0.13117267191410065;-0.004583832807838917;-0.003936151973903179
0.0118408203125;-0.1539306640625;-1.0146026611328125;-0.13117267191410065;-0.004583832807838917;-0.003936151973903179
0.0116424560546875;-0.1538848876953125;-1.010406494140625;-0.13492213189601898;-0.008433698676526546;-0.0038133803755044937
0.0116424560546875;-0.1538848876953125;-1.010406494140625;-0.13492213189601898;-0.008433698676526546;-0.0038133803755044937
0.0116424560546875;-0.1538848876953125;-1.010406494140625;-0.13492213189601898;-0.008433698676526546;-0.0038133803755044937
0.0116424560546875;-0.1538848876953125;-1.010406494140625;-0.13492213189601898;-0.008433698676526546;-0.0038133803755044937
0.0116424560546875;-0.1538848876953125;-1.010406494140625;-0.13492213189601898;-0.008433698676526546;-0.0038133803755044937
0.011749267578125;-0.1501922607421875;-1.0072021484375;-0.13614211976528168;-0.012091017328202724;-0.004769721534103155
0.011749267578125;-0.1501922607421875;-1.0072021484375;-0.13614211976528168;-0.012091017328202724;-0.004769721534103155
0.011749267578125;-0.1501922607421875;-1.0072021484375;-0.13614211976528168;-0.012091017328202724;-0.004769721534103155
0.011749267578125;-0.1501922607421875;-1.0072021484375;-0.13614211976528168;-0.012091017328202724;-0.004769721534103155
0.011749267578125;-0.1501922607421875;-1.0072021484375;-0.13614211976528168;-0.012091017328202724;-0.004769721534103155
0.01220703125;-0.147186279296875;-1.0076141357421875;-0.13531175255775452;-0.01818140037357807;-0.003877029987052083
0.01220703125;-0.147186279296875;-1.0076141357421875;-0.13531175255775452;-0.01818140037357807;-0.003877029987052083
0.01220703125;-0.147186279296875;-1.0076141357421875;-0.13531175255775452;-0.01818140037357807;-0.003877029987052083
0.01220703125;-0.147186279296875;-1.0076141357421875;-0.13531175255775452;-0.01818140037357807;-0.003877029987052083
0.01220703125;-0.147186279296875;-1.0076141357421875;-0.13531175255775452;-0.01818140037357807;-0.003877029987052083
0.0120697021484375;-0.143707275390625;-1.0060577392578125;-0.1296171098947525;-0.026203375309705734;0.0010138654615730047
0.0120697021484375;-0.143707275390625;-1.0060577392578125;-0.1296171098947525;-0.026203375309705734;0.0010138654615730047
0.0120697021484375;-0.143707275390625;-1.0060577392578125;-0.1296171098947525;-0.026203375309705734;0.0010138654615730047
0.0120697021484375;-0.143707275390625;-1.0060577392578125;-0.1296171098947525;-0.026203375309705734;0.0010138654615730047
0.0120697021484375;-0.143707275390625;-1.0060577392578125;-0.1296171098947525;-0.026203375309705734;0.0010138654615730047
0.011566162109375;-0.140625;-1.0047149658203125;-0.12248437106609344;-0.024568725377321243;-0.0028415927663445473
0.011566162109375;-0.140625;-1.0047149658203125;-0.12248437106609344;-0.024568725377321243;-0.0028415927663445473
0.011566162109375;-0.140625;-1.0047149658203125;-0.12248437106609344;-0.024568725377321243;-0.0028415927663445473
0.011566162109375;-0.140625;-1.0047149658203125;-0.12248437106609344;-0.024568725377321243;-0.0028415927663445473
0.011566162109375;-0.140625;-1.0047149658203125;-0.12248437106609344;-0.024568725377321243;-0.0028415927663445473
0.0119476318359375;-0.138885498046875;-1.0007171630859375;-0.11187726259231567;-0.01944347284734249;-0.000788561999797821
0.0119476318359375;-0.138885498046875;-1.0007171630859375;-0.11187726259231567;-0.01944347284734249;-0.000788561999797821
0.0119476318359375;-0.138885498046875;-1.0007171630859375;-0.11187726259231567;-0.01944347284734249;-0.000788561999797821
0.0119476318359375;-0.138885498046875;-1.0007171630859375;-0.11187726259231567;-0.01944347284734249;-0.000788561999797821
0.0119476318359375;-0.138885498046875;-1.0007171630859375;-0.11187726259231567;-0.01944347284734249;-0.000788561999797821
0.0101470947265625;-0.1327056884765625;-1.005950927734375;-0.09325351566076279;-0.017727332189679146;-0.0032032502349466085
0.0101470947265625;-0.1327056884765625;-1.005950927734375;-0.09325351566076279;-0.017727332189679146;-0.0032032502349466085
0.0101470947265625;-0.1327056884765625;-1.005950927734375;-0.09325351566076279;-0.017727332189679146;-0.0032032502349466085
0.0101470947265625;-0.1327056884765625;-1.005950927734375;-0.09325351566076279;-0.017727332189679146;-0.0032032502349466085
0.0101470947265625;-0.1327056884765625;-1.005950927734375;-0.09325351566076279;-0.017727332189679146;-0.0032032502349466085
0.008331298828125;-0.129638671875;-1.0124359130859375;-0.0781850814819336;-0.020774520933628082;-0.006885070353746414
0.008331298828125;-0.129638671875;-1.0124359130859375;-0.0781850814819336;-0.020774520933628082;-0.006885070353746414
0.008331298828125;-0.129638671875;-1.0124359130859375;-0.0781850814819336;-0.020774520933628082;-0.006885070353746414
0.008331298828125;-0.129638671875;-1.0124359130859375;-0.0781850814819336;-0.020774520933628082;-0.006885070353746414
0.008331298828125;-0.129638671875;-1.0124359130859375;-0.0781850814819336;-0.020774520933628082;-0.006885070353746414
0.0067138671875;-0.128875732421875;-1.015167236328125;-0.07004912197589874;-0.03803633153438568;-0.008698683232069016
0.0067138671875;-0.128875732421875;-1.015167236328125;-0.07004912197589874;-0.03803633153438568;-0.008698683232069016
0.0067138671875;-0.128875732421875;-1.015167236328125;-0.07004912197589874;-0.03803633153438568;-0.008698683232069016
0.0067138671875;-0.128875732421875;-1.015167236328125;-0.07004912197589874;-0.03803633153438568;-0.008698683232069016
0.0067138671875;-0.128875732421875;-1.015167236328125;-0.07004912197589874;-0.03803633153438568;-0.008698683232069016
0.0086822509765625;-0.1291046142578125;-1.0109710693359375;-0.0630284994840622;-0.03560379892587662;-0.00606428412720561
0.0086822509765625;-0.1291046142578125;-1.0109710693359375;-0.0630284994840622;-0.03560379892587662;-0.00606428412720561
0.0086822509765625;-0.1291046142578125;-1.0109710693359375;-0.0630284994840622;-0.03560379892587662;-0.00606428412720561
0.0086822509765625;-0.1291046142578125;-1.0109710693359375;-0.0630284994840622;-0.03560379892587662;-0.00606428412720561
0.0086822509765625;-0.1291046142578125;-1.0109710693359375;-0.0630284994840622;-0.03560379892587662;-0.00606428412720561
0.0088348388671875;-0.1312408447265625;-1.004547119140625;-0.06157228350639343;-0.015576296485960484;-0.0006295712664723396
0.0088348388671875;-0.1312408447265625;-1.004547119140625;-0.06157228350639343;-0.015576296485960484;-0.0006295712664723396
0.0088348388671875;-0.1312408447265625;-1.004547119140625;-0.06157228350639343;-0.015576296485960484;-0.0006295712664723396
0.0088348388671875;-0.1312408447265625;-1.004547119140625;-0.06157228350639343;-0.015576296485960484;-0.0006295712664723396
0.0088348388671875;-0.1312408447265625;-1.004547119140625;-0.06157228350639343;-0.015576296485960484;-0.0006295712664723396
0.006072998046875;-0.1337432861328125;-1.0002593994140625;-0.06309694051742554;0.009807356633245945;0.00017896443023346364
0.006072998046875;-0.1337432861328125;-1.0002593994140625;-0.06309694051742554;0.009807356633245945;0.00017896443023346364
0.006072998046875;-0.1337432861328125;-1.0002593994140625;-0.06309694051742554;0.009807356633245945;0.00017896443023346364
0.006072998046875;-0.1337432861328125;-1.0002593994140625;-0.06309694051742554;0.009807356633245945;0.00017896443023346364
0.006072998046875;-0.1337432861328125;-1.0002593994140625;-0.06309694051742554;0.009807356633245945;0.00017896443023346364
0.007171630859375;-0.1348724365234375;-1.0014190673828125;-0.06722484529018402;0.028711805120110512;0.0018519621808081865
0.007171630859375;-0.1348724365234375;-1.0014190673828125;-0.06722484529018402;0.028711805120110512;0.0018519621808081865
0.007171630859375;-0.1348724365234375;-1.0014190673828125;-0.06722484529018402;0.028711805120110512;0.0018519621808081865
0.007171630859375;-0.1348724365234375;-1.0014190673828125;-0.06722484529018402;0.028711805120110512;0.0018519621808081865
0.007171630859375;-0.1348724365234375;-1.0014190673828125;-0.06722484529018402;0.028711805120110512;0.0018519621808081865
0.00958251953125;-0.1363067626953125;-1.00250244140625;-0.07482630759477615;0.039745815098285675;0.0025044367648661137
0.00958251953125;-0.1363067626953125;-1.00250244140625;-0.07482630759477615;0.039745815098285675;0.0025044367648661137
0.00958251953125;-0.1363067626953125;-1.00250244140625;-0.07482630759477615;0.039745815098285675;0.0025044367648661137
0.00958251953125;-0.1363067626953125;-1.00250244140625;-0.07482630759477615;0.039745815098285675;0.0025044367648661137
0.00958251953125;-0.1363067626953125;-1.00250244140625;-0.07482630759477615;0.039745815098285675;0.0025044367648661137
0.01263427734375;-0.137237548828125;-1.004730224609375;-0.08109192550182343;0.04032079130411148;-0.001618136651813984
0.01263427734375;-0.137237548828125;-1.004730224609375;-0.08109192550182343;0.04032079130411148;-0.001618136651813984
0.01263427734375;-0.137237548828125;-1.004730224609375;-0.08109192550182343;0.04032079130411148;-0.001618136651813984
0.01263427734375;-0.137237548828125;-1.004730224609375;-0.08109192550182343;0.04032079130411148;-0.001618136651813984
0.01263427734375;-0.137237548828125;-1.004730224609375;-0.08109192550182343;0.04032079130411148;-0.001618136651813984
0.01556396484375;-0.13763427734375;-1.010162353515625;-0.08068366348743439;0.029525933787226677;0.00015925703337416053
0.01556396484375;-0.13763427734375;-1.010162353515625;-0.08068366348743439;0.029525933787226677;0.00015925703337416053
0.01556396484375;-0.13763427734375;-1.010162353515625;-0.08068366348743439;0.029525933787226677;0.00015925703337416053
0.01556396484375;-0.13763427734375;-1.010162353515625;-0.08068366348743439;0.029525933787226677;0.00015925703337416053
0.01556396484375;-0.13763427734375;-1.010162353515625;-0.08068366348743439;0.029525933787226677;0.00015925703337416053
0.0171966552734375;-0.13861083984375;-1.016754150390625;-0.0807020366191864;0.017191769555211067;0.0003230414295103401
0.0171966552734375;-0.13861083984375;-1.016754150390625;-0.0807020366191864;0.017191769555211067;0.0003230414295103401
0.0171966552734375;-0.13861083984375;-1.016754150390625;-0.0807020366191864;0.017191769555211067;0.0003230414295103401
0.0171966552734375;-0.13861083984375;-1.016754150390625;-0.0807020366191864;0.017191769555211067;0.0003230414295103401
