Acell X;Acell Y;Acell Z;Gyro X;Gyro Y;Gyro Z

0.0442962646484375;-0.18487548828125;-0.9912109375;0.014787201769649982;-0.007413707673549652;-0.0068238177336752415
0.0442962646484375;-0.18487548828125;-0.9912109375;0.014787201769649982;-0.007413707673549652;-0.0068238177336752415
0.0442962646484375;-0.18487548828125;-0.9912109375;0.014787201769649982;-0.007413707673549652;-0.0068238177336752415
0.066162109375;-0.2017364501953125;-0.9641571044921875;0.006119944155216217;-0.026019616052508354;-0.005630454979836941
0.066162109375;-0.2017364501953125;-0.9641571044921875;0.006119944155216217;-0.026019616052508354;-0.005630454979836941
0.066162109375;-0.2017364501953125;-0.9641571044921875;0.006119944155216217;-0.026019616052508354;-0.005630454979836941
0.066162109375;-0.2017364501953125;-0.9641571044921875;0.006119944155216217;-0.026019616052508354;-0.005630454979836941
0.066162109375;-0.2017364501953125;-0.9641571044921875;0.006119944155216217;-0.026019616052508354;-0.005630454979836941
0.067047119140625;-0.2062835693359375;-0.9637908935546875;-0.008616125211119652;-0.0475134551525116;-0.00842863880097866
0.067047119140625;-0.2062835693359375;-0.9637908935546875;-0.008616125211119652;-0.0475134551525116;-0.00842863880097866
0.067047119140625;-0.2062835693359375;-0.9637908935546875;-0.008616125211119652;-0.0475134551525116;-0.00842863880097866
0.067047119140625;-0.2062835693359375;-0.9637908935546875;-0.008616125211119652;-0.0475134551525116;-0.00842863880097866
0.067047119140625;-0.2062835693359375;-0.9637908935546875;-0.008616125211119652;-0.0475134551525116;-0.00842863880097866
0.0615386962890625;-0.2071990966796875;-0.9667816162109375;-0.018734272569417953;-0.042445193976163864;-0.006238721311092377
0.0615386962890625;-0.2071990966796875;-0.9667816162109375;-0.018734272569417953;-0.042445193976163864;-0.006238721311092377
0.0615386962890625;-0.2071990966796875;-0.9667816162109375;-0.018734272569417953;-0.042445193976163864;-0.006238721311092377
0.0615386962890625;-0.2071990966796875;-0.9667816162109375;-0.018734272569417953;-0.042445193976163864;-0.006238721311092377
0.0615386962890625;-0.2071990966796875;-0.9667816162109375;-0.023559387773275375;-0.016883375123143196;-0.0022626216523349285
0.0585479736328125;-0.207489013671875;-0.9745941162109375;-0.023559387773275375;-0.016883375123143196;-0.0022626216523349285
0.0585479736328125;-0.207489013671875;-0.9745941162109375;-0.023559387773275375;-0.016883375123143196;-0.0022626216523349285
0.0585479736328125;-0.207489013671875;-0.9745941162109375;-0.023559387773275375;-0.016883375123143196;-0.0022626216523349285
0.0585479736328125;-0.207489013671875;-0.9745941162109375;-0.023559387773275375;-0.016883375123143196;-0.0022626216523349285
0.0585479736328125;-0.207489013671875;-0.9745941162109375;-0.021813420578837395;0.005131112411618233;6.924218905624002e-05
0.058135986328125;-0.2098236083984375;-0.9819488525390625;-0.021813420578837395;0.005131112411618233;6.924218905624002e-05
0.058135986328125;-0.2098236083984375;-0.9819488525390625;-0.021813420578837395;0.005131112411618233;6.924218905624002e-05
0.058135986328125;-0.2098236083984375;-0.9819488525390625;-0.021813420578837395;0.005131112411618233;6.924218905624002e-05
0.058135986328125;-0.2098236083984375;-0.9819488525390625;-0.021813420578837395;0.005131112411618233;6.924218905624002e-05
0.0607757568359375;-0.211273193359375;-0.9902496337890625;-0.025486184284090996;0.010500045493245125;0.0003062635369133204
0.0607757568359375;-0.211273193359375;-0.9902496337890625;-0.025486184284090996;0.010500045493245125;0.0003062635369133204
0.0607757568359375;-0.211273193359375;-0.9902496337890625;-0.025486184284090996;0.010500045493245125;0.0003062635369133204
0.0607757568359375;-0.211273193359375;-0.9902496337890625;-0.025486184284090996;0.010500045493245125;0.0003062635369133204
0.0607757568359375;-0.211273193359375;-0.9902496337890625;-0.025486184284090996;0.010500045493245125;0.0003062635369133204
0.0607757568359375;-0.211273193359375;-0.9902496337890625;-0.027298731729388237;0.010602043941617012;0.0005315669695846736
0.063018798828125;-0.2101593017578125;-0.9992828369140625;-0.027298731729388237;0.010602043941617012;0.0005315669695846736
0.063018798828125;-0.2101593017578125;-0.9992828369140625;-0.027298731729388237;0.010602043941617012;0.0005315669695846736
0.063018798828125;-0.2101593017578125;-0.9992828369140625;-0.027298731729388237;0.010602043941617012;0.0005315669695846736
0.063018798828125;-0.2101593017578125;-0.9992828369140625;-0.027298731729388237;0.010602043941617012;0.0005315669695846736
0.062347412109375;-0.209197998046875;-1.0078125;-0.026937607675790787;0.010522682219743729;-0.001751827308908105
0.062347412109375;-0.209197998046875;-1.0078125;-0.026937607675790787;0.010522682219743729;-0.001751827308908105
0.062347412109375;-0.209197998046875;-1.0078125;-0.026937607675790787;0.010522682219743729;-0.001751827308908105
0.062347412109375;-0.209197998046875;-1.0078125;-0.026937607675790787;0.010522682219743729;-0.001751827308908105
0.062347412109375;-0.209197998046875;-1.0078125;-0.026937607675790787;0.010522682219743729;-0.001751827308908105
0.062347412109375;-0.209197998046875;-1.0078125;-0.026164758950471878;0.013555223122239113;0.00020479709201026708
0.0623779296875;-0.210113525390625;-1.0109100341796875;-0.026164758950471878;0.013555223122239113;0.00020479709201026708
0.0623779296875;-0.210113525390625;-1.0109100341796875;-0.026164758950471878;0.013555223122239113;0.00020479709201026708
0.0623779296875;-0.210113525390625;-1.0109100341796875;-0.026164758950471878;0.013555223122239113;0.00020479709201026708
0.0623779296875;-0.210113525390625;-1.0109100341796875;-0.026164758950471878;0.013555223122239113;0.00020479709201026708
0.062347412109375;-0.2098846435546875;-1.008575439453125;-0.028477447107434273;0.014371216297149658;0.0003278351214248687
0.062347412109375;-0.2098846435546875;-1.008575439453125;-0.028477447107434273;0.014371216297149658;0.0003278351214248687
0.062347412109375;-0.2098846435546875;-1.008575439453125;-0.028477447107434273;0.014371216297149658;0.0003278351214248687
0.062347412109375;-0.2098846435546875;-1.008575439453125;-0.028477447107434273;0.014371216297149658;0.0003278351214248687
0.062347412109375;-0.2098846435546875;-1.008575439453125;-0.028477447107434273;0.014371216297149658;0.0003278351214248687
0.0625152587890625;-0.210296630859375;-1.0036468505859375;-0.030607709661126137;0.01215972751379013;0.0008495483780279756
0.0625152587890625;-0.210296630859375;-1.0036468505859375;-0.030607709661126137;0.01215972751379013;0.0008495483780279756
0.0625152587890625;-0.210296630859375;-1.0036468505859375;-0.030607709661126137;0.01215972751379013;0.0008495483780279756
0.0625152587890625;-0.210296630859375;-1.0036468505859375;-0.030607709661126137;0.01215972751379013;0.0008495483780279756
0.0625152587890625;-0.210296630859375;-1.0036468505859375;-0.030607709661126137;0.01215972751379013;0.0008495483780279756
0.063995361328125;-0.209381103515625;-0.996551513671875;-0.035888757556676865;0.009496565908193588;-0.0015954998089000583
0.063995361328125;-0.209381103515625;-0.996551513671875;-0.035888757556676865;0.009496565908193588;-0.0015954998089000583
0.063995361328125;-0.209381103515625;-0.996551513671875;-0.035888757556676865;0.009496565908193588;-0.0015954998089000583
0.063995361328125;-0.209381103515625;-0.996551513671875;-0.035888757556676865;0.009496565908193588;-0.0015954998089000583
0.063995361328125;-0.209381103515625;-0.996551513671875;-0.035888757556676865;0.009496565908193588;-0.0015954998089000583
0.065032958984375;-0.206634521484375;-0.9913330078125;-0.04386385902762413;0.01386814471334219;-0.0009768474847078323
0.065032958984375;-0.206634521484375;-0.9913330078125;-0.04386385902762413;0.01386814471334219;-0.0009768474847078323
0.065032958984375;-0.206634521484375;-0.9913330078125;-0.04386385902762413;0.01386814471334219;-0.0009768474847078323
0.065032958984375;-0.206634521484375;-0.9913330078125;-0.04386385902762413;0.01386814471334219;-0.0009768474847078323
0.065032958984375;-0.206634521484375;-0.9913330078125;-0.04386385902762413;0.01386814471334219;-0.0009768474847078323
0.0649261474609375;-0.2032623291015625;-0.9854583740234375;-0.048226118087768555;0.02052631415426731;0.0014231932582333684
0.0649261474609375;-0.2032623291015625;-0.9854583740234375;-0.048226118087768555;0.02052631415426731;0.0014231932582333684
0.0649261474609375;-0.2032623291015625;-0.9854583740234375;-0.048226118087768555;0.02052631415426731;0.0014231932582333684
0.0649261474609375;-0.2032623291015625;-0.9854583740234375;-0.048226118087768555;0.02052631415426731;0.0014231932582333684
0.0649261474609375;-0.2032623291015625;-0.9854583740234375;-0.048226118087768555;0.02052631415426731;0.0014231932582333684
0.06671142578125;-0.2020416259765625;-0.9809417724609375;-0.05079846456646919;0.025130387395620346;0.0016207997687160969
0.06671142578125;-0.2020416259765625;-0.9809417724609375;-0.05079846456646919;0.025130387395620346;0.0016207997687160969
0.06671142578125;-0.2020416259765625;-0.9809417724609375;-0.05079846456646919;0.025130387395620346;0.0016207997687160969
0.06671142578125;-0.2020416259765625;-0.9809417724609375;-0.05079846456646919;0.025130387395620346;0.0016207997687160969
0.06671142578125;-0.2020416259765625;-0.9809417724609375;-0.05079846456646919;0.025130387395620346;0.0016207997687160969
0.067108154296875;-0.1988067626953125;-0.9839630126953125;-0.04565536975860596;0.0070919981226325035;-0.007184942252933979
0.067108154296875;-0.1988067626953125;-0.9839630126953125;-0.04565536975860596;0.0070919981226325035;-0.007184942252933979
0.067108154296875;-0.1988067626953125;-0.9839630126953125;-0.04565536975860596;0.0070919981226325035;-0.007184942252933979
0.067108154296875;-0.1988067626953125;-0.9839630126953125;-0.04565536975860596;0.0070919981226325035;-0.007184942252933979
0.067108154296875;-0.1988067626953125;-0.9839630126953125;-0.04565536975860596;0.0070919981226325035;-0.007184942252933979
0.064361572265625;-0.190643310546875;-0.997833251953125;-0.0340554378926754;-0.01543648075312376;-0.013774135150015354
0.064361572265625;-0.190643310546875;-0.997833251953125;-0.0340554378926754;-0.01543648075312376;-0.013774135150015354
0.064361572265625;-0.190643310546875;-0.997833251953125;-0.0340554378926754;-0.01543648075312376;-0.013774135150015354
0.064361572265625;-0.190643310546875;-0.997833251953125;-0.0340554378926754;-0.01543648075312376;-0.013774135150015354
0.064361572265625;-0.190643310546875;-0.997833251953125;-0.0340554378926754;-0.01543648075312376;-0.013774135150015354
0.063873291015625;-0.188201904296875;-1.0034637451171875;-0.02317855693399906;-0.041122134774923325;-0.013849502429366112
0.063873291015625;-0.188201904296875;-1.0034637451171875;-0.02317855693399906;-0.041122134774923325;-0.013849502429366112
0.063873291015625;-0.188201904296875;-1.0034637451171875;-0.02317855693399906;-0.041122134774923325;-0.013849502429366112
0.063873291015625;-0.188201904296875;-1.0034637451171875;-0.02317855693399906;-0.041122134774923325;-0.013849502429366112
0.063873291015625;-0.188201904296875;-1.0034637451171875;-0.02317855693399906;-0.041122134774923325;-0.013849502429366112
0.062774658203125;-0.1884765625;-1.0013885498046875;-0.01900884509086609;-0.05167917162179947;-0.012918462045490742
0.062774658203125;-0.1884765625;-1.0013885498046875;-0.01900884509086609;-0.05167917162179947;-0.012918462045490742
0.062774658203125;-0.1884765625;-1.0013885498046875;-0.01900884509086609;-0.05167917162179947;-0.012918462045490742
0.062774658203125;-0.1884765625;-1.0013885498046875;-0.01900884509086609;-0.05167917162179947;-0.012918462045490742
0.062774658203125;-0.1884765625;-1.0013885498046875;-0.01900884509086609;-0.05167917162179947;-0.012918462045490742
0.06427001953125;-0.189422607421875;-0.9953155517578125;-0.01661386340856552;-0.03678864240646362;-0.007444067858159542
0.06427001953125;-0.189422607421875;-0.9953155517578125;-0.01661386340856552;-0.03678864240646362;-0.007444067858159542
0.06427001953125;-0.189422607421875;-0.9953155517578125;-0.01661386340856552;-0.03678864240646362;-0.007444067858159542
0.06427001953125;-0.189422607421875;-0.9953155517578125;-0.01661386340856552;-0.03678864240646362;-0.007444067858159542
0.06427001953125;-0.189422607421875;-0.9953155517578125;-0.01661386340856552;-0.03678864240646362;-0.007444067858159542
0.062469482421875;-0.19207763671875;-0.990142822265625;-0.02165069989860058;-0.018997659906744957;-0.0025835325941443443
0.062469482421875;-0.19207763671875;-0.990142822265625;-0.02165069989860058;-0.018997659906744957;-0.0025835325941443443
0.062469482421875;-0.19207763671875;-0.990142822265625;-0.02165069989860058;-0.018997659906744957;-0.0025835325941443443
0.062469482421875;-0.19207763671875;-0.990142822265625;-0.02165069989860058;-0.018997659906744957;-0.0025835325941443443
0.062469482421875;-0.19207763671875;-0.990142822265625;-0.02165069989860058;-0.018997659906744957;-0.0025835325941443443
0.0621185302734375;-0.1929168701171875;-0.9868927001953125;-0.02454821951687336;0.006323143374174833;-0.0015574166318401694
0.0621185302734375;-0.1929168701171875;-0.9868927001953125;-0.02454821951687336;0.006323143374174833;-0.0015574166318401694
0.0621185302734375;-0.1929168701171875;-0.9868927001953125;-0.02454821951687336;0.006323143374174833;-0.0015574166318401694
0.0621185302734375;-0.1929168701171875;-0.9868927001953125;-0.02454821951687336;0.006323143374174833;-0.0015574166318401694
0.0621185302734375;-0.1929168701171875;-0.9868927001953125;-0.02454821951687336;0.006323143374174833;-0.0015574166318401694
0.0647430419921875;-0.1939697265625;-0.98541259765625;-0.03311054781079292;0.0312841534614563;-0.000529702752828598
0.0647430419921875;-0.1939697265625;-0.98541259765625;-0.03311054781079292;0.0312841534614563;-0.000529702752828598
0.0647430419921875;-0.1939697265625;-0.98541259765625;-0.03311054781079292;0.0312841534614563;-0.000529702752828598
0.0647430419921875;-0.1939697265625;-0.98541259765625;-0.03311054781079292;0.0312841534614563;-0.000529702752828598
0.0647430419921875;-0.1939697265625;-0.98541259765625;-0.03311054781079292;0.0312841534614563;-0.000529702752828598
0.0668487548828125;-0.1945648193359375;-0.987335205078125;-0.03412121906876564;0.043963197618722916;-0.00025246766745112836
0.0668487548828125;-0.1945648193359375;-0.987335205078125;-0.03412121906876564;0.043963197618722916;-0.00025246766745112836
0.0668487548828125;-0.1945648193359375;-0.987335205078125;-0.03412121906876564;0.043963197618722916;-0.00025246766745112836
0.0668487548828125;-0.1945648193359375;-0.987335205078125;-0.03412121906876564;0.043963197618722916;-0.00025246766745112836
0.0668487548828125;-0.1945648193359375;-0.987335205078125;-0.03412121906876564;0.043963197618722916;-0.00025246766745112836
0.0710296630859375;-0.195404052734375;-0.9903411865234375;-0.03502962365746498;0.04532620310783386;0.002088450826704502
0.0710296630859375;-0.195404052734375;-0.9903411865234375;-0.03502962365746498;0.04532620310783386;0.002088450826704502
0.0710296630859375;-0.195404052734375;-0.9903411865234375;-0.03502962365746498;0.04532620310783386;0.002088450826704502
0.0710296630859375;-0.195404052734375;-0.9903411865234375;-0.03502962365746498;0.04532620310783386;0.002088450826704502
0.0710296630859375;-0.195404052734375;-0.9903411865234375;-0.03502962365746498;0.04532620310783386;0.002088450826704502
0.075714111328125;-0.19854736328125;-0.9950103759765625;-0.028245752677321434;0.04128165915608406;0.008235293440520763
0.075714111328125;-0.19854736328125;-0.9950103759765625;-0.028245752677321434;0.04128165915608406;0.008235293440520763
0.075714111328125;-0.19854736328125;-0.9950103759765625;-0.028245752677321434;0.04128165915608406;0.008235293440520763
0.075714111328125;-0.19854736328125;-0.9950103759765625;-0.028245752677321434;0.04128165915608406;0.008235293440520763
0.075714111328125;-0.19854736328125;-0.9950103759765625;-0.028245752677321434;0.04128165915608406;0.008235293440520763
0.074737548828125;-0.2001495361328125;-1.000946044921875;-0.0211806520819664;0.031213846057653427;0.009159144014120102
0.074737548828125;-0.2001495361328125;-1.000946044921875;-0.0211806520819664;0.031213846057653427;0.009159144014120102
0.074737548828125;-0.2001495361328125;-1.000946044921875;-0.0211806520819664;0.031213846057653427;0.009159144014120102
0.074737548828125;-0.2001495361328125;-1.000946044921875;-0.0211806520819664;0.031213846057653427;0.009159144014120102
0.074737548828125;-0.2001495361328125;-1.000946044921875;-0.0211806520819664;0.031213846057653427;0.009159144014120102
0.070526123046875;-0.202392578125;-1.002471923828125;-0.018267154693603516;0.019808592274785042;0.004845088813453913
0.070526123046875;-0.202392578125;-1.002471923828125;-0.018267154693603516;0.019808592274785042;0.004845088813453913
0.070526123046875;-0.202392578125;-1.002471923828125;-0.018267154693603516;0.019808592274785042;0.004845088813453913
0.070526123046875;-0.202392578125;-1.002471923828125;-0.018267154693603516;0.019808592274785042;0.004845088813453913
0.070526123046875;-0.202392578125;-1.002471923828125;-0.018267154693603516;0.019808592274785042;0.004845088813453913
0.069244384765625;-0.201904296875;-1.001922607421875;-0.012460397556424141;0.0067756143398582935;0.00412390474230051
0.069244384765625;-0.201904296875;-1.001922607421875;-0.012460397556424141;0.0067756143398582935;0.00412390474230051
0.069244384765625;-0.201904296875;-1.001922607421875;-0.012460397556424141;0.0067756143398582935;0.00412390474230051
0.069244384765625;-0.201904296875;-1.001922607421875;-0.012460397556424141;0.0067756143398582935;0.00412390474230051
0.069244384765625;-0.201904296875;-1.001922607421875;-0.012460397556424141;0.0067756143398582935;0.00412390474230051
0.0676116943359375;-0.201324462890625;-1.0013427734375;-0.016580041497945786;-0.0020447750575840473;0.0005083974683657289
0.0676116943359375;-0.201324462890625;-1.0013427734375;-0.016580041497945786;-0.0020447750575840473;0.0005083974683657289
0.0676116943359375;-0.201324462890625;-1.0013427734375;-0.016580041497945786;-0.0020447750575840473;0.0005083974683657289
0.0676116943359375;-0.201324462890625;-1.0013427734375;-0.016580041497945786;-0.0020447750575840473;0.0005083974683657289
0.0676116943359375;-0.201324462890625;-1.0013427734375;-0.016580041497945786;-0.0020447750575840473;0.0005083974683657289
0.066009521484375;-0.19915771484375;-0.998382568359375;-0.016353139653801918;-0.006615025922656059;-0.0006804376607760787
0.066009521484375;-0.19915771484375;-0.998382568359375;-0.016353139653801918;-0.006615025922656059;-0.0006804376607760787
0.066009521484375;-0.19915771484375;-0.998382568359375;-0.016353139653801918;-0.006615025922656059;-0.0006804376607760787
0.066009521484375;-0.19915771484375;-0.998382568359375;-0.016353139653801918;-0.006615025922656059;-0.0006804376607760787
0.066009521484375;-0.19915771484375;-0.998382568359375;-0.016353139653801918;-0.006615025922656059;-0.0006804376607760787
0.0648193359375;-0.1977996826171875;-0.996856689453125;-0.018678080290555954;-0.008057127706706524;-0.004279167391359806
0.0648193359375;-0.1977996826171875;-0.996856689453125;-0.018678080290555954;-0.008057127706706524;-0.004279167391359806
0.0648193359375;-0.1977996826171875;-0.996856689453125;-0.018678080290555954;-0.008057127706706524;-0.004279167391359806
0.0648193359375;-0.1977996826171875;-0.996856689453125;-0.018678080290555954;-0.008057127706706524;-0.004279167391359806
0.0648193359375;-0.1977996826171875;-0.996856689453125;-0.018678080290555954;-0.008057127706706524;-0.004279167391359806
0.064910888671875;-0.195556640625;-0.997711181640625;-0.0223202183842659;-0.004225904121994972;-0.0008341020438820124
0.064910888671875;-0.195556640625;-0.997711181640625;-0.0223202183842659;-0.004225904121994972;-0.0008341020438820124
0.064910888671875;-0.195556640625;-0.997711181640625;-0.0223202183842659;-0.004225904121994972;-0.0008341020438820124
0.064910888671875;-0.195556640625;-0.997711181640625;-0.0223202183842659;-0.004225904121994972;-0.0008341020438820124
0.064910888671875;-0.195556640625;-0.997711181640625;-0.0223202183842659;-0.004225904121994972;-0.0008341020438820124
0.0660552978515625;-0.1949615478515625;-0.9967193603515625;-0.022127673029899597;0.00563897704705596;-0.0012892362428829074
0.0660552978515625;-0.1949615478515625;-0.9967193603515625;-0.022127673029899597;0.00563897704705596;-0.0012892362428829074
0.0660552978515625;-0.1949615478515625;-0.9967193603515625;-0.022127673029899597;0.00563897704705596;-0.0012892362428829074
0.0660552978515625;-0.1949615478515625;-0.9967193603515625;-0.022127673029899597;0.00563897704705596;-0.0012892362428829074
0.0660552978515625;-0.1949615478515625;-0.9967193603515625;-0.022127673029899597;0.00563897704705596;-0.0012892362428829074
0.066802978515625;-0.1944122314453125;-0.9969635009765625;-0.014683871529996395;0.010951451025903225;-0.0017635452095419168
0.066802978515625;-0.1944122314453125;-0.9969635009765625;-0.014683871529996395;0.010951451025903225;-0.0017635452095419168
0.066802978515625;-0.1944122314453125;-0.9969635009765625;-0.014683871529996395;0.010951451025903225;-0.0017635452095419168
0.066802978515625;-0.1944122314453125;-0.9969635009765625;-0.014683871529996395;0.010951451025903225;-0.0017635452095419168
0.066802978515625;-0.1944122314453125;-0.9969635009765625;-0.014683871529996395;0.010951451025903225;-0.0017635452095419168
0.067840576171875;-0.194061279296875;-0.9982452392578125;-0.012679309584200382;0.015725700184702873;-0.0035246936604380608
0.067840576171875;-0.194061279296875;-0.9982452392578125;-0.012679309584200382;0.015725700184702873;-0.0035246936604380608
0.067840576171875;-0.194061279296875;-0.9982452392578125;-0.012679309584200382;0.015725700184702873;-0.0035246936604380608
0.067840576171875;-0.194061279296875;-0.9982452392578125;-0.012679309584200382;0.015725700184702873;-0.0035246936604380608
0.067840576171875;-0.194061279296875;-0.9982452392578125;-0.012679309584200382;0.015725700184702873;-0.0035246936604380608
0.06866455078125;-0.1948394775390625;-0.9991455078125;-0.006015548016875982;0.011342668905854225;-0.00381471193395555
0.06866455078125;-0.1948394775390625;-0.9991455078125;-0.006015548016875982;0.011342668905854225;-0.00381471193395555
0.06866455078125;-0.1948394775390625;-0.9991455078125;-0.006015548016875982;0.011342668905854225;-0.00381471193395555
0.06866455078125;-0.1948394775390625;-0.9991455078125;-0.006015548016875982;0.011342668905854225;-0.00381471193395555
0.06866455078125;-0.1948394775390625;-0.9991455078125;-0.006015548016875982;0.011342668905854225;-0.00381471193395555
0.0678863525390625;-0.1953277587890625;-1.000701904296875;-0.0007613977650180459;0.004756671842187643;-0.0019121496006846428
0.0678863525390625;-0.1953277587890625;-1.000701904296875;-0.0007613977650180459;0.004756671842187643;-0.0019121496006846428
0.0678863525390625;-0.1953277587890625;-1.000701904296875;-0.0007613977650180459;0.004756671842187643;-0.0019121496006846428
0.0678863525390625;-0.1953277587890625;-1.000701904296875;-0.0007613977650180459;0.004756671842187643;-0.0019121496006846428
0.0678863525390625;-0.1953277587890625;-1.000701904296875;-0.0007613977650180459;0.004756671842187643;-0.0019121496006846428
0.0670623779296875;-0.1957244873046875;-0.99993896484375;0.0016437029698863626;-0.0018224010709673166;-0.0038211036007851362
0.0670623779296875;-0.1957244873046875;-0.99993896484375;0.0016437029698863626;-0.0018224010709673166;-0.0038211036007851362
0.0670623779296875;-0.1957244873046875;-0.99993896484375;0.0016437029698863626;-0.0018224010709673166;-0.0038211036007851362
0.0670623779296875;-0.1957244873046875;-0.99993896484375;0.0016437029698863626;-0.0018224010709673166;-0.0038211036007851362
0.0670623779296875;-0.1957244873046875;-0.99993896484375;0.004910869058221579;-0.0049438923597335815;-0.0007962851668708026
0.0652618408203125;-0.196258544921875;-0.998779296875;0.004910869058221579;-0.0049438923597335815;-0.0007962851668708026
0.0652618408203125;-0.196258544921875;-0.998779296875;0.004910869058221579;-0.0049438923597335815;-0.0007962851668708026
0.0652618408203125;-0.196258544921875;-0.998779296875;0.004910869058221579;-0.0049438923597335815;-0.0007962851668708026
0.0652618408203125;-0.196258544921875;-0.998779296875;0.004910869058221579;-0.0049438923597335815;-0.0007962851668708026
0.0652618408203125;-0.196258544921875;-0.998779296875;0.004910869058221579;-0.0049438923597335815;-0.0007962851668708026
0.0648651123046875;-0.1978607177734375;-0.99798583984375;0.0075758942402899265;-0.00526560191065073;-0.001136637176387012
0.0648651123046875;-0.1978607177734375;-0.99798583984375;0.0075758942402899265;-0.00526560191065073;-0.001136637176387012
0.0648651123046875;-0.1978607177734375;-0.99798583984375;0.0075758942402899265;-0.00526560191065073;-0.001136637176387012
0.0648651123046875;-0.1978607177734375;-0.99798583984375;0.0075758942402899265;-0.00526560191065073;-0.001136637176387012
0.0648651123046875;-0.1978607177734375;-0.99798583984375;0.0075758942402899265;-0.00526560191065073;-0.001136637176387012
0.0653076171875;-0.197418212890625;-0.9969329833984375;0.010174074210226536;-0.0029025792609900236;2.210423735959921e-05
0.0653076171875;-0.197418212890625;-0.9969329833984375;0.010174074210226536;-0.0029025792609900236;2.210423735959921e-05
0.0653076171875;-0.197418212890625;-0.9969329833984375;0.010174074210226536;-0.0029025792609900236;2.210423735959921e-05
0.0653076171875;-0.197418212890625;-0.9969329833984375;0.010174074210226536;-0.0029025792609900236;2.210423735959921e-05
0.0653076171875;-0.197418212890625;-0.9969329833984375;0.010174074210226536;-0.0029025792609900236;2.210423735959921e-05
0.064849853515625;-0.1953125;-0.9970855712890625;0.010161024518311024;-0.0067995828576385975;-0.0001675128296483308
0.064849853515625;-0.1953125;-0.9970855712890625;0.010161024518311024;-0.0067995828576385975;-0.0001675128296483308
0.064849853515625;-0.1953125;-0.9970855712890625;0.010161024518311024;-0.0067995828576385975;-0.0001675128296483308
0.064849853515625;-0.1953125;-0.9970855712890625;0.010161024518311024;-0.0067995828576385975;-0.0001675128296483308
0.064849853515625;-0.1953125;-0.9970855712890625;0.011927233077585697;-0.009495766833424568;-0.0010998855577781796
0.0644683837890625;-0.1949615478515625;-0.997894287109375;0.011927233077585697;-0.009495766833424568;-0.0010998855577781796
0.0644683837890625;-0.1949615478515625;-0.997894287109375;0.011927233077585697;-0.009495766833424568;-0.0010998855577781796
0.0644683837890625;-0.1949615478515625;-0.997894287109375;0.011927233077585697;-0.009495766833424568;-0.0010998855577781796
0.0644683837890625;-0.1949615478515625;-0.997894287109375;0.011927233077585697;-0.009495766833424568;-0.0010998855577781796
0.067047119140625;-0.19683837890625;-0.997894287109375;0.007616640534251928;-0.004866127856075764;0.0014626081101596355
0.067047119140625;-0.19683837890625;-0.997894287109375;0.007616640534251928;-0.004866127856075764;0.0014626081101596355
0.067047119140625;-0.19683837890625;-0.997894287109375;0.007616640534251928;-0.004866127856075764;0.0014626081101596355
0.067047119140625;-0.19683837890625;-0.997894287109375;0.007616640534251928;-0.004866127856075764;0.0014626081101596355
0.067047119140625;-0.19683837890625;-0.997894287109375;0.007616640534251928;-0.004866127856075764;0.0014626081101596355
0.067047119140625;-0.19683837890625;-0.997894287109375;-0.0023060310631990433;-0.0026104305870831013;0.006335926707834005
0.0676116943359375;-0.1975555419921875;-0.9933624267578125;-0.0023060310631990433;-0.0026104305870831013;0.006335926707834005
0.0676116943359375;-0.1975555419921875;-0.9933624267578125;-0.0023060310631990433;-0.0026104305870831013;0.006335926707834005
0.0676116943359375;-0.1975555419921875;-0.9933624267578125;-0.0023060310631990433;-0.0026104305870831013;0.006335926707834005
0.0676116943359375;-0.1975555419921875;-0.9933624267578125;-0.0023060310631990433;-0.0026104305870831013;0.006335926707834005
0.0676116943359375;-0.1975555419921875;-0.9933624267578125;-0.008187356404960155;-0.005911152344197035;0.002983539365231991
0.0654449462890625;-0.196319580078125;-0.991668701171875;-0.008187356404960155;-0.005911152344197035;0.002983539365231991
0.0654449462890625;-0.196319580078125;-0.991668701171875;-0.008187356404960155;-0.005911152344197035;0.002983539365231991
0.0654449462890625;-0.196319580078125;-0.991668701171875;-0.008187356404960155;-0.005911152344197035;0.002983539365231991
0.0654449462890625;-0.196319580078125;-0.991668701171875;-0.008187356404960155;-0.005911152344197035;0.002983539365231991
0.0638580322265625;-0.1942901611328125;-0.9903717041015625;-0.014576545916497707;-0.010162356309592724;0.00077631144085899
0.0638580322265625;-0.1942901611328125;-0.9903717041015625;-0.014576545916497707;-0.010162356309592724;0.00077631144085899
0.0638580322265625;-0.1942901611328125;-0.9903717041015625;-0.014576545916497707;-0.010162356309592724;0.00077631144085899
0.0638580322265625;-0.1942901611328125;-0.9903717041015625;-0.014576545916497707;-0.010162356309592724;0.00077631144085899
0.0638580322265625;-0.1942901611328125;-0.9903717041015625;-0.014576545916497707;-0.010162356309592724;0.00077631144085899
0.063629150390625;-0.1935577392578125;-0.9890899658203125;-0.01799817569553852;-0.00669278996065259;-0.0007555388147011399
0.063629150390625;-0.1935577392578125;-0.9890899658203125;-0.01799817569553852;-0.00669278996065259;-0.0007555388147011399
0.063629150390625;-0.1935577392578125;-0.9890899658203125;-0.01799817569553852;-0.00669278996065259;-0.0007555388147011399
0.063629150390625;-0.1935577392578125;-0.9890899658203125;-0.01799817569553852;-0.00669278996065259;-0.0007555388147011399
0.063629150390625;-0.1935577392578125;-0.9890899658203125;-0.01799817569553852;-0.00669278996065259;-0.0007555388147011399
0.0645904541015625;-0.1930694580078125;-0.9878997802734375;-0.015447133220732212;-0.0039265644736588;0.0010434264549985528
0.0645904541015625;-0.1930694580078125;-0.9878997802734375;-0.015447133220732212;-0.0039265644736588;0.0010434264549985528
0.0645904541015625;-0.1930694580078125;-0.9878997802734375;-0.015447133220732212;-0.0039265644736588;0.0010434264549985528
0.0645904541015625;-0.1930694580078125;-0.9878997802734375;-0.015447133220732212;-0.0039265644736588;0.0010434264549985528
0.0645904541015625;-0.1930694580078125;-0.9878997802734375;-0.015447133220732212;-0.0039265644736588;0.0010434264549985528
0.0665130615234375;-0.192596435546875;-0.9905548095703125;-0.015447133220732212;-0.0039265644736588;0.0010434264549985528
0.0665130615234375;-0.192596435546875;-0.9905548095703125;-0.015678828582167625;-0.0019169433508068323;0.00072597770486027
0.0665130615234375;-0.192596435546875;-0.9905548095703125;-0.015678828582167625;-0.0019169433508068323;0.00072597770486027
0.0665130615234375;-0.192596435546875;-0.9905548095703125;-0.015678828582167625;-0.0019169433508068323;0.00072597770486027
0.0665130615234375;-0.192596435546875;-0.9905548095703125;-0.015678828582167625;-0.0019169433508068323;0.00072597770486027
0.0670013427734375;-0.192413330078125;-0.99237060546875;-0.006746053230017424;0.0033718282356858253;0.0041364217177033424
0.0670013427734375;-0.192413330078125;-0.99237060546875;-0.006746053230017424;0.0033718282356858253;0.0041364217177033424
0.0670013427734375;-0.192413330078125;-0.99237060546875;-0.006746053230017424;0.0033718282356858253;0.0041364217177033424
0.0670013427734375;-0.192413330078125;-0.99237060546875;-0.006746053230017424;0.0033718282356858253;0.0041364217177033424
0.0670013427734375;-0.192413330078125;-0.99237060546875;-0.006746053230017424;0.0033718282356858253;0.0041364217177033424
0.067352294921875;-0.1932220458984375;-0.9945831298828125;-0.000693220819812268;0.0056954361498355865;0.0031931300181895494
0.067352294921875;-0.1932220458984375;-0.9945831298828125;-0.000693220819812268;0.0056954361498355865;0.0031931300181895494
0.067352294921875;-0.1932220458984375;-0.9945831298828125;-0.000693220819812268;0.0056954361498355865;0.0031931300181895494
0.067352294921875;-0.1932220458984375;-0.9945831298828125;-0.000693220819812268;0.0056954361498355865;0.0031931300181895494
0.067352294921875;-0.1932220458984375;-0.9945831298828125;-0.000693220819812268;0.0056954361498355865;0.0031931300181895494
0.0673065185546875;-0.192718505859375;-0.997894287109375;0.0020234698895365;0.004412325099110603;0.00318913534283638
0.0673065185546875;-0.192718505859375;-0.997894287109375;0.0020234698895365;0.004412325099110603;0.00318913534283638
0.0673065185546875;-0.192718505859375;-0.997894287109375;0.0020234698895365;0.004412325099110603;0.00318913534283638
0.0673065185546875;-0.192718505859375;-0.997894287109375;0.0020234698895365;0.004412325099110603;0.00318913534283638
0.0673065185546875;-0.192718505859375;-0.997894287109375;0.0020234698895365;0.004412325099110603;0.00318913534283638
0.0672454833984375;-0.19403076171875;-1.0001068115234375;0.00723580876365304;0.005931658670306206;0.002829608740285039
0.0672454833984375;-0.19403076171875;-1.0001068115234375;0.00723580876365304;0.005931658670306206;0.002829608740285039
0.0672454833984375;-0.19403076171875;-1.0001068115234375;0.00723580876365304;0.005931658670306206;0.002829608740285039
0.0672454833984375;-0.19403076171875;-1.0001068115234375;0.00723580876365304;0.005931658670306206;0.002829608740285039
0.0672454833984375;-0.19403076171875;-1.0001068115234375;0.00723580876365304;0.005931658670306206;0.002829608740285039
0.0671539306640625;-0.1960906982421875;-1.0026397705078125;0.012294483371078968;-0.0003102582704741508;0.0017947042360901833
0.0671539306640625;-0.1960906982421875;-1.0026397705078125;0.012294483371078968;-0.0003102582704741508;0.0017947042360901833
0.0671539306640625;-0.1960906982421875;-1.0026397705078125;0.012294483371078968;-0.0003102582704741508;0.0017947042360901833
0.0671539306640625;-0.1960906982421875;-1.0026397705078125;0.012294483371078968;-0.0003102582704741508;0.0017947042360901833
0.0671539306640625;-0.1960906982421875;-1.0026397705078125;0.012294483371078968;-0.0003102582704741508;0.0017947042360901833
0.0656585693359375;-0.1964874267578125;-1.002044677734375;0.009968744590878487;-0.003644536016508937;0.0008551410282962024
0.0656585693359375;-0.1964874267578125;-1.002044677734375;0.009968744590878487;-0.003644536016508937;0.0008551410282962024
0.0656585693359375;-0.1964874267578125;-1.002044677734375;0.009968744590878487;-0.003644536016508937;0.0008551410282962024
0.0656585693359375;-0.1964874267578125;-1.002044677734375;0.009968744590878487;-0.003644536016508937;0.0008551410282962024
0.0656585693359375;-0.1964874267578125;-1.002044677734375;0.009968744590878487;-0.003644536016508937;0.0008551410282962024
0.065826416015625;-0.1969757080078125;-1.0024871826171875;0.010661698877811432;-0.0023702133912593126;-0.000215716048842296
0.065826416015625;-0.1969757080078125;-1.0024871826171875;0.010661698877811432;-0.0023702133912593126;-0.000215716048842296
0.065826416015625;-0.1969757080078125;-1.0024871826171875;0.010661698877811432;-0.0023702133912593126;-0.000215716048842296
0.065826416015625;-0.1969757080078125;-1.0024871826171875;0.010661698877811432;-0.0023702133912593126;-0.000215716048842296
0.065826416015625;-0.1969757080078125;-1.0024871826171875;0.010661698877811432;-0.0023702133912593126;-0.000215716048842296
0.0665283203125;-0.1975860595703125;-1.000335693359375;0.007852597162127495;-0.0034639735240489244;0.0004921521758660674
0.0665283203125;-0.1975860595703125;-1.000335693359375;0.007852597162127495;-0.0034639735240489244;0.0004921521758660674
0.0665283203125;-0.1975860595703125;-1.000335693359375;0.007852597162127495;-0.0034639735240489244;0.0004921521758660674
0.0665283203125;-0.1975860595703125;-1.000335693359375;0.007852597162127495;-0.0034639735240489244;0.0004921521758660674
0.0665283203125;-0.1975860595703125;-1.000335693359375;0.007852597162127495;-0.0034639735240489244;0.0004921521758660674
0.0673065185546875;-0.1968536376953125;-0.9976654052734375;0.004381166305392981;-0.002141714096069336;0.0021582257468253374
0.0673065185546875;-0.1968536376953125;-0.9976654052734375;0.004381166305392981;-0.002141714096069336;0.0021582257468253374
0.0673065185546875;-0.1968536376953125;-0.9976654052734375;0.004381166305392981;-0.002141714096069336;0.0021582257468253374
0.0673065185546875;-0.1968536376953125;-0.9976654052734375;0.004381166305392981;-0.002141714096069336;0.0021582257468253374
0.0673065185546875;-0.1968536376953125;-0.9976654052734375;0.004381166305392981;-0.002141714096069336;0.0021582257468253374
0.0674285888671875;-0.196380615234375;-0.9954071044921875;0.002490055514499545;-0.002223206916823983;3.861583536490798e-05
0.0674285888671875;-0.196380615234375;-0.9954071044921875;0.002490055514499545;-0.002223206916823983;3.861583536490798e-05
0.0674285888671875;-0.196380615234375;-0.9954071044921875;0.002490055514499545;-0.002223206916823983;3.861583536490798e-05
0.0674285888671875;-0.196380615234375;-0.9954071044921875;0.002490055514499545;-0.002223206916823983;3.861583536490798e-05
0.0674285888671875;-0.196380615234375;-0.9954071044921875;0.002490055514499545;-0.002223206916823983;3.861583536490798e-05
0.06829833984375;-0.1948699951171875;-0.9937744140625;-0.00495161535218358;-0.0033593112602829933;0.0012772521004080772
0.06829833984375;-0.1948699951171875;-0.9937744140625;-0.00495161535218358;-0.0033593112602829933;0.0012772521004080772
0.06829833984375;-0.1948699951171875;-0.9937744140625;-0.00495161535218358;-0.0033593112602829933;0.0012772521004080772
0.06829833984375;-0.1948699951171875;-0.9937744140625;-0.00495161535218358;-0.0033593112602829933;0.0012772521004080772
0.06829833984375;-0.1948699951171875;-0.9937744140625;-0.00495161535218358;-0.0033593112602829933;0.0012772521004080772
0.0692596435546875;-0.194732666015625;-0.992431640625;-0.008362059481441975;-0.002255697501823306;-0.002591255819424987
0.0692596435546875;-0.194732666015625;-0.992431640625;-0.008362059481441975;-0.002255697501823306;-0.002591255819424987
0.0692596435546875;-0.194732666015625;-0.992431640625;-0.008362059481441975;-0.002255697501823306;-0.002591255819424987
0.0692596435546875;-0.194732666015625;-0.992431640625;-0.008362059481441975;-0.002255697501823306;-0.002591255819424987
0.0692596435546875;-0.194732666015625;-0.992431640625;-0.008362059481441975;-0.002255697501823306;-0.002591255819424987
0.06964111328125;-0.1946868896484375;-0.9929351806640625;-0.009224390611052513;-0.0012743226252496243;-0.0027976506389677525
0.06964111328125;-0.1946868896484375;-0.9929351806640625;-0.009224390611052513;-0.0012743226252496243;-0.0027976506389677525
0.06964111328125;-0.1946868896484375;-0.9929351806640625;-0.009224390611052513;-0.0012743226252496243;-0.0027976506389677525
0.06964111328125;-0.1946868896484375;-0.9929351806640625;-0.009224390611052513;-0.0012743226252496243;-0.0027976506389677525
0.06964111328125;-0.1946868896484375;-0.9929351806640625;-0.009224390611052513;-0.0012743226252496243;-0.0027976506389677525
0.0690155029296875;-0.194061279296875;-0.9928131103515625;-0.00820972677320242;-0.00256409146822989;-0.0025510420091450214
0.0690155029296875;-0.194061279296875;-0.9928131103515625;-0.00820972677320242;-0.00256409146822989;-0.0025510420091450214
0.0690155029296875;-0.194061279296875;-0.9928131103515625;-0.00820972677320242;-0.00256409146822989;-0.0025510420091450214
0.0690155029296875;-0.194061279296875;-0.9928131103515625;-0.00820972677320242;-0.00256409146822989;-0.0025510420091450214
0.0690155029296875;-0.194061279296875;-0.9928131103515625;-0.00820972677320242;-0.00256409146822989;-0.0025510420091450214
0.0680084228515625;-0.193756103515625;-0.993865966796875;-0.008447280153632164;-0.0038927425630390644;-0.002671949565410614
0.0680084228515625;-0.193756103515625;-0.993865966796875;-0.008447280153632164;-0.0038927425630390644;-0.002671949565410614
0.0680084228515625;-0.193756103515625;-0.993865966796875;-0.008447280153632164;-0.0038927425630390644;-0.002671949565410614
0.0680084228515625;-0.193756103515625;-0.993865966796875;-0.008447280153632164;-0.0038927425630390644;-0.002671949565410614
0.0680084228515625;-0.193756103515625;-0.993865966796875;-0.008447280153632164;-0.0038927425630390644;-0.002671949565410614
0.0669403076171875;-0.1935272216796875;-0.99481201171875;-0.007838748395442963;-0.0038008634001016617;-0.0028429245576262474
0.0669403076171875;-0.1935272216796875;-0.99481201171875;-0.007838748395442963;-0.0038008634001016617;-0.0028429245576262474
0.0669403076171875;-0.1935272216796875;-0.99481201171875;-0.007838748395442963;-0.0038008634001016617;-0.0028429245576262474
0.0669403076171875;-0.1935272216796875;-0.99481201171875;-0.007838748395442963;-0.0038008634001016617;-0.0028429245576262474
0.0669403076171875;-0.1935272216796875;-0.99481201171875;-0.007838748395442963;-0.0038008634001016617;-0.0028429245576262474
0.0671234130859375;-0.19451904296875;-0.9959259033203125;-0.00404614070430398;-0.006053365301340818;-0.0028328043408691883
0.0671234130859375;-0.19451904296875;-0.9959259033203125;-0.00404614070430398;-0.006053365301340818;-0.0028328043408691883
0.0671234130859375;-0.19451904296875;-0.9959259033203125;-0.00404614070430398;-0.006053365301340818;-0.0028328043408691883
0.0671234130859375;-0.19451904296875;-0.9959259033203125;-0.00404614070430398;-0.006053365301340818;-0.0028328043408691883
0.0671234130859375;-0.19451904296875;-0.9959259033203125;-0.00404614070430398;-0.006053365301340818;-0.0028328043408691883
0.0677032470703125;-0.1952667236328125;-0.9955291748046875;-0.006298908498138189;-0.009855826385319233;-0.003183276392519474
0.0677032470703125;-0.1952667236328125;-0.9955291748046875;-0.006298908498138189;-0.009855826385319233;-0.003183276392519474
0.0677032470703125;-0.1952667236328125;-0.9955291748046875;-0.006298908498138189;-0.009855826385319233;-0.003183276392519474
0.0677032470703125;-0.1952667236328125;-0.9955291748046875;-0.006298908498138189;-0.009855826385319233;-0.003183276392519474
0.0677032470703125;-0.1952667236328125;-0.9955291748046875;-0.006298908498138189;-0.009855826385319233;-0.003183276392519474
0.0672454833984375;-0.19635009765625;-0.9940338134765625;-0.008942894637584686;-0.012180766090750694;0.0019150790758430958
0.0672454833984375;-0.19635009765625;-0.9940338134765625;-0.008942894637584686;-0.012180766090750694;0.0019150790758430958
0.0672454833984375;-0.19635009765625;-0.9940338134765625;-0.008942894637584686;-0.012180766090750694;0.0019150790758430958
0.0672454833984375;-0.19635009765625;-0.9940338134765625;-0.008942894637584686;-0.012180766090750694;0.0019150790758430958
0.0672454833984375;-0.19635009765625;-0.9940338134765625;-0.008942894637584686;-0.012180766090750694;0.0019150790758430958
0.067474365234375;-0.1962738037109375;-0.9906463623046875;-0.009818541817367077;-0.006265086587518454;0.0023315974976867437
0.067474365234375;-0.1962738037109375;-0.9906463623046875;-0.009818541817367077;-0.006265086587518454;0.0023315974976867437
0.067474365234375;-0.1962738037109375;-0.9906463623046875;-0.009818541817367077;-0.006265086587518454;0.0023315974976867437
0.067474365234375;-0.1962738037109375;-0.9906463623046875;-0.009818541817367077;-0.006265086587518454;0.0023315974976867437
0.067474365234375;-0.1962738037109375;-0.9906463623046875;-0.009818541817367077;-0.006265086587518454;0.0023315974976867437
0.0680084228515625;-0.1961822509765625;-0.98614501953125;-0.012985573150217533;0.0015568839153274894;0.003585147438570857
0.0680084228515625;-0.1961822509765625;-0.98614501953125;-0.012985573150217533;0.0015568839153274894;0.003585147438570857
0.0680084228515625;-0.1961822509765625;-0.98614501953125;-0.012985573150217533;0.0015568839153274894;0.003585147438570857
0.0680084228515625;-0.1961822509765625;-0.98614501953125;-0.012985573150217533;0.0015568839153274894;0.003585147438570857
0.0680084228515625;-0.1961822509765625;-0.98614501953125;-0.012985573150217533;0.0015568839153274894;0.003585147438570857
0.06842041015625;-0.1942291259765625;-0.985809326171875;-0.015596004202961922;0.0015960324089974165;0.0021470405627042055
0.06842041015625;-0.1942291259765625;-0.985809326171875;-0.015596004202961922;0.0015960324089974165;0.0021470405627042055
0.06842041015625;-0.1942291259765625;-0.985809326171875;-0.015596004202961922;0.0015960324089974165;0.0021470405627042055
0.06842041015625;-0.1942291259765625;-0.985809326171875;-0.015596004202961922;0.0015960324089974165;0.0021470405627042055
0.06842041015625;-0.1942291259765625;-0.985809326171875;-0.015596004202961922;0.0015960324089974165;0.0021470405627042055
0.0678253173828125;-0.1913909912109375;-0.9898223876953125;-0.01587829925119877;0.0016682040877640247;0.0014213290996849537
0.0678253173828125;-0.1913909912109375;-0.9898223876953125;-0.01587829925119877;0.0016682040877640247;0.0014213290996849537
0.0678253173828125;-0.1913909912109375;-0.9898223876953125;-0.01587829925119877;0.0016682040877640247;0.0014213290996849537
0.0678253173828125;-0.1913909912109375;-0.9898223876953125;-0.01587829925119877;0.0016682040877640247;0.0014213290996849537
0.0678253173828125;-0.1913909912109375;-0.9898223876953125;-0.01587829925119877;0.0016682040877640247;0.0014213290996849537
0.0675506591796875;-0.1901397705078125;-0.9940032958984375;-0.011991947889328003;-0.002413356676697731;-0.0031433289404958487
0.0675506591796875;-0.1901397705078125;-0.9940032958984375;-0.011991947889328003;-0.002413356676697731;-0.0031433289404958487
0.0675506591796875;-0.1901397705078125;-0.9940032958984375;-0.011991947889328003;-0.002413356676697731;-0.0031433289404958487
0.0675506591796875;-0.1901397705078125;-0.9940032958984375;-0.011991947889328003;-0.002413356676697731;-0.0031433289404958487
0.0675506591796875;-0.1901397705078125;-0.9940032958984375;-0.011991947889328003;-0.002413356676697731;-0.0031433289404958487
0.067474365234375;-0.19061279296875;-1.0001068115234375;-0.006000368390232325;-0.005572930909693241;0.00024181502521969378
0.067474365234375;-0.19061279296875;-1.0001068115234375;-0.006000368390232325;-0.005572930909693241;0.00024181502521969378
0.067474365234375;-0.19061279296875;-1.0001068115234375;-0.006000368390232325;-0.005572930909693241;0.00024181502521969378
0.067474365234375;-0.19061279296875;-1.0001068115234375;-0.006000368390232325;-0.005572930909693241;0.00024181502521969378
0.067474365234375;-0.19061279296875;-1.0001068115234375;-0.006000368390232325;-0.005572930909693241;0.00024181502521969378
0.0673065185546875;-0.192962646484375;-1.00189208984375;-0.005590241402387619;-0.007638212293386459;0.003019758267328143
0.0673065185546875;-0.192962646484375;-1.00189208984375;-0.005590241402387619;-0.007638212293386459;0.003019758267328143
0.0673065185546875;-0.192962646484375;-1.00189208984375;-0.005590241402387619;-0.007638212293386459;0.003019758267328143
0.0673065185546875;-0.192962646484375;-1.00189208984375;-0.005590241402387619;-0.007638212293386459;0.003019758267328143
0.0673065185546875;-0.192962646484375;-1.00189208984375;-0.005590241402387619;-0.007638212293386459;0.003019758267328143
0.06597900390625;-0.19464111328125;-1.0001068115234375;-0.0030192257836461067;-0.004670917987823486;0.0017667410429567099
0.06597900390625;-0.19464111328125;-1.0001068115234375;-0.0030192257836461067;-0.004670917987823486;0.0017667410429567099
0.06597900390625;-0.19464111328125;-1.0001068115234375;-0.0030192257836461067;-0.004670917987823486;0.0017667410429567099
0.06597900390625;-0.19464111328125;-1.0001068115234375;-0.0030192257836461067;-0.004670917987823486;0.0017667410429567099
0.06597900390625;-0.19464111328125;-1.0001068115234375;-0.0030192257836461067;-0.004670917987823486;0.0017667410429567099
0.0656585693359375;-0.1964569091796875;-0.99884033203125;-0.007846471853554249;-0.0009970874525606632;0.006481601390987635
0.0656585693359375;-0.1964569091796875;-0.99884033203125;-0.007846471853554249;-0.0009970874525606632;0.006481601390987635
0.0656585693359375;-0.1964569091796875;-0.99884033203125;-0.007846471853554249;-0.0009970874525606632;0.006481601390987635
0.0656585693359375;-0.1964569091796875;-0.99884033203125;-0.007846471853554249;-0.0009970874525606632;0.006481601390987635
0.0656585693359375;-0.1964569091796875;-0.99884033203125;-0.007846471853554249;-0.0009970874525606632;0.006481601390987635
0.06646728515625;-0.1963958740234375;-0.9960784912109375;-0.011234545148909092;0.004836566746234894;0.005574528593569994
0.06646728515625;-0.1963958740234375;-0.9960784912109375;-0.011234545148909092;0.004836566746234894;0.005574528593569994
0.06646728515625;-0.1963958740234375;-0.9960784912109375;-0.011234545148909092;0.004836566746234894;0.005574528593569994
0.06646728515625;-0.1963958740234375;-0.9960784912109375;-0.011234545148909092;0.004836566746234894;0.005574528593569994
0.06646728515625;-0.1963958740234375;-0.9960784912109375;-0.011234545148909092;0.004836566746234894;0.005574528593569994
0.0654754638671875;-0.1960601806640625;-0.9926300048828125;-0.019418705254793167;0.009041432291269302;0.0011717908782884479
0.0654754638671875;-0.1960601806640625;-0.9926300048828125;-0.019418705254793167;0.009041432291269302;0.0011717908782884479
0.0654754638671875;-0.1960601806640625;-0.9926300048828125;-0.019418705254793167;0.009041432291269302;0.0011717908782884479
0.0654754638671875;-0.1960601806640625;-0.9926300048828125;-0.019418705254793167;0.009041432291269302;0.0011717908782884479
0.0654754638671875;-0.1960601806640625;-0.9926300048828125;-0.019418705254793167;0.009041432291269302;0.0011717908782884479
0.0654754638671875;-0.1967010498046875;-0.9886932373046875;-0.02425367385149002;0.008477640338242054;-0.0002849582233466208
0.0654754638671875;-0.1967010498046875;-0.9886932373046875;-0.02425367385149002;0.008477640338242054;-0.0002849582233466208
0.0654754638671875;-0.1967010498046875;-0.9886932373046875;-0.02425367385149002;0.008477640338242054;-0.0002849582233466208
0.0654754638671875;-0.1967010498046875;-0.9886932373046875;-0.02425367385149002;0.008477640338242054;-0.0002849582233466208
0.0654754638671875;-0.1967010498046875;-0.9886932373046875;-0.02425367385149002;0.008477640338242054;-0.0002849582233466208
0.0670928955078125;-0.1970672607421875;-0.9891204833984375;-0.03166152164340019;0.003373958868905902;-0.0008370315190404654
0.0670928955078125;-0.1970672607421875;-0.9891204833984375;-0.03166152164340019;0.003373958868905902;-0.0008370315190404654
0.0670928955078125;-0.1970672607421875;-0.9891204833984375;-0.03166152164340019;0.003373958868905902;-0.0008370315190404654
0.0670928955078125;-0.1970672607421875;-0.9891204833984375;-0.03166152164340019;0.003373958868905902;-0.0008370315190404654
0.0670928955078125;-0.1970672607421875;-0.9891204833984375;-0.03166152164340019;0.003373958868905902;-0.0008370315190404654
0.0660247802734375;-0.1917724609375;-0.9962921142578125;-0.022496255114674568;-0.012193815782666206;-0.002927612978965044
0.0660247802734375;-0.1917724609375;-0.9962921142578125;-0.022496255114674568;-0.012193815782666206;-0.002927612978965044
0.0660247802734375;-0.1917724609375;-0.9962921142578125;-0.022496255114674568;-0.012193815782666206;-0.002927612978965044
0.0660247802734375;-0.1917724609375;-0.9962921142578125;-0.022496255114674568;-0.012193815782666206;-0.002927612978965044
0.0660247802734375;-0.1917724609375;-0.9962921142578125;-0.01537576038390398;-0.034626953303813934;-0.00896712951362133
0.0640106201171875;-0.1884613037109375;-1.0043182373046875;-0.01537576038390398;-0.034626953303813934;-0.00896712951362133
0.0640106201171875;-0.1884613037109375;-1.0043182373046875;-0.01537576038390398;-0.034626953303813934;-0.00896712951362133
0.0640106201171875;-0.1884613037109375;-1.0043182373046875;-0.01537576038390398;-0.034626953303813934;-0.00896712951362133
0.0640106201171875;-0.1884613037109375;-1.0043182373046875;-0.01537576038390398;-0.034626953303813934;-0.00896712951362133
0.0640106201171875;-0.1884613037109375;-1.0043182373046875;-0.00714765815064311;-0.06695932894945145;-0.011173025704920292
0.0617828369140625;-0.1875457763671875;-1.005096435546875;-0.00714765815064311;-0.06695932894945145;-0.011173025704920292
0.0617828369140625;-0.1875457763671875;-1.005096435546875;-0.00714765815064311;-0.06695932894945145;-0.011173025704920292
0.0617828369140625;-0.1875457763671875;-1.005096435546875;-0.00714765815064311;-0.06695932894945145;-0.011173025704920292
0.0617828369140625;-0.1875457763671875;-1.005096435546875;-0.00714765815064311;-0.06695932894945145;-0.011173025704920292
0.0617828369140625;-0.1875457763671875;-1.005096435546875;-0.005858421791344881;-0.0736960619688034;-0.004611529875546694
0.0628509521484375;-0.188201904296875;-1.000762939453125;-0.005858421791344881;-0.0736960619688034;-0.004611529875546694
0.0628509521484375;-0.188201904296875;-1.000762939453125;-0.005858421791344881;-0.0736960619688034;-0.004611529875546694
0.0628509521484375;-0.188201904296875;-1.000762939453125;-0.005858421791344881;-0.0736960619688034;-0.004611529875546694
0.0628509521484375;-0.188201904296875;-1.000762939453125;-0.005858421791344881;-0.0736960619688034;-0.004611529875546694
0.0620574951171875;-0.19024658203125;-0.9931488037109375;-0.0014234596164897084;-0.05319797247648239;0.0017558221006765962
0.0620574951171875;-0.19024658203125;-0.9931488037109375;-0.0014234596164897084;-0.05319797247648239;0.0017558221006765962
0.0620574951171875;-0.19024658203125;-0.9931488037109375;-0.0014234596164897084;-0.05319797247648239;0.0017558221006765962
0.0620574951171875;-0.19024658203125;-0.9931488037109375;-0.0014234596164897084;-0.05319797247648239;0.0017558221006765962
0.0620574951171875;-0.19024658203125;-0.9931488037109375;-0.0014234596164897084;-0.05319797247648239;0.0017558221006765962
0.0620574951171875;-0.19024658203125;-0.9931488037109375;-0.0017888452857732773;-0.014759238809347153;-0.00010759170982055366
0.0594024658203125;-0.19110107421875;-0.9862518310546875;-0.0017888452857732773;-0.014759238809347153;-0.00010759170982055366
0.0594024658203125;-0.19110107421875;-0.9862518310546875;-0.0017888452857732773;-0.014759238809347153;-0.00010759170982055366
0.0594024658203125;-0.19110107421875;-0.9862518310546875;-0.0017888452857732773;-0.014759238809347153;-0.00010759170982055366
0.0594024658203125;-0.19110107421875;-0.9862518310546875;-0.0017888452857732773;-0.014759238809347153;-0.00010759170982055366
0.059844970703125;-0.191009521484375;-0.9812469482421875;-0.007022755686193705;0.013055614195764065;0.0024828650057315826
0.059844970703125;-0.191009521484375;-0.9812469482421875;-0.007022755686193705;0.013055614195764065;0.0024828650057315826
0.059844970703125;-0.191009521484375;-0.9812469482421875;-0.007022755686193705;0.013055614195764065;0.0024828650057315826
0.059844970703125;-0.191009521484375;-0.9812469482421875;-0.007022755686193705;0.013055614195764065;0.0024828650057315826
0.059844970703125;-0.191009521484375;-0.9812469482421875;-0.007022755686193705;0.013055614195764065;0.0024828650057315826
0.0629425048828125;-0.1908416748046875;-0.9812469482421875;-0.009199091233313084;0.03645281493663788;0.00018429075134918094
0.0629425048828125;-0.1908416748046875;-0.9812469482421875;-0.009199091233313084;0.03645281493663788;0.00018429075134918094
0.0629425048828125;-0.1908416748046875;-0.9812469482421875;-0.009199091233313084;0.03645281493663788;0.00018429075134918094
0.0629425048828125;-0.1908416748046875;-0.9812469482421875;-0.009199091233313084;0.03645281493663788;0.00018429075134918094
0.0629425048828125;-0.1908416748046875;-0.9812469482421875;-0.009199091233313084;0.03645281493663788;0.00018429075134918094
0.069671630859375;-0.190338134765625;-0.985870361328125;-0.008225172758102417;0.04524870589375496;0.003206712193787098
0.069671630859375;-0.190338134765625;-0.985870361328125;-0.008225172758102417;0.04524870589375496;0.003206712193787098
0.069671630859375;-0.190338134765625;-0.985870361328125;-0.008225172758102417;0.04524870589375496;0.003206712193787098
0.069671630859375;-0.190338134765625;-0.985870361328125;-0.008225172758102417;0.04524870589375496;0.003206712193787098
0.069671630859375;-0.190338134765625;-0.985870361328125;-0.008225172758102417;0.04524870589375496;0.003206712193787098
0.073028564453125;-0.19049072265625;-0.9945220947265625;-0.00022503710351884365;0.033848777413368225;0.00879002921283245
0.073028564453125;-0.19049072265625;-0.9945220947265625;-0.00022503710351884365;0.033848777413368225;0.00879002921283245
0.073028564453125;-0.19049072265625;-0.9945220947265625;-0.00022503710351884365;0.033848777413368225;0.00879002921283245
0.073028564453125;-0.19049072265625;-0.9945220947265625;-0.00022503710351884365;0.033848777413368225;0.00879002921283245
0.073028564453125;-0.19049072265625;-0.9945220947265625;-0.00022503710351884365;0.033848777413368225;0.00879002921283245
0.07379150390625;-0.19146728515625;-1.0037689208984375;0.014026869088411331;0.015103318728506565;0.008519984781742096
0.07379150390625;-0.19146728515625;-1.0037689208984375;0.014026869088411331;0.015103318728506565;0.008519984781742096
0.07379150390625;-0.19146728515625;-1.0037689208984375;0.014026869088411331;0.015103318728506565;0.008519984781742096
0.07379150390625;-0.19146728515625;-1.0037689208984375;0.014026869088411331;0.015103318728506565;0.008519984781742096
0.07379150390625;-0.19146728515625;-1.0037689208984375;0.014026869088411331;0.015103318728506565;0.008519984781742096
0.072509765625;-0.1920318603515625;-1.0101776123046875;0.029034847393631935;-9.614011651137844e-05;0.010993262752890587
0.072509765625;-0.1920318603515625;-1.0101776123046875;0.029034847393631935;-9.614011651137844e-05;0.010993262752890587
0.072509765625;-0.1920318603515625;-1.0101776123046875;0.029034847393631935;-9.614011651137844e-05;0.010993262752890587
0.072509765625;-0.1920318603515625;-1.0101776123046875;0.029034847393631935;-9.614011651137844e-05;0.010993262752890587
0.072509765625;-0.1920318603515625;-1.0101776123046875;0.029034847393631935;-9.614011651137844e-05;0.010993262752890587
0.07000732421875;-0.193817138671875;-1.01043701171875;0.0412377193570137;-0.01625540293753147;0.013982927426695824
0.07000732421875;-0.193817138671875;-1.01043701171875;0.0412377193570137;-0.01625540293753147;0.013982927426695824
0.07000732421875;-0.193817138671875;-1.01043701171875;0.0412377193570137;-0.01625540293753147;0.013982927426695824
0.07000732421875;-0.193817138671875;-1.01043701171875;0.0412377193570137;-0.01625540293753147;0.013982927426695824
0.07000732421875;-0.193817138671875;-1.01043701171875;0.0412377193570137;-0.01625540293753147;0.013982927426695824
0.0654449462890625;-0.1937713623046875;-1.004058837890625;0.05210448056459427;-0.018854381516575813;0.01281672902405262
0.0654449462890625;-0.1937713623046875;-1.004058837890625;0.05210448056459427;-0.018854381516575813;0.01281672902405262
0.0654449462890625;-0.1937713623046875;-1.004058837890625;0.05210448056459427;-0.018854381516575813;0.01281672902405262
0.0654449462890625;-0.1937713623046875;-1.004058837890625;0.05210448056459427;-0.018854381516575813;0.01281672902405262
0.0654449462890625;-0.1937713623046875;-1.004058837890625;0.05210448056459427;-0.018854381516575813;0.01281672902405262
0.0628509521484375;-0.1930999755859375;-0.9983978271484375;0.05876584351062775;-0.01888846978545189;0.013747770339250565
0.0628509521484375;-0.1930999755859375;-0.9983978271484375;0.05876584351062775;-0.01888846978545189;0.013747770339250565
0.0628509521484375;-0.1930999755859375;-0.9983978271484375;0.05876584351062775;-0.01888846978545189;0.013747770339250565
0.0628509521484375;-0.1930999755859375;-0.9983978271484375;0.05876584351062775;-0.01888846978545189;0.013747770339250565
0.0628509521484375;-0.1930999755859375;-0.9983978271484375;0.05876584351062775;-0.01888846978545189;0.013747770339250565
0.0631561279296875;-0.19232177734375;-0.991302490234375;0.056164201349020004;-0.012191684916615486;0.010866762138903141
0.0631561279296875;-0.19232177734375;-0.991302490234375;0.056164201349020004;-0.012191684916615486;0.010866762138903141
0.0631561279296875;-0.19232177734375;-0.991302490234375;0.056164201349020004;-0.012191684916615486;0.010866762138903141
0.0631561279296875;-0.19232177734375;-0.991302490234375;0.056164201349020004;-0.012191684916615486;0.010866762138903141
0.0631561279296875;-0.19232177734375;-0.991302490234375;0.056164201349020004;-0.012191684916615486;0.010866762138903141
0.0629730224609375;-0.190704345703125;-0.9874420166015625;0.05252818763256073;-0.0041345576755702496;0.011276889592409134
0.0629730224609375;-0.190704345703125;-0.9874420166015625;0.05252818763256073;-0.0041345576755702496;0.011276889592409134
0.0629730224609375;-0.190704345703125;-0.9874420166015625;0.05252818763256073;-0.0041345576755702496;0.011276889592409134
0.0629730224609375;-0.190704345703125;-0.9874420166015625;0.05252818763256073;-0.0041345576755702496;0.011276889592409134
0.0629730224609375;-0.190704345703125;-0.9874420166015625;0.05252818763256073;-0.0041345576755702496;0.011276889592409134
0.0643768310546875;-0.189300537109375;-0.9853515625;0.05007914453744888;0.0020567593164741993;0.010609501041471958
0.0643768310546875;-0.189300537109375;-0.9853515625;0.05007914453744888;0.0020567593164741993;0.010609501041471958
0.0643768310546875;-0.189300537109375;-0.9853515625;0.05007914453744888;0.0020567593164741993;0.010609501041471958
0.0643768310546875;-0.189300537109375;-0.9853515625;0.05007914453744888;0.0020567593164741993;0.010609501041471958
0.0656890869140625;-0.188323974609375;-0.9864349365234375;0.0416390560567379;0.005945506971329451;0.010389789938926697
0.0656890869140625;-0.188323974609375;-0.9864349365234375;0.0416390560567379;0.005945506971329451;0.010389789938926697
0.0656890869140625;-0.188323974609375;-0.9864349365234375;0.0416390560567379;0.005945506971329451;0.010389789938926697
0.0656890869140625;-0.188323974609375;-0.9864349365234375;0.0416390560567379;0.005945506971329451;0.010389789938926697
0.0656890869140625;-0.188323974609375;-0.9864349365234375;0.0416390560567379;0.005945506971329451;0.010389789938926697
0.067779541015625;-0.1894683837890625;-0.9879150390625;0.037941258400678635;-0.001912948559038341;0.013115535490214825
0.067779541015625;-0.1894683837890625;-0.9879150390625;0.037941258400678635;-0.001912948559038341;0.013115535490214825
0.067779541015625;-0.1894683837890625;-0.9879150390625;0.037941258400678635;-0.001912948559038341;0.013115535490214825
0.067779541015625;-0.1894683837890625;-0.9879150390625;0.037941258400678635;-0.001912948559038341;0.013115535490214825
0.067779541015625;-0.1894683837890625;-0.9879150390625;0.037941258400678635;-0.001912948559038341;0.013115535490214825
0.0673980712890625;-0.1905670166015625;-0.99090576171875;0.03712340071797371;-0.0057196710258722305;0.010706440545618534
0.0673980712890625;-0.1905670166015625;-0.99090576171875;0.03712340071797371;-0.0057196710258722305;0.010706440545618534
0.0673980712890625;-0.1905670166015625;-0.99090576171875;0.03712340071797371;-0.0057196710258722305;0.010706440545618534
0.0673980712890625;-0.1905670166015625;-0.99090576171875;0.03712340071797371;-0.0057196710258722305;0.010706440545618534
0.0673980712890625;-0.1905670166015625;-0.99090576171875;0.03712340071797371;-0.0057196710258722305;0.010706440545618534
0.0655517578125;-0.1918182373046875;-0.993896484375;0.0410558246076107;-0.011231348849833012;0.0057377805933356285
0.0655517578125;-0.1918182373046875;-0.993896484375;0.0410558246076107;-0.011231348849833012;0.0057377805933356285
0.0655517578125;-0.1918182373046875;-0.993896484375;0.0410558246076107;-0.011231348849833012;0.0057377805933356285
0.0655517578125;-0.1918182373046875;-0.993896484375;0.0410558246076107;-0.011231348849833012;0.0057377805933356285
0.0655517578125;-0.1918182373046875;-0.993896484375;0.0410558246076107;-0.011231348849833012;0.0057377805933356285
0.0638885498046875;-0.1947784423828125;-0.995391845703125;0.038306642323732376;-0.01558268815279007;0.0036946034524589777
0.0638885498046875;-0.1947784423828125;-0.995391845703125;0.038306642323732376;-0.01558268815279007;0.0036946034524589777
0.0638885498046875;-0.1947784423828125;-0.995391845703125;0.038306642323732376;-0.01558268815279007;0.0036946034524589777
0.0638885498046875;-0.1947784423828125;-0.995391845703125;0.038306642323732376;-0.01558268815279007;0.0036946034524589777
0.0638885498046875;-0.1947784423828125;-0.995391845703125;0.038306642323732376;-0.01558268815279007;0.0036946034524589777
0.0636138916015625;-0.1979217529296875;-0.9983062744140625;0.043347738683223724;-0.014067349024116993;0.002231728984043002
0.0636138916015625;-0.1979217529296875;-0.9983062744140625;0.043347738683223724;-0.014067349024116993;0.002231728984043002
0.0636138916015625;-0.1979217529296875;-0.9983062744140625;0.043347738683223724;-0.014067349024116993;0.002231728984043002
0.0636138916015625;-0.1979217529296875;-0.9983062744140625;0.043347738683223724;-0.014067349024116993;0.002231728984043002
0.0636138916015625;-0.1979217529296875;-0.9983062744140625;0.043347738683223724;-0.014067349024116993;0.002231728984043002
0.06390380859375;-0.2005615234375;-0.9998321533203125;0.04204731807112694;-0.020114056766033173;0.0033039175905287266
0.06390380859375;-0.2005615234375;-0.9998321533203125;0.04204731807112694;-0.020114056766033173;0.0033039175905287266
0.06390380859375;-0.2005615234375;-0.9998321533203125;0.04204731807112694;-0.020114056766033173;0.0033039175905287266
0.06390380859375;-0.2005615234375;-0.9998321533203125;0.04204731807112694;-0.020114056766033173;0.0033039175905287266
0.06390380859375;-0.2005615234375;-0.9998321533203125;0.04204731807112694;-0.020114056766033173;0.0033039175905287266
0.06390380859375;-0.202301025390625;-0.9988555908203125;0.04770520329475403;-0.017772339284420013;0.007911453023552895
0.06390380859375;-0.202301025390625;-0.9988555908203125;0.04770520329475403;-0.017772339284420013;0.007911453023552895
0.06390380859375;-0.202301025390625;-0.9988555908203125;0.04770520329475403;-0.017772339284420013;0.007911453023552895
0.06390380859375;-0.202301025390625;-0.9988555908203125;0.04770520329475403;-0.017772339284420013;0.007911453023552895
0.06390380859375;-0.202301025390625;-0.9988555908203125;0.04770520329475403;-0.017772339284420013;0.007911453023552895
0.06427001953125;-0.2039947509765625;-0.9970703125;0.04866607114672661;-0.018919361755251884;0.009728793986141682
0.06427001953125;-0.2039947509765625;-0.9970703125;0.04866607114672661;-0.018919361755251884;0.009728793986141682
0.06427001953125;-0.2039947509765625;-0.9970703125;0.04866607114672661;-0.018919361755251884;0.009728793986141682
0.06427001953125;-0.2039947509765625;-0.9970703125;0.04866607114672661;-0.018919361755251884;0.009728793986141682
0.06427001953125;-0.2039947509765625;-0.9970703125;0.04866607114672661;-0.018919361755251884;0.009728793986141682
0.0628662109375;-0.2022705078125;-0.9957733154296875;0.05259077250957489;-0.014541658572852612;0.004989432170987129
0.0628662109375;-0.2022705078125;-0.9957733154296875;0.05259077250957489;-0.014541658572852612;0.004989432170987129
0.0628662109375;-0.2022705078125;-0.9957733154296875;0.05259077250957489;-0.014541658572852612;0.004989432170987129
0.0628662109375;-0.2022705078125;-0.9957733154296875;0.05259077250957489;-0.014541658572852612;0.004989432170987129
0.0628662109375;-0.2022705078125;-0.9957733154296875;0.05259077250957489;-0.014541658572852612;0.004989432170987129
0.0619049072265625;-0.2010955810546875;-0.995849609375;0.055382564663887024;-0.020296216011047363;0.0024381240364164114
0.0619049072265625;-0.2010955810546875;-0.995849609375;0.055382564663887024;-0.020296216011047363;0.0024381240364164114
0.0619049072265625;-0.2010955810546875;-0.995849609375;0.055382564663887024;-0.020296216011047363;0.0024381240364164114
0.0619049072265625;-0.2010955810546875;-0.995849609375;0.055382564663887024;-0.020296216011047363;0.0024381240364164114
0.0619049072265625;-0.2010955810546875;-0.995849609375;0.055382564663887024;-0.020296216011047363;0.0024381240364164114
0.06378173828125;-0.2012939453125;-0.993408203125;0.048348356038331985;-0.02100861258804798;0.00689172837883234
0.06378173828125;-0.2012939453125;-0.993408203125;0.048348356038331985;-0.02100861258804798;0.00689172837883234
0.06378173828125;-0.2012939453125;-0.993408203125;0.048348356038331985;-0.02100861258804798;0.00689172837883234
0.06378173828125;-0.2012939453125;-0.993408203125;0.048348356038331985;-0.02100861258804798;0.00689172837883234
0.06378173828125;-0.2012939453125;-0.993408203125;0.048348356038331985;-0.02100861258804798;0.00689172837883234
0.0658721923828125;-0.2032928466796875;-0.9918212890625;0.04409369081258774;-0.01059219054877758;0.01076849177479744
0.0658721923828125;-0.2032928466796875;-0.9918212890625;0.04409369081258774;-0.01059219054877758;0.01076849177479744
0.0658721923828125;-0.2032928466796875;-0.9918212890625;0.04409369081258774;-0.01059219054877758;0.01076849177479744
0.0658721923828125;-0.2032928466796875;-0.9918212890625;0.04409369081258774;-0.01059219054877758;0.01076849177479744
0.0658721923828125;-0.2032928466796875;-0.9918212890625;0.04409369081258774;-0.01059219054877758;0.01076849177479744
0.063232421875;-0.2009735107421875;-0.987945556640625;0.03663178160786629;-0.008502940647304058;0.008145278319716454
0.063232421875;-0.2009735107421875;-0.987945556640625;0.03663178160786629;-0.008502940647304058;0.008145278319716454
0.063232421875;-0.2009735107421875;-0.987945556640625;0.03663178160786629;-0.008502940647304058;0.008145278319716454
0.063232421875;-0.2009735107421875;-0.987945556640625;0.03663178160786629;-0.008502940647304058;0.008145278319716454
0.063232421875;-0.2009735107421875;-0.987945556640625;0.03663178160786629;-0.008502940647304058;0.008145278319716454
0.06146240234375;-0.1986236572265625;-0.9868927001953125;0.02816346101462841;-0.008222776465117931;0.002287389012053609
0.06146240234375;-0.1986236572265625;-0.9868927001953125;0.02816346101462841;-0.008222776465117931;0.002287389012053609
0.06146240234375;-0.1986236572265625;-0.9868927001953125;0.02816346101462841;-0.008222776465117931;0.002287389012053609
0.06146240234375;-0.1986236572265625;-0.9868927001953125;0.02816346101462841;-0.008222776465117931;0.002287389012053609
0.06146240234375;-0.1986236572265625;-0.9868927001953125;0.02816346101462841;-0.008222776465117931;0.002287389012053609
0.06256103515625;-0.1972503662109375;-0.9881744384765625;0.022587867453694344;-0.013291570357978344;0.00196381495334208
0.06256103515625;-0.1972503662109375;-0.9881744384765625;0.022587867453694344;-0.013291570357978344;0.00196381495334208
0.06256103515625;-0.1972503662109375;-0.9881744384765625;0.022587867453694344;-0.013291570357978344;0.00196381495334208
0.06256103515625;-0.1972503662109375;-0.9881744384765625;0.022587867453694344;-0.013291570357978344;0.00196381495334208
0.06256103515625;-0.1972503662109375;-0.9881744384765625;0.022587867453694344;-0.013291570357978344;0.00196381495334208
0.0627593994140625;-0.196533203125;-0.9877471923828125;0.022958045825362206;-0.013919011689722538;0.003707386553287506
0.0627593994140625;-0.196533203125;-0.9877471923828125;0.022958045825362206;-0.013919011689722538;0.003707386553287506
0.0627593994140625;-0.196533203125;-0.9877471923828125;0.022958045825362206;-0.013919011689722538;0.003707386553287506
0.0627593994140625;-0.196533203125;-0.9877471923828125;0.022958045825362206;-0.013919011689722538;0.003707386553287506
0.0627593994140625;-0.196533203125;-0.9877471923828125;0.022958045825362206;-0.013919011689722538;0.003707386553287506
0.06341552734375;-0.1972808837890625;-0.9885711669921875;0.025960760191082954;-0.01452834252268076;0.004944424610584974
0.06341552734375;-0.1972808837890625;-0.9885711669921875;0.025960760191082954;-0.01452834252268076;0.004944424610584974
0.06341552734375;-0.1972808837890625;-0.9885711669921875;0.025960760191082954;-0.01452834252268076;0.004944424610584974
0.06341552734375;-0.1972808837890625;-0.9885711669921875;0.025960760191082954;-0.01452834252268076;0.004944424610584974
0.06341552734375;-0.1972808837890625;-0.9885711669921875;0.025960760191082954;-0.01452834252268076;0.004944424610584974
0.06365966796875;-0.1990509033203125;-0.9907073974609375;0.03419871628284454;-0.008985239081084728;0.004941495135426521
0.06365966796875;-0.1990509033203125;-0.9907073974609375;0.03419871628284454;-0.008985239081084728;0.004941495135426521
0.06365966796875;-0.1990509033203125;-0.9907073974609375;0.03419871628284454;-0.008985239081084728;0.004941495135426521
0.06365966796875;-0.1990509033203125;-0.9907073974609375;0.03419871628284454;-0.008985239081084728;0.004941495135426521
0.06365966796875;-0.1990509033203125;-0.9907073974609375;0.03419871628284454;-0.008985239081084728;0.004941495135426521
0.0636444091796875;-0.2018280029296875;-0.990997314453125;0.03315289318561554;-0.008310394361615181;0.0067545752972364426
0.0636444091796875;-0.2018280029296875;-0.990997314453125;0.03315289318561554;-0.008310394361615181;0.0067545752972364426
0.0636444091796875;-0.2018280029296875;-0.990997314453125;0.03315289318561554;-0.008310394361615181;0.0067545752972364426
0.0636444091796875;-0.2018280029296875;-0.990997314453125;0.03315289318561554;-0.008310394361615181;0.0067545752972364426
0.0636444091796875;-0.2018280029296875;-0.990997314453125;0.03315289318561554;-0.008310394361615181;0.0067545752972364426
0.0641937255859375;-0.2022247314453125;-0.9913787841796875;0.03278804197907448;-0.008042213506996632;0.002430400811135769
0.0641937255859375;-0.2022247314453125;-0.9913787841796875;0.03278804197907448;-0.008042213506996632;0.002430400811135769
0.0641937255859375;-0.2022247314453125;-0.9913787841796875;0.03278804197907448;-0.008042213506996632;0.002430400811135769
0.0641937255859375;-0.2022247314453125;-0.9913787841796875;0.03278804197907448;-0.008042213506996632;0.002430400811135769
0.0641937255859375;-0.2022247314453125;-0.9913787841796875;0.03278804197907448;-0.008042213506996632;0.002430400811135769
0.06231689453125;-0.203704833984375;-0.993927001953125;0.025551965460181236;-0.013498231768608093;0.0037859496660530567
0.06231689453125;-0.203704833984375;-0.993927001953125;0.025551965460181236;-0.013498231768608093;0.0037859496660530567
0.06231689453125;-0.203704833984375;-0.993927001953125;0.025551965460181236;-0.013498231768608093;0.0037859496660530567
0.06231689453125;-0.203704833984375;-0.993927001953125;0.025551965460181236;-0.013498231768608093;0.0037859496660530567
0.06231689453125;-0.203704833984375;-0.993927001953125;0.025551965460181236;-0.013498231768608093;0.0037859496660530567
0.062286376953125;-0.2057037353515625;-0.9959716796875;0.02021445706486702;-0.02467711642384529;0.0010391654213890433
0.062286376953125;-0.2057037353515625;-0.9959716796875;0.02021445706486702;-0.02467711642384529;0.0010391654213890433
0.062286376953125;-0.2057037353515625;-0.9959716796875;0.02021445706486702;-0.02467711642384529;0.0010391654213890433
0.062286376953125;-0.2057037353515625;-0.9959716796875;0.02021445706486702;-0.02467711642384529;0.0010391654213890433
0.062286376953125;-0.2057037353515625;-0.9959716796875;0.02021445706486702;-0.02467711642384529;0.0010391654213890433
0.061859130859375;-0.20599365234375;-0.9956817626953125;0.013176522217690945;-0.03556039184331894;-3.888214996550232e-05
0.061859130859375;-0.20599365234375;-0.9956817626953125;0.013176522217690945;-0.03556039184331894;-3.888214996550232e-05
0.061859130859375;-0.20599365234375;-0.9956817626953125;0.013176522217690945;-0.03556039184331894;-3.888214996550232e-05
0.061859130859375;-0.20599365234375;-0.9956817626953125;0.013176522217690945;-0.03556039184331894;-3.888214996550232e-05
0.061859130859375;-0.20599365234375;-0.9956817626953125;-0.0007400924805551767;-0.040402285754680634;-0.0033840788528323174
0.0614776611328125;-0.2067108154296875;-0.9942779541015625;-0.0007400924805551767;-0.040402285754680634;-0.0033840788528323174
0.0614776611328125;-0.2067108154296875;-0.9942779541015625;-0.0007400924805551767;-0.040402285754680634;-0.0033840788528323174
0.0614776611328125;-0.2067108154296875;-0.9942779541015625;-0.0007400924805551767;-0.040402285754680634;-0.0033840788528323174
0.0614776611328125;-0.2067108154296875;-0.9942779541015625;-0.0007400924805551767;-0.040402285754680634;-0.0033840788528323174
0.0611724853515625;-0.2079925537109375;-0.9935455322265625;-0.014839665964245796;-0.03731115162372589;-0.0011358382180333138
0.0611724853515625;-0.2079925537109375;-0.9935455322265625;-0.014839665964245796;-0.03731115162372589;-0.0011358382180333138
0.0611724853515625;-0.2079925537109375;-0.9935455322265625;-0.014839665964245796;-0.03731115162372589;-0.0011358382180333138
0.0611724853515625;-0.2079925537109375;-0.9935455322265625;-0.014839665964245796;-0.03731115162372589;-0.0011358382180333138
0.0611724853515625;-0.2079925537109375;-0.9935455322265625;-0.014839665964245796;-0.03731115162372589;-0.0011358382180333138
0.0611724853515625;-0.2079925537109375;-0.9935455322265625;-0.02973099797964096;-0.03701767325401306;-0.0032682311721146107
0.06024169921875;-0.207489013671875;-0.9906768798828125;-0.02973099797964096;-0.03701767325401306;-0.0032682311721146107
0.06024169921875;-0.207489013671875;-0.9906768798828125;-0.02973099797964096;-0.03701767325401306;-0.0032682311721146107
0.06024169921875;-0.207489013671875;-0.9906768798828125;-0.02973099797964096;-0.03701767325401306;-0.0032682311721146107
0.06024169921875;-0.207489013671875;-0.9906768798828125;-0.02973099797964096;-0.03701767325401306;-0.0032682311721146107
0.060516357421875;-0.2071380615234375;-0.98980712890625;-0.042815905064344406;-0.03911064937710762;-0.0023196132387965918
0.060516357421875;-0.2071380615234375;-0.98980712890625;-0.042815905064344406;-0.03911064937710762;-0.0023196132387965918
0.060516357421875;-0.2071380615234375;-0.98980712890625;-0.042815905064344406;-0.03911064937710762;-0.0023196132387965918
0.060516357421875;-0.2071380615234375;-0.98980712890625;-0.042815905064344406;-0.03911064937710762;-0.0023196132387965918
0.060516357421875;-0.2071380615234375;-0.98980712890625;-0.042815905064344406;-0.03911064937710762;-0.0023196132387965918
0.0611114501953125;-0.2069244384765625;-0.988372802734375;-0.05296521261334419;-0.042341332882642746;-0.004358263220638037
0.0611114501953125;-0.2069244384765625;-0.988372802734375;-0.05296521261334419;-0.042341332882642746;-0.004358263220638037
0.0611114501953125;-0.2069244384765625;-0.988372802734375;-0.05296521261334419;-0.042341332882642746;-0.004358263220638037
0.0611114501953125;-0.2069244384765625;-0.988372802734375;-0.05296521261334419;-0.042341332882642746;-0.004358263220638037
0.0611114501953125;-0.2069244384765625;-0.988372802734375;-0.05296521261334419;-0.042341332882642746;-0.004358263220638037
0.062164306640625;-0.2050323486328125;-0.9884185791015625;-0.06234380230307579;-0.036547090858221054;-0.00022556974727194756
0.062164306640625;-0.2050323486328125;-0.9884185791015625;-0.06234380230307579;-0.036547090858221054;-0.00022556974727194756
0.062164306640625;-0.2050323486328125;-0.9884185791015625;-0.06234380230307579;-0.036547090858221054;-0.00022556974727194756
0.062164306640625;-0.2050323486328125;-0.9884185791015625;-0.06234380230307579;-0.036547090858221054;-0.00022556974727194756
0.062164306640625;-0.2050323486328125;-0.9884185791015625;-0.06234380230307579;-0.036547090858221054;-0.00022556974727194756
0.06085205078125;-0.2039794921875;-0.9866485595703125;-0.0622018538415432;-0.036372922360897064;-0.00222027744166553
0.06085205078125;-0.2039794921875;-0.9866485595703125;-0.0622018538415432;-0.036372922360897064;-0.00222027744166553
0.06085205078125;-0.2039794921875;-0.9866485595703125;-0.0622018538415432;-0.036372922360897064;-0.00222027744166553
0.06085205078125;-0.2039794921875;-0.9866485595703125;-0.0622018538415432;-0.036372922360897064;-0.00222027744166553
0.06085205078125;-0.2039794921875;-0.9866485595703125;-0.0622018538415432;-0.036372922360897064;-0.00222027744166553
0.0602264404296875;-0.2020416259765625;-0.9865875244140625;-0.06113925576210022;-0.030344856902956963;-0.002956907730549574
0.0602264404296875;-0.2020416259765625;-0.9865875244140625;-0.06113925576210022;-0.030344856902956963;-0.002956907730549574
0.0602264404296875;-0.2020416259765625;-0.9865875244140625;-0.06113925576210022;-0.030344856902956963;-0.002956907730549574
0.0602264404296875;-0.2020416259765625;-0.9865875244140625;-0.06113925576210022;-0.030344856902956963;-0.002956907730549574
0.0602264404296875;-0.2020416259765625;-0.9865875244140625;-0.06113925576210022;-0.030344856902956963;-0.002956907730549574
0.05999755859375;-0.20123291015625;-0.9875335693359375;-0.06412359327077866;-0.020188093185424805;-0.0011448930017650127
0.05999755859375;-0.20123291015625;-0.9875335693359375;-0.06412359327077866;-0.020188093185424805;-0.0011448930017650127
0.05999755859375;-0.20123291015625;-0.9875335693359375;-0.06412359327077866;-0.020188093185424805;-0.0011448930017650127
0.05999755859375;-0.20123291015625;-0.9875335693359375;-0.06412359327077866;-0.020188093185424805;-0.0011448930017650127
0.05999755859375;-0.20123291015625;-0.9875335693359375;-0.06412359327077866;-0.020188093185424805;-0.0011448930017650127
0.0605316162109375;-0.2001800537109375;-0.9878692626953125;-0.06379495561122894;-0.017249559983611107;-0.0001675128296483308
0.0605316162109375;-0.2001800537109375;-0.9878692626953125;-0.06379495561122894;-0.017249559983611107;-0.0001675128296483308
0.0605316162109375;-0.2001800537109375;-0.9878692626953125;-0.06379495561122894;-0.017249559983611107;-0.0001675128296483308
0.0605316162109375;-0.2001800537109375;-0.9878692626953125;-0.06379495561122894;-0.017249559983611107;-0.0001675128296483308
0.0605316162109375;-0.2001800537109375;-0.9878692626953125;-0.06379495561122894;-0.017249559983611107;-0.0001675128296483308
0.060516357421875;-0.1991424560546875;-0.9893035888671875;-0.06256058067083359;-0.0136638805270195;-0.002645317930728197
0.060516357421875;-0.1991424560546875;-0.9893035888671875;-0.06256058067083359;-0.0136638805270195;-0.002645317930728197
0.060516357421875;-0.1991424560546875;-0.9893035888671875;-0.06256058067083359;-0.0136638805270195;-0.002645317930728197
0.060516357421875;-0.1991424560546875;-0.9893035888671875;-0.06256058067083359;-0.0136638805270195;-0.002645317930728197
0.060516357421875;-0.1991424560546875;-0.9893035888671875;-0.06256058067083359;-0.0136638805270195;-0.002645317930728197
0.0597381591796875;-0.1985321044921875;-0.9917755126953125;-0.061884138733148575;-0.007722367998212576;-1.917476038215682e-05
0.0597381591796875;-0.1985321044921875;-0.9917755126953125;-0.061884138733148575;-0.007722367998212576;-1.917476038215682e-05
0.0597381591796875;-0.1985321044921875;-0.9917755126953125;-0.061884138733148575;-0.007722367998212576;-1.917476038215682e-05
0.0597381591796875;-0.1985321044921875;-0.9917755126953125;-0.061884138733148575;-0.007722367998212576;-1.917476038215682e-05
0.0597381591796875;-0.1985321044921875;-0.9917755126953125;-0.061884138733148575;-0.007722367998212576;-1.917476038215682e-05
0.06005859375;-0.1980438232421875;-0.9938507080078125;-0.05439772829413414;-0.0046911584213376045;0.0008812400046736002
0.06005859375;-0.1980438232421875;-0.9938507080078125;-0.05439772829413414;-0.0046911584213376045;0.0008812400046736002
0.06005859375;-0.1980438232421875;-0.9938507080078125;-0.05439772829413414;-0.0046911584213376045;0.0008812400046736002
0.06005859375;-0.1980438232421875;-0.9938507080078125;-0.05439772829413414;-0.0046911584213376045;0.0008812400046736002
0.06005859375;-0.1980438232421875;-0.9938507080078125;-0.05439772829413414;-0.0046911584213376045;0.0008812400046736002
0.060791015625;-0.197296142578125;-0.994049072265625;-0.04899071156978607;-0.001204547705128789;-0.0006862966110929847
0.060791015625;-0.197296142578125;-0.994049072265625;-0.04899071156978607;-0.001204547705128789;-0.0006862966110929847
0.060791015625;-0.197296142578125;-0.994049072265625;-0.04899071156978607;-0.001204547705128789;-0.0006862966110929847
0.060791015625;-0.197296142578125;-0.994049072265625;-0.04899071156978607;-0.001204547705128789;-0.0006862966110929847
0.060791015625;-0.197296142578125;-0.994049072265625;-0.04899071156978607;-0.001204547705128789;-0.0006862966110929847
0.0614166259765625;-0.19647216796875;-0.99237060546875;-0.03975833207368851;0.005086637567728758;-0.0030429279431700706
0.0614166259765625;-0.19647216796875;-0.99237060546875;-0.03975833207368851;0.005086637567728758;-0.0030429279431700706
0.0614166259765625;-0.19647216796875;-0.99237060546875;-0.03975833207368851;0.005086637567728758;-0.0030429279431700706
0.0614166259765625;-0.19647216796875;-0.99237060546875;-0.03975833207368851;0.005086637567728758;-0.0030429279431700706
0.0614166259765625;-0.19647216796875;-0.99237060546875;-0.03975833207368851;0.005086637567728758;-0.0030429279431700706
0.06256103515625;-0.1967926025390625;-0.9901580810546875;-0.037224333733320236;0.0149224903434515;-0.0027598338201642036
0.06256103515625;-0.1967926025390625;-0.9901580810546875;-0.037224333733320236;0.0149224903434515;-0.0027598338201642036
0.06256103515625;-0.1967926025390625;-0.9901580810546875;-0.037224333733320236;0.0149224903434515;-0.0027598338201642036
0.06256103515625;-0.1967926025390625;-0.9901580810546875;-0.037224333733320236;0.0149224903434515;-0.0027598338201642036
0.06256103515625;-0.1967926025390625;-0.9901580810546875;-0.037224333733320236;0.0149224903434515;-0.0027598338201642036
0.063751220703125;-0.1959991455078125;-0.9898834228515625;-0.03834952041506767;0.014303837902843952;-0.0057348511181771755
0.063751220703125;-0.1959991455078125;-0.9898834228515625;-0.03834952041506767;0.014303837902843952;-0.0057348511181771755
0.063751220703125;-0.1959991455078125;-0.9898834228515625;-0.03834952041506767;0.014303837902843952;-0.0057348511181771755
0.063751220703125;-0.1959991455078125;-0.9898834228515625;-0.03834952041506767;0.014303837902843952;-0.0057348511181771755
0.063751220703125;-0.1959991455078125;-0.9898834228515625;-0.03834952041506767;0.014303837902843952;-0.0057348511181771755
0.0649566650390625;-0.194091796875;-0.9928436279296875;-0.03169135004281998;0.011561580933630466;-0.008284561336040497
0.0649566650390625;-0.194091796875;-0.9928436279296875;-0.03169135004281998;0.011561580933630466;-0.008284561336040497
0.0649566650390625;-0.194091796875;-0.9928436279296875;-0.03169135004281998;0.011561580933630466;-0.008284561336040497
0.0649566650390625;-0.194091796875;-0.9928436279296875;-0.03169135004281998;0.011561580933630466;-0.008284561336040497
0.0649566650390625;-0.194091796875;-0.9928436279296875;-0.03169135004281998;0.011561580933630466;-0.008284561336040497
0.0649566650390625;-0.1929779052734375;-0.9996185302734375;-0.025843048468232155;0.0018458369886502624;-0.010032660327851772
0.0649566650390625;-0.1929779052734375;-0.9996185302734375;-0.025843048468232155;0.0018458369886502624;-0.010032660327851772
0.0649566650390625;-0.1929779052734375;-0.9996185302734375;-0.025843048468232155;0.0018458369886502624;-0.010032660327851772
0.0649566650390625;-0.1929779052734375;-0.9996185302734375;-0.025843048468232155;0.0018458369886502624;-0.010032660327851772
0.0649566650390625;-0.1929779052734375;-0.9996185302734375;-0.025843048468232155;0.0018458369886502624;-0.010032660327851772
0.06488037109375;-0.19293212890625;-1.0031585693359375;-0.022419288754463196;-0.008213987573981285;-0.008420116268098354
0.06488037109375;-0.19293212890625;-1.0031585693359375;-0.022419288754463196;-0.008213987573981285;-0.008420116268098354
0.06488037109375;-0.19293212890625;-1.0031585693359375;-0.022419288754463196;-0.008213987573981285;-0.008420116268098354
0.06488037109375;-0.19293212890625;-1.0031585693359375;-0.022419288754463196;-0.008213987573981285;-0.008420116268098354
0.06488037109375;-0.19293212890625;-1.0031585693359375;-0.022419288754463196;-0.008213987573981285;-0.008420116268098354
0.0642547607421875;-0.194854736328125;-1.00347900390625;-0.0182916559278965;-0.002682868391275406;-0.005381715949624777
0.0642547607421875;-0.194854736328125;-1.00347900390625;-0.0182916559278965;-0.002682868391275406;-0.005381715949624777
0.0642547607421875;-0.194854736328125;-1.00347900390625;-0.0182916559278965;-0.002682868391275406;-0.005381715949624777
0.0642547607421875;-0.194854736328125;-1.00347900390625;-0.0182916559278965;-0.002682868391275406;-0.005381715949624777
0.0642547607421875;-0.194854736328125;-1.00347900390625;-0.0182916559278965;-0.002682868391275406;-0.005381715949624777
0.0635833740234375;-0.19757080078125;-1.001434326171875;-0.02419641613960266;0.005012601613998413;-0.0013235911028459668
0.0635833740234375;-0.19757080078125;-1.001434326171875;-0.02419641613960266;0.005012601613998413;-0.0013235911028459668
0.0635833740234375;-0.19757080078125;-1.001434326171875;-0.02419641613960266;0.005012601613998413;-0.0013235911028459668
0.0635833740234375;-0.19757080078125;-1.001434326171875;-0.02419641613960266;0.005012601613998413;-0.0013235911028459668
0.0635833740234375;-0.19757080078125;-1.001434326171875;-0.02419641613960266;0.005012601613998413;-0.0013235911028459668
0.064697265625;-0.1992645263671875;-0.9988555908203125;-0.028173048049211502;0.004682635888457298;-0.0011435613268986344
0.064697265625;-0.1992645263671875;-0.9988555908203125;-0.028173048049211502;0.004682635888457298;-0.0011435613268986344
0.064697265625;-0.1992645263671875;-0.9988555908203125;-0.028173048049211502;0.004682635888457298;-0.0011435613268986344
0.064697265625;-0.1992645263671875;-0.9988555908203125;-0.028173048049211502;0.004682635888457298;-0.0011435613268986344
0.064697265625;-0.1992645263671875;-0.9988555908203125;-0.028173048049211502;0.004682635888457298;-0.0011435613268986344
0.0653228759765625;-0.1995849609375;-0.9967803955078125;-0.040526919066905975;0.0041497377678751945;0.002787530655041337
0.0653228759765625;-0.1995849609375;-0.9967803955078125;-0.040526919066905975;0.0041497377678751945;0.002787530655041337
0.0653228759765625;-0.1995849609375;-0.9967803955078125;-0.040526919066905975;0.0041497377678751945;0.002787530655041337
0.0653228759765625;-0.1995849609375;-0.9967803955078125;-0.040526919066905975;0.0041497377678751945;0.002787530655041337
0.0653228759765625;-0.1995849609375;-0.9967803955078125;-0.040526919066905975;0.0041497377678751945;0.002787530655041337
0.0660247802734375;-0.20172119140625;-0.9911041259765625;-0.05083814635872841;0.01164573710411787;0.0029491845052689314
0.0660247802734375;-0.20172119140625;-0.9911041259765625;-0.05083814635872841;0.01164573710411787;0.0029491845052689314
0.0660247802734375;-0.20172119140625;-0.9911041259765625;-0.05083814635872841;0.01164573710411787;0.0029491845052689314
0.0660247802734375;-0.20172119140625;-0.9911041259765625;-0.05083814635872841;0.01164573710411787;0.0029491845052689314
0.0660247802734375;-0.20172119140625;-0.9911041259765625;-0.05083814635872841;0.01164573710411787;0.0029491845052689314
0.0660858154296875;-0.2006683349609375;-0.988067626953125;-0.056347161531448364;0.010366620495915413;0.0046091326512396336
0.0660858154296875;-0.2006683349609375;-0.988067626953125;-0.056347161531448364;0.010366620495915413;0.0046091326512396336
0.0660858154296875;-0.2006683349609375;-0.988067626953125;-0.056347161531448364;0.010366620495915413;0.0046091326512396336
0.0660858154296875;-0.2006683349609375;-0.988067626953125;-0.056347161531448364;0.010366620495915413;0.0046091326512396336
0.0660858154296875;-0.2006683349609375;-0.988067626953125;-0.056347161531448364;0.010366620495915413;0.0046091326512396336
0.06536865234375;-0.1984710693359375;-0.988525390625;-0.057199373841285706;0.007933024317026138;0.004513791762292385
0.06536865234375;-0.1984710693359375;-0.988525390625;-0.057199373841285706;0.007933024317026138;0.004513791762292385
0.06536865234375;-0.1984710693359375;-0.988525390625;-0.057199373841285706;0.007933024317026138;0.004513791762292385
0.06536865234375;-0.1984710693359375;-0.988525390625;-0.057199373841285706;0.007933024317026138;0.004513791762292385
0.06536865234375;-0.1984710693359375;-0.988525390625;-0.057199373841285706;0.007933024317026138;0.004513791762292385
0.0661163330078125;-0.1954345703125;-0.995147705078125;-0.04123532027006149;0.0003206445835530758;0.0028391960076987743
0.0661163330078125;-0.1954345703125;-0.995147705078125;-0.04123532027006149;0.0003206445835530758;0.0028391960076987743
0.0661163330078125;-0.1954345703125;-0.995147705078125;-0.04123532027006149;0.0003206445835530758;0.0028391960076987743
0.0661163330078125;-0.1954345703125;-0.995147705078125;-0.04123532027006149;0.0003206445835530758;0.0028391960076987743
0.0661163330078125;-0.1954345703125;-0.995147705078125;-0.04123532027006149;0.0003206445835530758;0.0028391960076987743
0.062744140625;-0.1906890869140625;-1.009124755859375;-0.028081435710191727;-0.017474330961704254;-0.0028477180749177933
0.062744140625;-0.1906890869140625;-1.009124755859375;-0.028081435710191727;-0.017474330961704254;-0.0028477180749177933
0.062744140625;-0.1906890869140625;-1.009124755859375;-0.028081435710191727;-0.017474330961704254;-0.0028477180749177933
0.062744140625;-0.1906890869140625;-1.009124755859375;-0.028081435710191727;-0.017474330961704254;-0.0028477180749177933
0.062744140625;-0.1906890869140625;-1.009124755859375;-0.028081435710191727;-0.017474330961704254;-0.0028477180749177933
0.06011962890625;-0.1903533935546875;-1.0146942138671875;-0.015328356064856052;-0.03812847658991814;-0.006672816351056099
0.06011962890625;-0.1903533935546875;-1.0146942138671875;-0.015328356064856052;-0.03812847658991814;-0.006672816351056099
0.06011962890625;-0.1903533935546875;-1.0146942138671875;-0.015328356064856052;-0.03812847658991814;-0.006672816351056099
0.06011962890625;-0.1903533935546875;-1.0146942138671875;-0.015328356064856052;-0.03812847658991814;-0.006672816351056099
0.06011962890625;-0.1903533935546875;-1.0146942138671875;-0.015328356064856052;-0.03812847658991814;-0.006672816351056099
0.059478759765625;-0.192108154296875;-1.010040283203125;-0.007097324356436729;-0.04390620440244675;0.00033422670094296336
0.059478759765625;-0.192108154296875;-1.010040283203125;-0.007097324356436729;-0.04390620440244675;0.00033422670094296336
0.059478759765625;-0.192108154296875;-1.010040283203125;-0.007097324356436729;-0.04390620440244675;0.00033422670094296336
0.059478759765625;-0.192108154296875;-1.010040283203125;-0.007097324356436729;-0.04390620440244675;0.00033422670094296336
0.059478759765625;-0.192108154296875;-1.010040283203125;-0.007097324356436729;-0.04390620440244675;0.00033422670094296336
0.058258056640625;-0.191680908203125;-0.9975128173828125;-0.005238703917711973;-0.03742247447371483;0.0036597158759832382
0.058258056640625;-0.191680908203125;-0.9975128173828125;-0.005238703917711973;-0.03742247447371483;0.0036597158759832382
0.058258056640625;-0.191680908203125;-0.9975128173828125;-0.005238703917711973;-0.03742247447371483;0.0036597158759832382
0.058258056640625;-0.191680908203125;-0.9975128173828125;-0.005238703917711973;-0.03742247447371483;0.0036597158759832382
0.058258056640625;-0.191680908203125;-0.9975128173828125;-0.005238703917711973;-0.03742247447371483;0.0036597158759832382
0.0561676025390625;-0.1913299560546875;-0.989990234375;-0.0007696535321883857;-0.013410880230367184;0.004395014606416225
0.0561676025390625;-0.1913299560546875;-0.989990234375;-0.0007696535321883857;-0.013410880230367184;0.004395014606416225
0.0561676025390625;-0.1913299560546875;-0.989990234375;-0.0007696535321883857;-0.013410880230367184;0.004395014606416225
0.0561676025390625;-0.1913299560546875;-0.989990234375;-0.0007696535321883857;-0.013410880230367184;0.004395014606416225
0.0561676025390625;-0.1913299560546875;-0.989990234375;-0.0007696535321883857;-0.013410880230367184;0.004395014606416225
0.0561065673828125;-0.19049072265625;-0.989166259765625;0.004505536053329706;0.012051070109009743;5.592638444795739e-06
0.0561065673828125;-0.19049072265625;-0.989166259765625;0.004505536053329706;0.012051070109009743;5.592638444795739e-06
0.0561065673828125;-0.19049072265625;-0.989166259765625;0.004505536053329706;0.012051070109009743;5.592638444795739e-06
0.0561065673828125;-0.19049072265625;-0.989166259765625;0.004505536053329706;0.012051070109009743;5.592638444795739e-06
0.0561065673828125;-0.19049072265625;-0.989166259765625;0.004505536053329706;0.012051070109009743;5.592638444795739e-06
0.057159423828125;-0.19073486328125;-0.992156982421875;0.004116980824619532;0.030979488044977188;0.0016713999211788177
0.057159423828125;-0.19073486328125;-0.992156982421875;0.004116980824619532;0.030979488044977188;0.0016713999211788177
0.057159423828125;-0.19073486328125;-0.992156982421875;0.004116980824619532;0.030979488044977188;0.0016713999211788177
0.057159423828125;-0.19073486328125;-0.992156982421875;0.004116980824619532;0.030979488044977188;0.0016713999211788177
0.057159423828125;-0.19073486328125;-0.992156982421875;0.004116980824619532;0.030979488044977188;0.0016713999211788177
0.0606689453125;-0.1888885498046875;-0.9942626953125;0.010930944234132767;0.043887294828891754;0.003008306724950671
0.0606689453125;-0.1888885498046875;-0.9942626953125;0.010930944234132767;0.043887294828891754;0.003008306724950671
0.0606689453125;-0.1888885498046875;-0.9942626953125;0.010930944234132767;0.043887294828891754;0.003008306724950671
0.0606689453125;-0.1888885498046875;-0.9942626953125;0.010930944234132767;0.043887294828891754;0.003008306724950671
0.0606689453125;-0.1888885498046875;-0.9942626953125;0.010930944234132767;0.043887294828891754;0.003008306724950671
0.0655670166015625;-0.1888427734375;-0.99639892578125;0.016442356631159782;0.045629534870386124;0.007821437902748585
0.0655670166015625;-0.1888427734375;-0.99639892578125;0.016442356631159782;0.045629534870386124;0.007821437902748585
0.0655670166015625;-0.1888427734375;-0.99639892578125;0.016442356631159782;0.045629534870386124;0.007821437902748585
0.0655670166015625;-0.1888427734375;-0.99639892578125;0.016442356631159782;0.045629534870386124;0.007821437902748585
0.0655670166015625;-0.1888427734375;-0.99639892578125;0.016442356631159782;0.045629534870386124;0.007821437902748585
0.0679168701171875;-0.190948486328125;-0.999420166015625;0.020429108291864395;0.04486760497093201;0.005240568425506353
0.0679168701171875;-0.190948486328125;-0.999420166015625;0.020429108291864395;0.04486760497093201;0.005240568425506353
0.0679168701171875;-0.190948486328125;-0.999420166015625;0.020429108291864395;0.04486760497093201;0.005240568425506353
0.0679168701171875;-0.190948486328125;-0.999420166015625;0.020429108291864395;0.04486760497093201;0.005240568425506353
0.0679168701171875;-0.190948486328125;-0.999420166015625;0.020429108291864395;0.04486760497093201;0.005240568425506353
0.068115234375;-0.1943817138671875;-1.00311279296875;0.023086942732334137;0.03874339908361435;0.006954578682780266
0.068115234375;-0.1943817138671875;-1.00311279296875;0.023086942732334137;0.03874339908361435;0.006954578682780266
0.068115234375;-0.1943817138671875;-1.00311279296875;0.023086942732334137;0.03874339908361435;0.006954578682780266
0.068115234375;-0.1943817138671875;-1.00311279296875;0.023086942732334137;0.03874339908361435;0.006954578682780266
0.068115234375;-0.1943817138671875;-1.00311279296875;0.023086942732334137;0.03874339908361435;0.006954578682780266
0.0657806396484375;-0.1967926025390625;-1.0035400390625;0.023786289617419243;0.022648854181170464;0.004848284646868706
0.0657806396484375;-0.1967926025390625;-1.0035400390625;0.023786289617419243;0.022648854181170464;0.004848284646868706
0.0657806396484375;-0.1967926025390625;-1.0035400390625;0.023786289617419243;0.022648854181170464;0.004848284646868706
0.0657806396484375;-0.1967926025390625;-1.0035400390625;0.023786289617419243;0.022648854181170464;0.004848284646868706
0.0657806396484375;-0.1967926025390625;-1.0035400390625;0.023786289617419243;0.022648854181170464;0.004848284646868706
0.0631256103515625;-0.1974334716796875;-1.003936767578125;0.01889299787580967;0.011070494540035725;0.002447711303830147
0.0631256103515625;-0.1974334716796875;-1.003936767578125;0.01889299787580967;0.011070494540035725;0.002447711303830147
0.0631256103515625;-0.1974334716796875;-1.003936767578125;0.01889299787580967;0.011070494540035725;0.002447711303830147
0.0631256103515625;-0.1974334716796875;-1.003936767578125;0.01889299787580967;0.011070494540035725;0.002447711303830147
0.0631256103515625;-0.1974334716796875;-1.003936767578125;0.01182470191270113;0.0015688681742176414;-2.103897168126423e-05
0.061553955078125;-0.19854736328125;-1.00177001953125;0.01182470191270113;0.0015688681742176414;-2.103897168126423e-05
0.061553955078125;-0.19854736328125;-1.00177001953125;0.01182470191270113;0.0015688681742176414;-2.103897168126423e-05
0.061553955078125;-0.19854736328125;-1.00177001953125;0.01182470191270113;0.0015688681742176414;-2.103897168126423e-05
0.061553955078125;-0.19854736328125;-1.00177001953125;0.01182470191270113;0.0015688681742176414;-2.103897168126423e-05
0.0598297119140625;-0.1995391845703125;-0.9998931884765625;0.006864564027637243;-0.011350658722221851;-0.0011211908422410488
0.0598297119140625;-0.1995391845703125;-0.9998931884765625;0.006864564027637243;-0.011350658722221851;-0.0011211908422410488
0.0598297119140625;-0.1995391845703125;-0.9998931884765625;0.006864564027637243;-0.011350658722221851;-0.0011211908422410488
0.0598297119140625;-0.1995391845703125;-0.9998931884765625;0.006864564027637243;-0.011350658722221851;-0.0011211908422410488
0.0598297119140625;-0.1995391845703125;-0.9998931884765625;0.006864564027637243;-0.011350658722221851;-0.0011211908422410488
0.0598297119140625;-0.1995391845703125;-0.9998931884765625;0.002388855442404747;-0.013338708318769932;0.0015939018921926618
0.05950927734375;-0.1984405517578125;-0.99761962890625;0.002388855442404747;-0.013338708318769932;0.0015939018921926618
0.05950927734375;-0.1984405517578125;-0.99761962890625;0.002388855442404747;-0.013338708318769932;0.0015939018921926618
0.05950927734375;-0.1984405517578125;-0.99761962890625;0.002388855442404747;-0.013338708318769932;0.0015939018921926618
0.05950927734375;-0.1984405517578125;-0.99761962890625;0.002388855442404747;-0.013338708318769932;0.0015939018921926618
0.0610809326171875;-0.1967926025390625;-0.995635986328125;-0.00043835630640387535;-0.010206032544374466;0.0002324939559912309
0.0610809326171875;-0.1967926025390625;-0.995635986328125;-0.00043835630640387535;-0.010206032544374466;0.0002324939559912309
0.0610809326171875;-0.1967926025390625;-0.995635986328125;-0.00043835630640387535;-0.010206032544374466;0.0002324939559912309
0.0610809326171875;-0.1967926025390625;-0.995635986328125;-0.00043835630640387535;-0.010206032544374466;0.0002324939559912309
0.0610809326171875;-0.1967926025390625;-0.995635986328125;-0.00043835630640387535;-0.010206032544374466;0.0002324939559912309
0.061920166015625;-0.195281982421875;-0.99609375;-0.0015052186790853739;-0.005776662845164537;0.002163019496947527
0.061920166015625;-0.195281982421875;-0.99609375;-0.0015052186790853739;-0.005776662845164537;0.002163019496947527
0.061920166015625;-0.195281982421875;-0.99609375;-0.0015052186790853739;-0.005776662845164537;0.002163019496947527
0.061920166015625;-0.195281982421875;-0.99609375;-0.0015052186790853739;-0.005776662845164537;0.002163019496947527
0.061920166015625;-0.195281982421875;-0.99609375;-0.0015052186790853739;-0.005776662845164537;0.002163019496947527
0.06292724609375;-0.1938018798828125;-0.9933624267578125;0.00046871634549461305;5.619269722956233e-05;0.005109540652483702
0.06292724609375;-0.1938018798828125;-0.9933624267578125;0.00046871634549461305;5.619269722956233e-05;0.005109540652483702
0.06292724609375;-0.1938018798828125;-0.9933624267578125;0.00046871634549461305;5.619269722956233e-05;0.005109540652483702
0.06292724609375;-0.1938018798828125;-0.9933624267578125;0.00046871634549461305;5.619269722956233e-05;0.005109540652483702
0.06292724609375;-0.1938018798828125;-0.9933624267578125;0.00046871634549461305;5.619269722956233e-05;0.005109540652483702
0.0646209716796875;-0.1922149658203125;-0.9922943115234375;0.0036274916492402554;0.0013970943400636315;0.0051841093227267265
0.0646209716796875;-0.1922149658203125;-0.9922943115234375;0.0036274916492402554;0.0013970943400636315;0.0051841093227267265
0.0646209716796875;-0.1922149658203125;-0.9922943115234375;0.0036274916492402554;0.0013970943400636315;0.0051841093227267265
0.0646209716796875;-0.1922149658203125;-0.9922943115234375;0.0036274916492402554;0.0013970943400636315;0.0051841093227267265
0.0646209716796875;-0.1922149658203125;-0.9922943115234375;0.0036274916492402554;0.0013970943400636315;0.0051841093227267265
0.0638580322265625;-0.190460205078125;-0.9951019287109375;0.00944889523088932;-0.0007571366732008755;0.0031230889726430178
0.0638580322265625;-0.190460205078125;-0.9951019287109375;0.00944889523088932;-0.0007571366732008755;0.0031230889726430178
0.0638580322265625;-0.190460205078125;-0.9951019287109375;0.00944889523088932;-0.0007571366732008755;0.0031230889726430178
0.0638580322265625;-0.190460205078125;-0.9951019287109375;0.00944889523088932;-0.0007571366732008755;0.0031230889726430178
0.0638580322265625;-0.190460205078125;-0.9951019287109375;0.00944889523088932;-0.0007571366732008755;0.0031230889726430178
0.0632781982421875;-0.1909027099609375;-0.99725341796875;0.01607670448720455;-0.0017483652336522937;0.005364139098674059
0.0632781982421875;-0.1909027099609375;-0.99725341796875;0.01607670448720455;-0.0017483652336522937;0.005364139098674059
0.0632781982421875;-0.1909027099609375;-0.99725341796875;0.01607670448720455;-0.0017483652336522937;0.005364139098674059
0.0632781982421875;-0.1909027099609375;-0.99725341796875;0.01607670448720455;-0.0017483652336522937;0.005364139098674059
0.0632781982421875;-0.1909027099609375;-0.99725341796875;0.01607670448720455;-0.0017483652336522937;0.005364139098674059
0.0629425048828125;-0.191192626953125;-0.9990386962890625;0.021077055484056473;-0.0052232579328119755;0.002974750939756632
0.0629425048828125;-0.191192626953125;-0.9990386962890625;0.021077055484056473;-0.0052232579328119755;0.002974750939756632
0.0629425048828125;-0.191192626953125;-0.9990386962890625;0.021077055484056473;-0.0052232579328119755;0.002974750939756632
0.0629425048828125;-0.191192626953125;-0.9990386962890625;0.021077055484056473;-0.0052232579328119755;0.002974750939756632
0.0629425048828125;-0.191192626953125;-0.9990386962890625;0.021077055484056473;-0.0052232579328119755;0.002974750939756632
0.061553955078125;-0.192474365234375;-0.9994659423828125;0.027248932048678398;-0.009788980707526207;0.00458729499951005
0.061553955078125;-0.192474365234375;-0.9994659423828125;0.027248932048678398;-0.009788980707526207;0.00458729499951005
0.061553955078125;-0.192474365234375;-0.9994659423828125;0.027248932048678398;-0.009788980707526207;0.00458729499951005
0.061553955078125;-0.192474365234375;-0.9994659423828125;0.027248932048678398;-0.009788980707526207;0.00458729499951005
0.061553955078125;-0.192474365234375;-0.9994659423828125;0.027248932048678398;-0.009788980707526207;0.00458729499951005
0.0625457763671875;-0.19384765625;-1.0003509521484375;0.02991582080721855;-0.013145895674824715;0.003073287894949317
0.0625457763671875;-0.19384765625;-1.0003509521484375;0.02991582080721855;-0.013145895674824715;0.003073287894949317
0.0625457763671875;-0.19384765625;-1.0003509521484375;0.02991582080721855;-0.013145895674824715;0.003073287894949317
0.0625457763671875;-0.19384765625;-1.0003509521484375;0.02991582080721855;-0.013145895674824715;0.003073287894949317
0.0625457763671875;-0.19384765625;-1.0003509521484375;0.02991582080721855;-0.013145895674824715;0.003073287894949317
0.0624542236328125;-0.1955413818359375;-0.9995574951171875;0.029917685315012932;-0.006031527183949947;0.00606481684371829
0.0624542236328125;-0.1955413818359375;-0.9995574951171875;0.029917685315012932;-0.006031527183949947;0.00606481684371829
0.0624542236328125;-0.1955413818359375;-0.9995574951171875;0.029917685315012932;-0.006031527183949947;0.00606481684371829
0.0624542236328125;-0.1955413818359375;-0.9995574951171875;0.029917685315012932;-0.006031527183949947;0.00606481684371829
0.0624542236328125;-0.1955413818359375;-0.9995574951171875;0.029917685315012932;-0.006031527183949947;0.00606481684371829
0.062591552734375;-0.196563720703125;-0.997161865234375;0.028146948665380478;-0.005375324282795191;0.004703941289335489
0.062591552734375;-0.196563720703125;-0.997161865234375;0.028146948665380478;-0.005375324282795191;0.004703941289335489
0.062591552734375;-0.196563720703125;-0.997161865234375;0.028146948665380478;-0.005375324282795191;0.004703941289335489
0.062591552734375;-0.196563720703125;-0.997161865234375;0.028146948665380478;-0.005375324282795191;0.004703941289335489
0.062591552734375;-0.196563720703125;-0.997161865234375;0.028146948665380478;-0.005375324282795191;0.004703941289335489
0.0623931884765625;-0.1969451904296875;-0.9962921142578125;0.027589283883571625;-0.012769857421517372;0.004363589454442263
0.0623931884765625;-0.1969451904296875;-0.9962921142578125;0.027589283883571625;-0.012769857421517372;0.004363589454442263
0.0623931884765625;-0.1969451904296875;-0.9962921142578125;0.027589283883571625;-0.012769857421517372;0.004363589454442263
0.0623931884765625;-0.1969451904296875;-0.9962921142578125;0.027589283883571625;-0.012769857421517372;0.004363589454442263
0.0623931884765625;-0.1969451904296875;-0.9962921142578125;0.027589283883571625;-0.012769857421517372;0.004363589454442263
0.061309814453125;-0.1958160400390625;-0.9979248046875;0.029817016795277596;-0.01769351027905941;0.0022572954185307026
0.061309814453125;-0.1958160400390625;-0.9979248046875;0.029817016795277596;-0.01769351027905941;0.0022572954185307026
0.061309814453125;-0.1958160400390625;-0.9979248046875;0.029817016795277596;-0.01769351027905941;0.0022572954185307026
0.061309814453125;-0.1958160400390625;-0.9979248046875;0.029817016795277596;-0.01769351027905941;0.0022572954185307026
0.061309814453125;-0.1958160400390625;-0.9979248046875;0.029817016795277596;-0.01769351027905941;0.0022572954185307026
0.0633392333984375;-0.197296142578125;-0.9962921142578125;0.028774123638868332;-0.010894726030528545;0.004436826333403587
0.0633392333984375;-0.197296142578125;-0.9962921142578125;0.028774123638868332;-0.010894726030528545;0.004436826333403587
0.0633392333984375;-0.197296142578125;-0.9962921142578125;0.028774123638868332;-0.010894726030528545;0.004436826333403587
0.0633392333984375;-0.197296142578125;-0.9962921142578125;0.028774123638868332;-0.010894726030528545;0.004436826333403587
0.0633392333984375;-0.197296142578125;-0.9962921142578125;0.028774123638868332;-0.010894726030528545;0.004436826333403587
0.0640411376953125;-0.1989288330078125;-0.992706298828125;0.02274712361395359;-0.006166283041238785;0.008010522462427616
0.0640411376953125;-0.1989288330078125;-0.992706298828125;0.02274712361395359;-0.006166283041238785;0.008010522462427616
0.0640411376953125;-0.1989288330078125;-0.992706298828125;0.02274712361395359;-0.006166283041238785;0.008010522462427616
0.0640411376953125;-0.1989288330078125;-0.992706298828125;0.02274712361395359;-0.006166283041238785;0.008010522462427616
0.0640411376953125;-0.1989288330078125;-0.992706298828125;0.02274712361395359;-0.006166283041238785;0.008010522462427616
0.0623016357421875;-0.1979522705078125;-0.990631103515625;0.01739257201552391;-0.006389988586306572;0.007017163094133139
0.0623016357421875;-0.1979522705078125;-0.990631103515625;0.01739257201552391;-0.006389988586306572;0.007017163094133139
0.0623016357421875;-0.1979522705078125;-0.990631103515625;0.01739257201552391;-0.006389988586306572;0.007017163094133139
0.0623016357421875;-0.1979522705078125;-0.990631103515625;0.01739257201552391;-0.006389988586306572;0.007017163094133139
0.0623016357421875;-0.1979522705078125;-0.990631103515625;0.01739257201552391;-0.006389988586306572;0.007017163094133139
0.061004638671875;-0.1967315673828125;-0.9922332763671875;0.015215437859296799;-0.00827870238572359;0.004299673717468977
0.061004638671875;-0.1967315673828125;-0.9922332763671875;0.015215437859296799;-0.00827870238572359;0.004299673717468977
0.061004638671875;-0.1967315673828125;-0.9922332763671875;0.015215437859296799;-0.00827870238572359;0.004299673717468977
0.061004638671875;-0.1967315673828125;-0.9922332763671875;0.015215437859296799;-0.00827870238572359;0.004299673717468977
0.061004638671875;-0.1967315673828125;-0.9922332763671875;0.015215437859296799;-0.00827870238572359;0.004299673717468977
0.0613250732421875;-0.1950531005859375;-0.9915008544921875;0.012351474724709988;-0.008953015320003033;0.003912449814379215
0.0613250732421875;-0.1950531005859375;-0.9915008544921875;0.012351474724709988;-0.008953015320003033;0.003912449814379215
0.0613250732421875;-0.1950531005859375;-0.9915008544921875;0.012351474724709988;-0.008953015320003033;0.003912449814379215
0.0613250732421875;-0.1950531005859375;-0.9915008544921875;0.012351474724709988;-0.008953015320003033;0.003912449814379215
0.0613250732421875;-0.1950531005859375;-0.9915008544921875;0.012351474724709988;-0.008953015320003033;0.003912449814379215
0.061370849609375;-0.195526123046875;-0.9915008544921875;0.014326474629342556;-0.006040581967681646;0.0029923277907073498
0.061370849609375;-0.195526123046875;-0.9915008544921875;0.014326474629342556;-0.006040581967681646;0.0029923277907073498
0.061370849609375;-0.195526123046875;-0.9915008544921875;0.014326474629342556;-0.006040581967681646;0.0029923277907073498
0.061370849609375;-0.195526123046875;-0.9915008544921875;0.014326474629342556;-0.006040581967681646;0.0029923277907073498
0.061370849609375;-0.195526123046875;-0.9915008544921875;0.014326474629342556;-0.006040581967681646;0.0029923277907073498
0.0611724853515625;-0.1959686279296875;-0.99176025390625;0.016806676983833313;-0.0021196098532527685;0.006806507240980864
0.0611724853515625;-0.1959686279296875;-0.99176025390625;0.016806676983833313;-0.0021196098532527685;0.006806507240980864
0.0611724853515625;-0.1959686279296875;-0.99176025390625;0.016806676983833313;-0.0021196098532527685;0.006806507240980864
0.0611724853515625;-0.1959686279296875;-0.99176025390625;0.016806676983833313;-0.0021196098532527685;0.006806507240980864
0.0611724853515625;-0.1959686279296875;-0.99176025390625;0.016806676983833313;-0.0021196098532527685;0.006806507240980864
0.0622406005859375;-0.1972808837890625;-0.9910430908203125;0.019592342898249626;0.002457564929500222;0.006930876523256302
0.0622406005859375;-0.1972808837890625;-0.9910430908203125;0.019592342898249626;0.002457564929500222;0.006930876523256302
0.0622406005859375;-0.1972808837890625;-0.9910430908203125;0.019592342898249626;0.002457564929500222;0.006930876523256302
0.0622406005859375;-0.1972808837890625;-0.9910430908203125;0.019592342898249626;0.002457564929500222;0.006930876523256302
0.0622406005859375;-0.1972808837890625;-0.9910430908203125;0.019592342898249626;0.002457564929500222;0.006930876523256302
0.063201904296875;-0.196868896484375;-0.9912567138671875;0.02239132486283779;0.007364705670624971;0.007542338687926531
0.063201904296875;-0.196868896484375;-0.9912567138671875;0.02239132486283779;0.007364705670624971;0.007542338687926531
0.063201904296875;-0.196868896484375;-0.9912567138671875;0.02239132486283779;0.007364705670624971;0.007542338687926531
0.063201904296875;-0.196868896484375;-0.9912567138671875;0.02239132486283779;0.007364705670624971;0.007542338687926531
0.063201904296875;-0.196868896484375;-0.9912567138671875;0.02239132486283779;0.007364705670624971;0.007542338687926531
0.0629425048828125;-0.197174072265625;-0.9922943115234375;0.027511252090334892;0.010981278494000435;0.010380469262599945
0.0629425048828125;-0.197174072265625;-0.9922943115234375;0.027511252090334892;0.010981278494000435;0.010380469262599945
0.0629425048828125;-0.197174072265625;-0.9922943115234375;0.027511252090334892;0.010981278494000435;0.010380469262599945
0.0629425048828125;-0.197174072265625;-0.9922943115234375;0.027511252090334892;0.010981278494000435;0.010380469262599945
0.0629425048828125;-0.197174072265625;-0.9922943115234375;0.027511252090334892;0.010981278494000435;0.010380469262599945
0.0630645751953125;-0.1981353759765625;-0.99639892578125;0.02911660633981228;0.009387376718223095;0.01082947850227356
0.0630645751953125;-0.1981353759765625;-0.99639892578125;0.02911660633981228;0.009387376718223095;0.01082947850227356
0.0630645751953125;-0.1981353759765625;-0.99639892578125;0.02911660633981228;0.009387376718223095;0.01082947850227356
0.0630645751953125;-0.1981353759765625;-0.99639892578125;0.02911660633981228;0.009387376718223095;0.01082947850227356
0.0630645751953125;-0.1981353759765625;-0.99639892578125;0.02911660633981228;0.009387376718223095;0.01082947850227356
0.0628509521484375;-0.1997528076171875;-0.9994354248046875;0.03253557160496712;0.003359045134857297;0.013646037317812443
0.0628509521484375;-0.1997528076171875;-0.9994354248046875;0.03253557160496712;0.003359045134857297;0.013646037317812443
0.0628509521484375;-0.1997528076171875;-0.9994354248046875;0.03253557160496712;0.003359045134857297;0.013646037317812443
0.0628509521484375;-0.1997528076171875;-0.9994354248046875;0.03253557160496712;0.003359045134857297;0.013646037317812443
0.0628509521484375;-0.1997528076171875;-0.9994354248046875;0.03253557160496712;0.003359045134857297;0.013646037317812443
0.063140869140625;-0.1994476318359375;-1.0026397705078125;0.03163755312561989;-0.005054146982729435;0.01070777140557766
0.063140869140625;-0.1994476318359375;-1.0026397705078125;0.03163755312561989;-0.005054146982729435;0.01070777140557766
0.063140869140625;-0.1994476318359375;-1.0026397705078125;0.03163755312561989;-0.005054146982729435;0.01070777140557766
0.063140869140625;-0.1994476318359375;-1.0026397705078125;0.03163755312561989;-0.005054146982729435;0.01070777140557766
0.063140869140625;-0.1994476318359375;-1.0026397705078125;0.03163755312561989;-0.005054146982729435;0.01070777140557766
0.0631256103515625;-0.199462890625;-1.00225830078125;0.03194301947951317;-0.010809504427015781;0.010809504427015781
0.0631256103515625;-0.199462890625;-1.00225830078125;0.03194301947951317;-0.010809504427015781;0.010809504427015781
0.0631256103515625;-0.199462890625;-1.00225830078125;0.03194301947951317;-0.010809504427015781;0.010809504427015781
0.0631256103515625;-0.199462890625;-1.00225830078125;0.03194301947951317;-0.010809504427015781;0.010809504427015781
0.0631256103515625;-0.199462890625;-1.00225830078125;0.03194301947951317;-0.010809504427015781;0.010809504427015781
0.0622711181640625;-0.201995849609375;-1.0010528564453125;0.02907106652855873;-0.013486780226230621;0.009435313753783703
0.0622711181640625;-0.201995849609375;-1.0010528564453125;0.02907106652855873;-0.013486780226230621;0.009435313753783703
0.0622711181640625;-0.201995849609375;-1.0010528564453125;0.02907106652855873;-0.013486780226230621;0.009435313753783703
0.0622711181640625;-0.201995849609375;-1.0010528564453125;0.02907106652855873;-0.013486780226230621;0.009435313753783703
0.0622711181640625;-0.201995849609375;-1.0010528564453125;0.02907106652855873;-0.013486780226230621;0.009435313753783703
0.06256103515625;-0.2023162841796875;-0.9984283447265625;0.02490481734275818;-0.014443653635680676;0.010032127611339092
0.06256103515625;-0.2023162841796875;-0.9984283447265625;0.02490481734275818;-0.014443653635680676;0.010032127611339092
0.06256103515625;-0.2023162841796875;-0.9984283447265625;0.02490481734275818;-0.014443653635680676;0.010032127611339092
0.06256103515625;-0.2023162841796875;-0.9984283447265625;0.02490481734275818;-0.014443653635680676;0.010032127611339092
0.06256103515625;-0.2023162841796875;-0.9984283447265625;0.02490481734275818;-0.014443653635680676;0.010032127611339092
0.0610198974609375;-0.202667236328125;-0.99700927734375;0.01624688133597374;-0.006061621010303497;0.00983585324138403
0.0610198974609375;-0.202667236328125;-0.99700927734375;0.01624688133597374;-0.006061621010303497;0.00983585324138403
0.0610198974609375;-0.202667236328125;-0.99700927734375;0.01624688133597374;-0.006061621010303497;0.00983585324138403
