Acell X;Acell Y;Acell Z;Gyro X;Gyro Y;Gyro Z

-0.0098419189453125;-0.137481689453125;-0.991973876953125;0.05234229937195778;-0.025424666702747345;0.00475400872528553
-0.0098419189453125;-0.137481689453125;-0.991973876953125;0.05234229937195778;-0.025424666702747345;0.00475400872528553
-0.0098419189453125;-0.137481689453125;-0.991973876953125;0.05234229937195778;-0.025424666702747345;0.00475400872528553
-0.0098419189453125;-0.137481689453125;-0.991973876953125;0.05234229937195778;-0.025424666702747345;0.00475400872528553
-0.0098419189453125;-0.137481689453125;-0.991973876953125;0.05234229937195778;-0.025424666702747345;0.00475400872528553
-0.009857177734375;-0.1423492431640625;-1.0002899169921875;0.055204398930072784;-0.015800001099705696;0.007167898118495941
-0.009857177734375;-0.1423492431640625;-1.0002899169921875;0.055204398930072784;-0.015800001099705696;0.007167898118495941
-0.009857177734375;-0.1423492431640625;-1.0002899169921875;0.055204398930072784;-0.015800001099705696;0.007167898118495941
-0.009857177734375;-0.1423492431640625;-1.0002899169921875;0.055204398930072784;-0.015800001099705696;0.007167898118495941
-0.0099945068359375;-0.143585205078125;-1.008880615234375;0.05111192166805267;-0.006078132428228855;0.00920495018362999
-0.0099945068359375;-0.143585205078125;-1.008880615234375;0.05111192166805267;-0.006078132428228855;0.00920495018362999
-0.0099945068359375;-0.143585205078125;-1.008880615234375;0.05111192166805267;-0.006078132428228855;0.00920495018362999
-0.0099945068359375;-0.143585205078125;-1.008880615234375;0.05111192166805267;-0.006078132428228855;0.00920495018362999
-0.0099945068359375;-0.143585205078125;-1.008880615234375;0.05111192166805267;-0.006078132428228855;0.00920495018362999
-0.0099945068359375;-0.143585205078125;-1.008880615234375;0.03627464920282364;0.005212338641285896;0.009591374546289444
-0.01129150390625;-0.1443328857421875;-1.0123291015625;0.03627464920282364;0.005212338641285896;0.009591374546289444
-0.01129150390625;-0.1443328857421875;-1.0123291015625;0.03627464920282364;0.005212338641285896;0.009591374546289444
-0.01129150390625;-0.1443328857421875;-1.0123291015625;0.03627464920282364;0.005212338641285896;0.009591374546289444
-0.01129150390625;-0.1443328857421875;-1.0123291015625;0.03627464920282364;0.005212338641285896;0.009591374546289444
-0.01171875;-0.14508056640625;-1.01116943359375;0.017886321991682053;0.007223291788250208;0.00935994554311037
-0.01171875;-0.14508056640625;-1.01116943359375;0.017886321991682053;0.007223291788250208;0.00935994554311037
-0.01171875;-0.14508056640625;-1.01116943359375;0.017886321991682053;0.007223291788250208;0.00935994554311037
-0.01171875;-0.14508056640625;-1.01116943359375;0.017886321991682053;0.007223291788250208;0.00935994554311037
-0.01171875;-0.14508056640625;-1.01116943359375;0.017886321991682053;0.007223291788250208;0.00935994554311037
-0.010101318359375;-0.146484375;-1.0070953369140625;0.004849350079894066;-0.004315652418881655;0.008814796805381775
-0.010101318359375;-0.146484375;-1.0070953369140625;0.004849350079894066;-0.004315652418881655;0.008814796805381775
-0.010101318359375;-0.146484375;-1.0070953369140625;0.004849350079894066;-0.004315652418881655;0.008814796805381775
-0.010101318359375;-0.146484375;-1.0070953369140625;0.004849350079894066;-0.004315652418881655;0.008814796805381775
-0.010101318359375;-0.146484375;-1.0070953369140625;0.004849350079894066;-0.004315652418881655;0.008814796805381775
-0.010101318359375;-0.146484375;-1.0070953369140625;-0.00549170421436429;-0.01338797714561224;0.003629622282460332
-0.0084228515625;-0.147705078125;-1.0049591064453125;-0.00549170421436429;-0.01338797714561224;0.003629622282460332
-0.0084228515625;-0.147705078125;-1.0049591064453125;-0.00549170421436429;-0.01338797714561224;0.003629622282460332
-0.0084228515625;-0.147705078125;-1.0049591064453125;-0.00549170421436429;-0.01338797714561224;0.003629622282460332
-0.0084228515625;-0.147705078125;-1.0049591064453125;-0.00549170421436429;-0.01338797714561224;0.003629622282460332
-0.0072021484375;-0.1452789306640625;-1.00433349609375;-0.0065196845680475235;-0.019111109897494316;0.0011355718597769737
-0.0072021484375;-0.1452789306640625;-1.00433349609375;-0.0065196845680475235;-0.019111109897494316;0.0011355718597769737
-0.0072021484375;-0.1452789306640625;-1.00433349609375;-0.0065196845680475235;-0.019111109897494316;0.0011355718597769737
-0.0072021484375;-0.1452789306640625;-1.00433349609375;-0.0065196845680475235;-0.019111109897494316;0.0011355718597769737
-0.0072021484375;-0.1452789306640625;-1.00433349609375;-0.0065196845680475235;-0.019111109897494316;0.0011355718597769737
-0.00811767578125;-0.142059326171875;-1.005706787109375;-0.009495234116911888;-0.015836752951145172;0.0035475967451930046
-0.00811767578125;-0.142059326171875;-1.005706787109375;-0.009495234116911888;-0.015836752951145172;0.0035475967451930046
-0.00811767578125;-0.142059326171875;-1.005706787109375;-0.009495234116911888;-0.015836752951145172;0.0035475967451930046
-0.00811767578125;-0.142059326171875;-1.005706787109375;-0.009495234116911888;-0.015836752951145172;0.0035475967451930046
-0.00811767578125;-0.142059326171875;-1.005706787109375;-0.009495234116911888;-0.015836752951145172;0.0035475967451930046
-0.0084686279296875;-0.1392822265625;-1.0059661865234375;-0.007505853194743395;-0.008495483547449112;0.0017427726415917277
-0.0084686279296875;-0.1392822265625;-1.0059661865234375;-0.007505853194743395;-0.008495483547449112;0.0017427726415917277
-0.0084686279296875;-0.1392822265625;-1.0059661865234375;-0.007505853194743395;-0.008495483547449112;0.0017427726415917277
-0.0084686279296875;-0.1392822265625;-1.0059661865234375;-0.007505853194743395;-0.008495483547449112;0.0017427726415917277
-0.0084686279296875;-0.1392822265625;-1.0059661865234375;-0.007505853194743395;-0.008495483547449112;0.0017427726415917277
-0.0084686279296875;-0.1392822265625;-1.0059661865234375;-0.004780374001711607;0.0007629956235177815;0.0018817896489053965
-0.00897216796875;-0.1371307373046875;-1.006866455078125;-0.004780374001711607;0.0007629956235177815;0.0018817896489053965
-0.00897216796875;-0.1371307373046875;-1.006866455078125;-0.004780374001711607;0.0007629956235177815;0.0018817896489053965
-0.00897216796875;-0.1371307373046875;-1.006866455078125;-0.004780374001711607;0.0007629956235177815;0.0018817896489053965
-0.00897216796875;-0.1371307373046875;-1.006866455078125;-0.004780374001711607;0.0007629956235177815;0.0018817896489053965
-0.0098724365234375;-0.134490966796875;-1.0084228515625;-0.003099120454862714;0.007246194873005152;0.0005829659639857709
-0.0098724365234375;-0.134490966796875;-1.0084228515625;-0.003099120454862714;0.007246194873005152;0.0005829659639857709
-0.0098724365234375;-0.134490966796875;-1.0084228515625;-0.003099120454862714;0.007246194873005152;0.0005829659639857709
-0.0098724365234375;-0.134490966796875;-1.0084228515625;-0.003099120454862714;0.007246194873005152;0.0005829659639857709
-0.0098724365234375;-0.134490966796875;-1.0084228515625;-0.003099120454862714;0.007246194873005152;0.0005829659639857709
-0.0101470947265625;-0.1343536376953125;-1.01007080078125;0.0007084008539095521;0.006685599684715271;0.002365952357649803
-0.0101470947265625;-0.1343536376953125;-1.01007080078125;0.0007084008539095521;0.006685599684715271;0.002365952357649803
-0.0101470947265625;-0.1343536376953125;-1.01007080078125;0.0007084008539095521;0.006685599684715271;0.002365952357649803
-0.0101470947265625;-0.1343536376953125;-1.01007080078125;0.0007084008539095521;0.006685599684715271;0.002365952357649803
-0.0101470947265625;-0.1343536376953125;-1.01007080078125;0.0007084008539095521;0.006685599684715271;0.002365952357649803
-0.010009765625;-0.1336669921875;-1.01129150390625;0.0013851100811734796;0.0032418658956885338;0.003643736941739917
-0.010009765625;-0.1336669921875;-1.01129150390625;0.0013851100811734796;0.0032418658956885338;0.003643736941739917
-0.010009765625;-0.1336669921875;-1.01129150390625;0.0013851100811734796;0.0032418658956885338;0.003643736941739917
-0.010009765625;-0.1336669921875;-1.01129150390625;0.0013851100811734796;0.0032418658956885338;0.003643736941739917
-0.010009765625;-0.1336669921875;-1.01129150390625;0.0013851100811734796;0.0032418658956885338;0.003643736941739917
-0.009796142578125;-0.135009765625;-1.011932373046875;0.004255198873579502;-0.0038802255876362324;0.004017910920083523
-0.009796142578125;-0.135009765625;-1.011932373046875;0.004255198873579502;-0.0038802255876362324;0.004017910920083523
-0.009796142578125;-0.135009765625;-1.011932373046875;0.004255198873579502;-0.0038802255876362324;0.004017910920083523
-0.009796142578125;-0.135009765625;-1.011932373046875;0.004255198873579502;-0.0038802255876362324;0.004017910920083523
-0.009796142578125;-0.135009765625;-1.011932373046875;0.004255198873579502;-0.0038802255876362324;0.004017910920083523
-0.008941650390625;-0.1359100341796875;-1.010528564453125;0.004132959526032209;-0.008293616585433483;-0.0013606089632958174
-0.008941650390625;-0.1359100341796875;-1.010528564453125;0.004132959526032209;-0.008293616585433483;-0.0013606089632958174
-0.008941650390625;-0.1359100341796875;-1.010528564453125;0.004132959526032209;-0.008293616585433483;-0.0013606089632958174
-0.008941650390625;-0.1359100341796875;-1.010528564453125;0.004132959526032209;-0.008293616585433483;-0.0013606089632958174
-0.008941650390625;-0.1359100341796875;-1.010528564453125;0.004132959526032209;-0.008293616585433483;-0.0013606089632958174
-0.0086517333984375;-0.137481689453125;-1.0085906982421875;-0.000696150294970721;-0.018202438950538635;0.0017273263074457645
-0.0086517333984375;-0.137481689453125;-1.0085906982421875;-0.000696150294970721;-0.018202438950538635;0.0017273263074457645
-0.0086517333984375;-0.137481689453125;-1.0085906982421875;-0.000696150294970721;-0.018202438950538635;0.0017273263074457645
-0.0086517333984375;-0.137481689453125;-1.0085906982421875;-0.000696150294970721;-0.018202438950538635;0.0017273263074457645
-0.0086517333984375;-0.137481689453125;-1.0085906982421875;-0.000696150294970721;-0.018202438950538635;0.0017273263074457645
-0.0084381103515625;-0.14013671875;-1.0057830810546875;-0.001606418751180172;-0.022128205746412277;-0.0001054611784638837
-0.0084381103515625;-0.14013671875;-1.0057830810546875;-0.001606418751180172;-0.022128205746412277;-0.0001054611784638837
-0.0084381103515625;-0.14013671875;-1.0057830810546875;-0.001606418751180172;-0.022128205746412277;-0.0001054611784638837
-0.0084381103515625;-0.14013671875;-1.0057830810546875;-0.001606418751180172;-0.022128205746412277;-0.0001054611784638837
-0.0084381103515625;-0.14013671875;-1.0057830810546875;-0.001606418751180172;-0.022128205746412277;-0.0001054611784638837
-0.0083770751953125;-0.140472412109375;-1.0033111572265625;-0.0049561429768800735;-0.018200309947133064;-0.0003557983145583421
-0.0083770751953125;-0.140472412109375;-1.0033111572265625;-0.0049561429768800735;-0.018200309947133064;-0.0003557983145583421
-0.0083770751953125;-0.140472412109375;-1.0033111572265625;-0.0049561429768800735;-0.018200309947133064;-0.0003557983145583421
-0.0083770751953125;-0.140472412109375;-1.0033111572265625;-0.0049561429768800735;-0.018200309947133064;-0.0003557983145583421
-0.0083770751953125;-0.140472412109375;-1.0033111572265625;-0.0049561429768800735;-0.018200309947133064;-0.0003557983145583421
-0.0085906982421875;-0.1414031982421875;-1.002349853515625;-0.006146309431642294;-0.017833059653639793;-0.0014596786350011826
-0.0085906982421875;-0.1414031982421875;-1.002349853515625;-0.006146309431642294;-0.017833059653639793;-0.0014596786350011826
-0.0085906982421875;-0.1414031982421875;-1.002349853515625;-0.006146309431642294;-0.017833059653639793;-0.0014596786350011826
-0.0085906982421875;-0.1414031982421875;-1.002349853515625;-0.006146309431642294;-0.017833059653639793;-0.0014596786350011826
-0.0085906982421875;-0.1414031982421875;-1.002349853515625;-0.006146309431642294;-0.017833059653639793;-0.0014596786350011826
-0.009033203125;-0.1424560546875;-1.0020751953125;-0.005111138802021742;-0.01284575741738081;0.0013025520602241158
-0.009033203125;-0.1424560546875;-1.0020751953125;-0.005111138802021742;-0.01284575741738081;0.0013025520602241158
-0.009033203125;-0.1424560546875;-1.0020751953125;-0.005111138802021742;-0.01284575741738081;0.0013025520602241158
-0.009033203125;-0.1424560546875;-1.0020751953125;-0.005111138802021742;-0.01284575741738081;0.0013025520602241158
-0.009033203125;-0.1424560546875;-1.0020751953125;-0.005111138802021742;-0.01284575741738081;0.0013025520602241158
-0.008514404296875;-0.1432342529296875;-1.0022735595703125;-0.008733037859201431;-0.011784753762185574;0.0006056028068996966
-0.008514404296875;-0.1432342529296875;-1.0022735595703125;-0.008733037859201431;-0.011784753762185574;0.0006056028068996966
-0.008514404296875;-0.1432342529296875;-1.0022735595703125;-0.008733037859201431;-0.011784753762185574;0.0006056028068996966
-0.008514404296875;-0.1432342529296875;-1.0022735595703125;-0.008733037859201431;-0.011784753762185574;0.0006056028068996966
-0.008514404296875;-0.1432342529296875;-1.0022735595703125;-0.008733037859201431;-0.011784753762185574;0.0006056028068996966
-0.0094757080078125;-0.1431427001953125;-1.0021514892578125;-0.014449512585997581;-0.008622250519692898;0.004898618441075087
-0.0094757080078125;-0.1431427001953125;-1.0021514892578125;-0.014449512585997581;-0.008622250519692898;0.004898618441075087
-0.0094757080078125;-0.1431427001953125;-1.0021514892578125;-0.014449512585997581;-0.008622250519692898;0.004898618441075087
-0.0094757080078125;-0.1431427001953125;-1.0021514892578125;-0.014449512585997581;-0.008622250519692898;0.004898618441075087
-0.0094757080078125;-0.1431427001953125;-1.0021514892578125;-0.014449512585997581;-0.008622250519692898;0.004898618441075087
-0.01043701171875;-0.1432342529296875;-1.00164794921875;-0.013011672534048557;-0.0020610203500837088;0.0017353157745674253
-0.01043701171875;-0.1432342529296875;-1.00164794921875;-0.013011672534048557;-0.0020610203500837088;0.0017353157745674253
-0.01043701171875;-0.1432342529296875;-1.00164794921875;-0.013011672534048557;-0.0020610203500837088;0.0017353157745674253
-0.01043701171875;-0.1432342529296875;-1.00164794921875;-0.013011672534048557;-0.0020610203500837088;0.0017353157745674253
-0.01043701171875;-0.1432342529296875;-1.00164794921875;-0.013011672534048557;-0.0020610203500837088;0.0017353157745674253
-0.010955810546875;-0.141448974609375;-1.00433349609375;-0.017895909026265144;-0.0030807447619736195;0.0017366473330184817
-0.010955810546875;-0.141448974609375;-1.00433349609375;-0.017895909026265144;-0.0030807447619736195;0.0017366473330184817
-0.010955810546875;-0.141448974609375;-1.00433349609375;-0.017895909026265144;-0.0030807447619736195;0.0017366473330184817
-0.010955810546875;-0.141448974609375;-1.00433349609375;-0.017895909026265144;-0.0030807447619736195;0.0017366473330184817
-0.010955810546875;-0.141448974609375;-1.00433349609375;-0.017895909026265144;-0.0030807447619736195;0.0017366473330184817
-0.012481689453125;-0.141387939453125;-1.004852294921875;-0.015615977346897125;-0.0006167881074361503;0.00401684595271945
-0.012481689453125;-0.141387939453125;-1.004852294921875;-0.015615977346897125;-0.0006167881074361503;0.00401684595271945
-0.012481689453125;-0.141387939453125;-1.004852294921875;-0.015615977346897125;-0.0006167881074361503;0.00401684595271945
-0.012481689453125;-0.141387939453125;-1.004852294921875;-0.015615977346897125;-0.0006167881074361503;0.00401684595271945
-0.012481689453125;-0.141387939453125;-1.004852294921875;-0.015615977346897125;-0.0006167881074361503;0.00401684595271945
-0.012481689453125;-0.141387939453125;-1.004852294921875;-0.014933941885828972;-0.000185888638952747;0.004454136826097965
-0.0125732421875;-0.14007568359375;-1.00653076171875;-0.014933941885828972;-0.000185888638952747;0.004454136826097965
-0.0125732421875;-0.14007568359375;-1.00653076171875;-0.014933941885828972;-0.000185888638952747;0.004454136826097965
-0.0125732421875;-0.14007568359375;-1.00653076171875;-0.014933941885828972;-0.000185888638952747;0.004454136826097965
-0.0125732421875;-0.14007568359375;-1.00653076171875;-0.014933941885828972;-0.000185888638952747;0.004454136826097965
-0.0130157470703125;-0.138916015625;-1.0061798095703125;-0.013943245634436607;0.003614175831899047;0.003988882526755333
-0.0130157470703125;-0.138916015625;-1.0061798095703125;-0.013943245634436607;0.003614175831899047;0.003988882526755333
-0.0130157470703125;-0.138916015625;-1.0061798095703125;-0.013943245634436607;0.003614175831899047;0.003988882526755333
-0.0130157470703125;-0.138916015625;-1.0061798095703125;-0.013943245634436607;0.003614175831899047;0.003988882526755333
-0.0130157470703125;-0.138916015625;-1.0061798095703125;-0.013943245634436607;0.003614175831899047;0.003988882526755333
-0.0123443603515625;-0.1395111083984375;-1.006103515625;-0.013717143796384335;0.0057036918587982655;0.005343100056052208
-0.0123443603515625;-0.1395111083984375;-1.006103515625;-0.013717143796384335;0.0057036918587982655;0.005343100056052208
-0.0123443603515625;-0.1395111083984375;-1.006103515625;-0.013717143796384335;0.0057036918587982655;0.005343100056052208
-0.0123443603515625;-0.1395111083984375;-1.006103515625;-0.013717143796384335;0.0057036918587982655;0.005343100056052208
-0.0123443603515625;-0.1395111083984375;-1.006103515625;-0.013717143796384335;0.0057036918587982655;0.005343100056052208
-0.0107421875;-0.1388092041015625;-1.0057525634765625;-0.008106928318738937;0.0031827439088374376;0.004012584686279297
-0.0107421875;-0.1388092041015625;-1.0057525634765625;-0.008106928318738937;0.0031827439088374376;0.004012584686279297
-0.0107421875;-0.1388092041015625;-1.0057525634765625;-0.008106928318738937;0.0031827439088374376;0.004012584686279297
-0.0107421875;-0.1388092041015625;-1.0057525634765625;-0.008106928318738937;0.0031827439088374376;0.004012584686279297
-0.0107421875;-0.1388092041015625;-1.0057525634765625;-0.008106928318738937;0.0031827439088374376;0.004012584686279297
-0.009613037109375;-0.13629150390625;-1.006927490234375;-0.009896306321024895;0.003920705523341894;0.005646434146910906
-0.009613037109375;-0.13629150390625;-1.006927490234375;-0.009896306321024895;0.003920705523341894;0.005646434146910906
-0.009613037109375;-0.13629150390625;-1.006927490234375;-0.009896306321024895;0.003920705523341894;0.005646434146910906
-0.009613037109375;-0.13629150390625;-1.006927490234375;-0.009896306321024895;0.003920705523341894;0.005646434146910906
-0.009613037109375;-0.13629150390625;-1.006927490234375;-0.009896306321024895;0.003920705523341894;0.005646434146910906
-0.00927734375;-0.1350250244140625;-1.007904052734375;-0.007764446083456278;0.006254167295992374;0.005714877508580685
-0.00927734375;-0.1350250244140625;-1.007904052734375;-0.007764446083456278;0.006254167295992374;0.005714877508580685
-0.00927734375;-0.1350250244140625;-1.007904052734375;-0.007764446083456278;0.006254167295992374;0.005714877508580685
-0.00927734375;-0.1350250244140625;-1.007904052734375;-0.007764446083456278;0.006254167295992374;0.005714877508580685
-0.00927734375;-0.1350250244140625;-1.007904052734375;-0.007764446083456278;0.006254167295992374;0.005714877508580685
-0.01043701171875;-0.1351776123046875;-1.009918212890625;-0.004596616141498089;0.0008450209861621261;0.005006742663681507
-0.01043701171875;-0.1351776123046875;-1.009918212890625;-0.004596616141498089;0.0008450209861621261;0.005006742663681507
-0.01043701171875;-0.1351776123046875;-1.009918212890625;-0.004596616141498089;0.0008450209861621261;0.005006742663681507
-0.01043701171875;-0.1351776123046875;-1.009918212890625;-0.004596616141498089;0.0008450209861621261;0.005006742663681507
-0.01043701171875;-0.1351776123046875;-1.009918212890625;-0.004596616141498089;0.0008450209861621261;0.005006742663681507
-0.010223388671875;-0.13690185546875;-1.010345458984375;-0.00039414784987457097;-0.00010040117194876075;0.006354035809636116
-0.010223388671875;-0.13690185546875;-1.010345458984375;-0.00039414784987457097;-0.00010040117194876075;0.006354035809636116
-0.010223388671875;-0.13690185546875;-1.010345458984375;-0.00039414784987457097;-0.00010040117194876075;0.006354035809636116
-0.010223388671875;-0.13690185546875;-1.010345458984375;-0.00039414784987457097;-0.00010040117194876075;0.006354035809636116
-0.010223388671875;-0.13690185546875;-1.010345458984375;-0.00039414784987457097;-0.00010040117194876075;0.006354035809636116
-0.0094757080078125;-0.13720703125;-1.01141357421875;0.0008567389450035989;-0.005319930613040924;0.0034029872622340918
-0.0094757080078125;-0.13720703125;-1.01141357421875;0.0008567389450035989;-0.005319930613040924;0.0034029872622340918
-0.0094757080078125;-0.13720703125;-1.01141357421875;0.0008567389450035989;-0.005319930613040924;0.0034029872622340918
-0.0094757080078125;-0.13720703125;-1.01141357421875;0.0008567389450035989;-0.005319930613040924;0.0034029872622340918
-0.0094757080078125;-0.13720703125;-1.01141357421875;0.0008567389450035989;-0.005319930613040924;0.0034029872622340918
-0.01031494140625;-0.13836669921875;-1.0120086669921875;0.0013912353897467256;-0.006310892757028341;0.004403270315378904
-0.01031494140625;-0.13836669921875;-1.0120086669921875;0.0013912353897467256;-0.006310892757028341;0.004403270315378904
-0.01031494140625;-0.13836669921875;-1.0120086669921875;0.0013912353897467256;-0.006310892757028341;0.004403270315378904
-0.01031494140625;-0.13836669921875;-1.0120086669921875;0.0013912353897467256;-0.006310892757028341;0.004403270315378904
-0.01031494140625;-0.13836669921875;-1.0120086669921875;0.0013912353897467256;-0.006310892757028341;0.004403270315378904
-0.010009765625;-0.1382904052734375;-1.0123291015625;-0.0006415555253624916;-0.010330934077501297;0.0022125542163848877
-0.010009765625;-0.1382904052734375;-1.0123291015625;-0.0006415555253624916;-0.010330934077501297;0.0022125542163848877
-0.010009765625;-0.1382904052734375;-1.0123291015625;-0.0006415555253624916;-0.010330934077501297;0.0022125542163848877
-0.010009765625;-0.1382904052734375;-1.0123291015625;-0.0006415555253624916;-0.010330934077501297;0.0022125542163848877
-0.010009765625;-0.1382904052734375;-1.0123291015625;-0.0006415555253624916;-0.010330934077501297;0.0022125542163848877
-0.0104217529296875;-0.1396942138671875;-1.0077362060546875;-0.007813980802893639;-0.0029523803386837244;0.002576075727120042
-0.0104217529296875;-0.1396942138671875;-1.0077362060546875;-0.007813980802893639;-0.0029523803386837244;0.002576075727120042
-0.0104217529296875;-0.1396942138671875;-1.0077362060546875;-0.007813980802893639;-0.0029523803386837244;0.002576075727120042
-0.0104217529296875;-0.1396942138671875;-1.0077362060546875;-0.007813980802893639;-0.0029523803386837244;0.002576075727120042
-0.0104217529296875;-0.1396942138671875;-1.0077362060546875;-0.007813980802893639;-0.0029523803386837244;0.002576075727120042
-0.010101318359375;-0.1403656005859375;-1.0028533935546875;-0.016268452629446983;0.004969991277903318;0.0029142971616238356
-0.010101318359375;-0.1403656005859375;-1.0028533935546875;-0.016268452629446983;0.004969991277903318;0.0029142971616238356
-0.010101318359375;-0.1403656005859375;-1.0028533935546875;-0.016268452629446983;0.004969991277903318;0.0029142971616238356
-0.010101318359375;-0.1403656005859375;-1.0028533935546875;-0.016268452629446983;0.004969991277903318;0.0029142971616238356
-0.010101318359375;-0.1403656005859375;-1.0028533935546875;-0.016268452629446983;0.004969991277903318;0.0029142971616238356
-0.0101776123046875;-0.14166259765625;-0.99969482421875;-0.02737596444785595;0.01128168310970068;0.002264485927298665
-0.0101776123046875;-0.14166259765625;-0.99969482421875;-0.02737596444785595;0.01128168310970068;0.002264485927298665
-0.0101776123046875;-0.14166259765625;-0.99969482421875;-0.02737596444785595;0.01128168310970068;0.002264485927298665
-0.0101776123046875;-0.14166259765625;-0.99969482421875;-0.02737596444785595;0.01128168310970068;0.002264485927298665
-0.0101776123046875;-0.14166259765625;-0.99969482421875;-0.02737596444785595;0.01128168310970068;0.002264485927298665
-0.0101165771484375;-0.1405487060546875;-1.0015411376953125;-0.03039439022541046;0.0027662254869937897;-0.002344380598515272
-0.0101165771484375;-0.1405487060546875;-1.0015411376953125;-0.03039439022541046;0.0027662254869937897;-0.002344380598515272
-0.0101165771484375;-0.1405487060546875;-1.0015411376953125;-0.03039439022541046;0.0027662254869937897;-0.002344380598515272
-0.0101165771484375;-0.1405487060546875;-1.0015411376953125;-0.03039439022541046;0.0027662254869937897;-0.002344380598515272
-0.0101165771484375;-0.1405487060546875;-1.0015411376953125;-0.03039439022541046;0.0027662254869937897;-0.002344380598515272
-0.0103912353515625;-0.1358184814453125;-1.0100555419921875;-0.020448017865419388;-0.01932229846715927;-0.004822452086955309
-0.0103912353515625;-0.1358184814453125;-1.0100555419921875;-0.020448017865419388;-0.01932229846715927;-0.004822452086955309
-0.0103912353515625;-0.1358184814453125;-1.0100555419921875;-0.020448017865419388;-0.01932229846715927;-0.004822452086955309
-0.0103912353515625;-0.1358184814453125;-1.0100555419921875;-0.020448017865419388;-0.01932229846715927;-0.004822452086955309
-0.0103912353515625;-0.1358184814453125;-1.0100555419921875;-0.020448017865419388;-0.01932229846715927;-0.004822452086955309
-0.0105743408203125;-0.1350250244140625;-1.0128631591796875;-0.01895371824502945;-0.03838254138827324;-0.006876814644783735
-0.0105743408203125;-0.1350250244140625;-1.0128631591796875;-0.01895371824502945;-0.03838254138827324;-0.006876814644783735
-0.0105743408203125;-0.1350250244140625;-1.0128631591796875;-0.01895371824502945;-0.03838254138827324;-0.006876814644783735
-0.0105743408203125;-0.1350250244140625;-1.0128631591796875;-0.01895371824502945;-0.03838254138827324;-0.006876814644783735
-0.0105743408203125;-0.1350250244140625;-1.0128631591796875;-0.01895371824502945;-0.03838254138827324;-0.006876814644783735
-0.01177978515625;-0.1362152099609375;-1.0083160400390625;-0.013819409534335136;-0.049423474818468094;-0.0067481836304068565
-0.01177978515625;-0.1362152099609375;-1.0083160400390625;-0.013819409534335136;-0.049423474818468094;-0.0067481836304068565
-0.01177978515625;-0.1362152099609375;-1.0083160400390625;-0.013819409534335136;-0.049423474818468094;-0.0067481836304068565
-0.01177978515625;-0.1362152099609375;-1.0083160400390625;-0.013819409534335136;-0.049423474818468094;-0.0067481836304068565
-0.01177978515625;-0.1362152099609375;-1.0083160400390625;-0.013819409534335136;-0.049423474818468094;-0.0067481836304068565
-0.012939453125;-0.135162353515625;-1.0022430419921875;-0.010580739006400108;-0.03966831788420677;-0.0035396073944866657
-0.012939453125;-0.135162353515625;-1.0022430419921875;-0.010580739006400108;-0.03966831788420677;-0.0035396073944866657
-0.012939453125;-0.135162353515625;-1.0022430419921875;-0.010580739006400108;-0.03966831788420677;-0.0035396073944866657
-0.012939453125;-0.135162353515625;-1.0022430419921875;-0.010580739006400108;-0.03966831788420677;-0.0035396073944866657
-0.012939453125;-0.135162353515625;-1.0022430419921875;-0.010580739006400108;-0.03966831788420677;-0.0035396073944866657
-0.013763427734375;-0.13592529296875;-0.994873046875;-0.006972954608500004;-0.013378389179706573;-0.00014034859486855567
-0.013763427734375;-0.13592529296875;-0.994873046875;-0.006972954608500004;-0.013378389179706573;-0.00014034859486855567
-0.013763427734375;-0.13592529296875;-0.994873046875;-0.006972954608500004;-0.013378389179706573;-0.00014034859486855567
-0.013763427734375;-0.13592529296875;-0.994873046875;-0.006972954608500004;-0.013378389179706573;-0.00014034859486855567
-0.013763427734375;-0.13592529296875;-0.994873046875;-0.0057047572918236256;0.013670538552105427;-0.0006463492172770202
-0.014984130859375;-0.1361083984375;-0.9935760498046875;-0.0057047572918236256;0.013670538552105427;-0.0006463492172770202
-0.014984130859375;-0.1361083984375;-0.9935760498046875;-0.0057047572918236256;0.013670538552105427;-0.0006463492172770202
-0.014984130859375;-0.1361083984375;-0.9935760498046875;-0.0057047572918236256;0.013670538552105427;-0.0006463492172770202
-0.014984130859375;-0.1361083984375;-0.9935760498046875;-0.0057047572918236256;0.013670538552105427;-0.0006463492172770202
-0.014984130859375;-0.1361083984375;-0.9935760498046875;0.0003653856983873993;0.034328412264585495;0.0044264402240514755
-0.013885498046875;-0.1348724365234375;-0.9969329833984375;0.0003653856983873993;0.034328412264585495;0.0044264402240514755
-0.013885498046875;-0.1348724365234375;-0.9969329833984375;0.0003653856983873993;0.034328412264585495;0.0044264402240514755
-0.013885498046875;-0.1348724365234375;-0.9969329833984375;0.0003653856983873993;0.034328412264585495;0.0044264402240514755
-0.013885498046875;-0.1348724365234375;-0.9969329833984375;0.0003653856983873993;0.034328412264585495;0.0044264402240514755
-0.013885498046875;-0.1348724365234375;-0.9969329833984375;0.001671932521276176;0.048417866230010986;0.008615858852863312
-0.0111846923828125;-0.1350860595703125;-1.00128173828125;0.001671932521276176;0.048417866230010986;0.008615858852863312
-0.0111846923828125;-0.1350860595703125;-1.00128173828125;0.001671932521276176;0.048417866230010986;0.008615858852863312
-0.0111846923828125;-0.1350860595703125;-1.00128173828125;0.001671932521276176;0.048417866230010986;0.008615858852863312
-0.0111846923828125;-0.1350860595703125;-1.00128173828125;0.001671932521276176;0.048417866230010986;0.008615858852863312
-0.0079193115234375;-0.1331329345703125;-1.0049285888671875;0.0043899547308683395;0.04319807142019272;0.008498147130012512
-0.0079193115234375;-0.1331329345703125;-1.0049285888671875;0.0043899547308683395;0.04319807142019272;0.008498147130012512
-0.0079193115234375;-0.1331329345703125;-1.0049285888671875;0.0043899547308683395;0.04319807142019272;0.008498147130012512
-0.0079193115234375;-0.1331329345703125;-1.0049285888671875;0.0043899547308683395;0.04319807142019272;0.008498147130012512
-0.0079193115234375;-0.1331329345703125;-1.0049285888671875;0.0043899547308683395;0.04319807142019272;0.008498147130012512
-0.0079193115234375;-0.1331329345703125;-1.0049285888671875;0.010936536826193333;0.037707433104515076;0.00851439218968153
-0.0049896240234375;-0.136077880859375;-1.0116119384765625;0.010936536826193333;0.037707433104515076;0.00851439218968153
-0.0049896240234375;-0.136077880859375;-1.0116119384765625;0.010936536826193333;0.037707433104515076;0.00851439218968153
-0.0049896240234375;-0.136077880859375;-1.0116119384765625;0.010936536826193333;0.037707433104515076;0.00851439218968153
-0.0049896240234375;-0.136077880859375;-1.0116119384765625;0.010936536826193333;0.037707433104515076;0.00851439218968153
-0.003509521484375;-0.137359619140625;-1.017059326171875;0.015788283199071884;0.0169113390147686;0.009979929774999619
-0.003509521484375;-0.137359619140625;-1.017059326171875;0.015788283199071884;0.0169113390147686;0.009979929774999619
-0.003509521484375;-0.137359619140625;-1.017059326171875;0.015788283199071884;0.0169113390147686;0.009979929774999619
-0.003509521484375;-0.137359619140625;-1.017059326171875;0.015788283199071884;0.0169113390147686;0.009979929774999619
-0.003509521484375;-0.137359619140625;-1.017059326171875;0.015788283199071884;0.0169113390147686;0.009979929774999619
-0.0049591064453125;-0.1387939453125;-1.018951416015625;0.022407304495573044;-0.007802262902259827;0.007113835774362087
-0.0049591064453125;-0.1387939453125;-1.018951416015625;0.022407304495573044;-0.007802262902259827;0.007113835774362087
-0.0049591064453125;-0.1387939453125;-1.018951416015625;0.022407304495573044;-0.007802262902259827;0.007113835774362087
-0.0049591064453125;-0.1387939453125;-1.018951416015625;0.022407304495573044;-0.007802262902259827;0.007113835774362087
-0.0049591064453125;-0.1387939453125;-1.018951416015625;0.022407304495573044;-0.007802262902259827;0.007113835774362087
-0.00823974609375;-0.1399383544921875;-1.01556396484375;0.019267970696091652;-0.020382503047585487;0.004403270315378904
-0.00823974609375;-0.1399383544921875;-1.01556396484375;0.019267970696091652;-0.020382503047585487;0.004403270315378904
-0.00823974609375;-0.1399383544921875;-1.01556396484375;0.019267970696091652;-0.020382503047585487;0.004403270315378904
-0.00823974609375;-0.1399383544921875;-1.01556396484375;0.019267970696091652;-0.020382503047585487;0.004403270315378904
-0.00823974609375;-0.1399383544921875;-1.01556396484375;0.019267970696091652;-0.020382503047585487;0.004403270315378904
-0.0112762451171875;-0.1388092041015625;-1.0111083984375;0.017552362754940987;-0.024658475071191788;0.0021752698812633753
-0.0112762451171875;-0.1388092041015625;-1.0111083984375;0.017552362754940987;-0.024658475071191788;0.0021752698812633753
-0.0112762451171875;-0.1388092041015625;-1.0111083984375;0.017552362754940987;-0.024658475071191788;0.0021752698812633753
-0.0112762451171875;-0.1388092041015625;-1.0111083984375;0.017552362754940987;-0.024658475071191788;0.0021752698812633753
-0.0112762451171875;-0.1388092041015625;-1.0111083984375;0.017552362754940987;-0.024658475071191788;0.0021752698812633753
-0.01336669921875;-0.137451171875;-1.003997802734375;0.022038722410798073;-0.01429611537605524;0.0003070624661631882
-0.01336669921875;-0.137451171875;-1.003997802734375;0.022038722410798073;-0.01429611537605524;0.0003070624661631882
-0.01336669921875;-0.137451171875;-1.003997802734375;0.022038722410798073;-0.01429611537605524;0.0003070624661631882
-0.01336669921875;-0.137451171875;-1.003997802734375;0.022038722410798073;-0.01429611537605524;0.0003070624661631882
-0.01336669921875;-0.137451171875;-1.003997802734375;0.022038722410798073;-0.01429611537605524;0.0003070624661631882
-0.0136871337890625;-0.1363677978515625;-1.002471923828125;0.02630484104156494;-0.010188722051680088;0.0031883365008980036
-0.0136871337890625;-0.1363677978515625;-1.002471923828125;0.02630484104156494;-0.010188722051680088;0.0031883365008980036
-0.0136871337890625;-0.1363677978515625;-1.002471923828125;0.02630484104156494;-0.010188722051680088;0.0031883365008980036
-0.0136871337890625;-0.1363677978515625;-1.002471923828125;0.02630484104156494;-0.010188722051680088;0.0031883365008980036
-0.0136871337890625;-0.1363677978515625;-1.002471923828125;0.02630484104156494;-0.010188722051680088;0.0031883365008980036
-0.0124969482421875;-0.1339111328125;-1.0035400390625;0.03561897948384285;-0.003674097126349807;0.0026114957872778177
-0.0124969482421875;-0.1339111328125;-1.0035400390625;0.03561897948384285;-0.003674097126349807;0.0026114957872778177
-0.0124969482421875;-0.1339111328125;-1.0035400390625;0.03561897948384285;-0.003674097126349807;0.0026114957872778177
-0.0124969482421875;-0.1339111328125;-1.0035400390625;0.03561897948384285;-0.003674097126349807;0.0026114957872778177
-0.0124969482421875;-0.1339111328125;-1.0035400390625;0.03561897948384285;-0.003674097126349807;0.0026114957872778177
-0.01080322265625;-0.1326446533203125;-1.002197265625;0.040040627121925354;-0.0033249566331505775;0.006253102328628302
-0.01080322265625;-0.1326446533203125;-1.002197265625;0.040040627121925354;-0.0033249566331505775;0.006253102328628302
-0.01080322265625;-0.1326446533203125;-1.002197265625;0.040040627121925354;-0.0033249566331505775;0.006253102328628302
-0.01080322265625;-0.1326446533203125;-1.002197265625;0.040040627121925354;-0.0033249566331505775;0.006253102328628302
-0.01080322265625;-0.1326446533203125;-1.002197265625;0.040040627121925354;-0.0033249566331505775;0.006253102328628302
-0.00994873046875;-0.1330413818359375;-1.0018463134765625;0.04722556844353676;-0.003001648932695389;0.005292766261845827
-0.00994873046875;-0.1330413818359375;-1.0018463134765625;0.04722556844353676;-0.003001648932695389;0.005292766261845827
-0.00994873046875;-0.1330413818359375;-1.0018463134765625;0.04722556844353676;-0.003001648932695389;0.005292766261845827
-0.00994873046875;-0.1330413818359375;-1.0018463134765625;0.04722556844353676;-0.003001648932695389;0.005292766261845827
-0.00994873046875;-0.1330413818359375;-1.0018463134765625;0.04722556844353676;-0.003001648932695389;0.005292766261845827
-0.0088653564453125;-0.132843017578125;-1.0008087158203125;0.05275429040193558;-0.002116147894412279;0.007743673399090767
-0.0088653564453125;-0.132843017578125;-1.0008087158203125;0.05275429040193558;-0.002116147894412279;0.007743673399090767
-0.0088653564453125;-0.132843017578125;-1.0008087158203125;0.05275429040193558;-0.002116147894412279;0.007743673399090767
-0.0088653564453125;-0.132843017578125;-1.0008087158203125;0.05275429040193558;-0.002116147894412279;0.007743673399090767
-0.0088653564453125;-0.132843017578125;-1.0008087158203125;0.05275429040193558;-0.002116147894412279;0.007743673399090767
-0.009613037109375;-0.1328582763671875;-1.00225830078125;0.057914964854717255;-0.0032748891972005367;0.0037622477393597364
-0.009613037109375;-0.1328582763671875;-1.00225830078125;0.057914964854717255;-0.0032748891972005367;0.0037622477393597364
-0.009613037109375;-0.1328582763671875;-1.00225830078125;0.057914964854717255;-0.0032748891972005367;0.0037622477393597364
-0.009613037109375;-0.1328582763671875;-1.00225830078125;0.057914964854717255;-0.0032748891972005367;0.0037622477393597364
-0.009613037109375;-0.1328582763671875;-1.00225830078125;0.057914964854717255;-0.0032748891972005367;0.0037622477393597364
-0.010650634765625;-0.135345458984375;-1.0049285888671875;0.06503226608037949;-0.008578307926654816;0.001862348522990942
-0.010650634765625;-0.135345458984375;-1.0049285888671875;0.06503226608037949;-0.008578307926654816;0.001862348522990942
-0.010650634765625;-0.135345458984375;-1.0049285888671875;0.06503226608037949;-0.008578307926654816;0.001862348522990942
-0.010650634765625;-0.135345458984375;-1.0049285888671875;0.06503226608037949;-0.008578307926654816;0.001862348522990942
-0.010650634765625;-0.135345458984375;-1.0049285888671875;0.06503226608037949;-0.008578307926654816;0.001862348522990942
-0.0115509033203125;-0.1367340087890625;-1.008697509765625;0.07385957986116409;-0.016210395842790604;-0.0008133294177241623
-0.0115509033203125;-0.1367340087890625;-1.008697509765625;0.07385957986116409;-0.016210395842790604;-0.0008133294177241623
-0.0115509033203125;-0.1367340087890625;-1.008697509765625;0.07385957986116409;-0.016210395842790604;-0.0008133294177241623
-0.0115509033203125;-0.1367340087890625;-1.008697509765625;0.07385957986116409;-0.016210395842790604;-0.0008133294177241623
-0.0115509033203125;-0.1367340087890625;-1.008697509765625;0.07385957986116409;-0.016210395842790604;-0.0008133294177241623
-0.011444091796875;-0.139495849609375;-1.0110015869140625;0.08040881901979446;-0.02069356106221676;-0.001356614287942648
-0.011444091796875;-0.139495849609375;-1.0110015869140625;0.08040881901979446;-0.02069356106221676;-0.001356614287942648
-0.011444091796875;-0.139495849609375;-1.0110015869140625;0.08040881901979446;-0.02069356106221676;-0.001356614287942648
-0.011444091796875;-0.139495849609375;-1.0110015869140625;0.08040881901979446;-0.02069356106221676;-0.001356614287942648
-0.011444091796875;-0.139495849609375;-1.0110015869140625;0.08040881901979446;-0.02069356106221676;-0.001356614287942648
-0.011932373046875;-0.1424560546875;-1.011322021484375;0.08719881623983383;-0.02665930800139904;-0.004108458757400513
-0.011932373046875;-0.1424560546875;-1.011322021484375;0.08719881623983383;-0.02665930800139904;-0.004108458757400513
-0.011932373046875;-0.1424560546875;-1.011322021484375;0.08719881623983383;-0.02665930800139904;-0.004108458757400513
-0.011932373046875;-0.1424560546875;-1.011322021484375;0.08719881623983383;-0.02665930800139904;-0.004108458757400513
-0.011932373046875;-0.1424560546875;-1.011322021484375;0.08719881623983383;-0.02665930800139904;-0.004108458757400513
-0.0119476318359375;-0.1438140869140625;-1.010162353515625;0.09030459821224213;-0.034204576164484024;-0.0036133769899606705
-0.0119476318359375;-0.1438140869140625;-1.010162353515625;0.09030459821224213;-0.034204576164484024;-0.0036133769899606705
-0.0119476318359375;-0.1438140869140625;-1.010162353515625;0.09030459821224213;-0.034204576164484024;-0.0036133769899606705
-0.0119476318359375;-0.1438140869140625;-1.010162353515625;0.09030459821224213;-0.034204576164484024;-0.0036133769899606705
-0.0119476318359375;-0.1438140869140625;-1.010162353515625;0.09030459821224213;-0.034204576164484024;-0.0036133769899606705
-0.0125274658203125;-0.1452484130859375;-1.0091400146484375;0.09309905022382736;-0.035778503865003586;-0.002659698948264122
-0.0125274658203125;-0.1452484130859375;-1.0091400146484375;0.09309905022382736;-0.035778503865003586;-0.002659698948264122
-0.0125274658203125;-0.1452484130859375;-1.0091400146484375;0.09309905022382736;-0.035778503865003586;-0.002659698948264122
-0.0125274658203125;-0.1452484130859375;-1.0091400146484375;0.09309905022382736;-0.035778503865003586;-0.002659698948264122
-0.0125274658203125;-0.1452484130859375;-1.0091400146484375;0.09309905022382736;-0.035778503865003586;-0.002659698948264122
-0.0139312744140625;-0.1469268798828125;-1.0074005126953125;0.09563544392585754;-0.029880667105317116;0.001645567244850099
-0.0139312744140625;-0.1469268798828125;-1.0074005126953125;0.09563544392585754;-0.029880667105317116;0.001645567244850099
-0.0139312744140625;-0.1469268798828125;-1.0074005126953125;0.09563544392585754;-0.029880667105317116;0.001645567244850099
-0.0139312744140625;-0.1469268798828125;-1.0074005126953125;0.09563544392585754;-0.029880667105317116;0.001645567244850099
-0.0139312744140625;-0.1469268798828125;-1.0074005126953125;0.09563544392585754;-0.029880667105317116;0.001645567244850099
-0.013580322265625;-0.146881103515625;-1.0058441162109375;0.10180971771478653;-0.02756238542497158;0.002153165638446808
-0.013580322265625;-0.146881103515625;-1.0058441162109375;0.10180971771478653;-0.02756238542497158;0.002153165638446808
-0.013580322265625;-0.146881103515625;-1.0058441162109375;0.10180971771478653;-0.02756238542497158;0.002153165638446808
-0.013580322265625;-0.146881103515625;-1.0058441162109375;0.10180971771478653;-0.02756238542497158;0.002153165638446808
-0.013580322265625;-0.146881103515625;-1.0058441162109375;0.10180971771478653;-0.02756238542497158;0.002153165638446808
-0.014404296875;-0.146942138671875;-1.0044097900390625;0.10153301805257797;-0.025235315784811974;0.0011984225129708648
-0.014404296875;-0.146942138671875;-1.0044097900390625;0.10153301805257797;-0.025235315784811974;0.0011984225129708648
-0.014404296875;-0.146942138671875;-1.0044097900390625;0.10153301805257797;-0.025235315784811974;0.0011984225129708648
-0.014404296875;-0.146942138671875;-1.0044097900390625;0.10153301805257797;-0.025235315784811974;0.0011984225129708648
-0.014404296875;-0.146942138671875;-1.0044097900390625;0.10153301805257797;-0.025235315784811974;0.0011984225129708648
-0.012481689453125;-0.146209716796875;-1.005126953125;0.1014118418097496;-0.026283802464604378;0.0005874933558516204
-0.012481689453125;-0.146209716796875;-1.005126953125;0.1014118418097496;-0.026283802464604378;0.0005874933558516204
-0.012481689453125;-0.146209716796875;-1.005126953125;0.1014118418097496;-0.026283802464604378;0.0005874933558516204
-0.012481689453125;-0.146209716796875;-1.005126953125;0.1014118418097496;-0.026283802464604378;0.0005874933558516204
-0.012481689453125;-0.146209716796875;-1.005126953125;0.1014118418097496;-0.026283802464604378;0.0005874933558516204
-0.01153564453125;-0.14898681640625;-1.003448486328125;0.09803841263055801;-0.018733207136392593;0.004560130648314953
-0.01153564453125;-0.14898681640625;-1.003448486328125;0.09803841263055801;-0.018733207136392593;0.004560130648314953
-0.01153564453125;-0.14898681640625;-1.003448486328125;0.09803841263055801;-0.018733207136392593;0.004560130648314953
-0.01153564453125;-0.14898681640625;-1.003448486328125;0.09803841263055801;-0.018733207136392593;0.004560130648314953
-0.01153564453125;-0.14898681640625;-1.003448486328125;0.09803841263055801;-0.018733207136392593;0.004560130648314953
-0.012847900390625;-0.1512908935546875;-0.99957275390625;0.08676871657371521;-0.012880644761025906;0.0062669506296515465
-0.012847900390625;-0.1512908935546875;-0.99957275390625;0.08676871657371521;-0.012880644761025906;0.0062669506296515465
-0.012847900390625;-0.1512908935546875;-0.99957275390625;0.08676871657371521;-0.012880644761025906;0.0062669506296515465
-0.012847900390625;-0.1512908935546875;-0.99957275390625;0.08676871657371521;-0.012880644761025906;0.0062669506296515465
-0.012847900390625;-0.1512908935546875;-0.99957275390625;0.08676871657371521;-0.012880644761025906;0.0062669506296515465
-0.0146484375;-0.15216064453125;-0.9974517822265625;0.0725138783454895;-0.01522795483469963;0.0024916534312069416
-0.0146484375;-0.15216064453125;-0.9974517822265625;0.0725138783454895;-0.01522795483469963;0.0024916534312069416
-0.0146484375;-0.15216064453125;-0.9974517822265625;0.0725138783454895;-0.01522795483469963;0.0024916534312069416
-0.0146484375;-0.15216064453125;-0.9974517822265625;0.0725138783454895;-0.01522795483469963;0.0024916534312069416
-0.0146484375;-0.15216064453125;-0.9974517822265625;0.0725138783454895;-0.01522795483469963;0.0024916534312069416
-0.0135955810546875;-0.1511077880859375;-0.996978759765625;0.061408232897520065;-0.010016415268182755;0.0003552656853571534
-0.0135955810546875;-0.1511077880859375;-0.996978759765625;0.061408232897520065;-0.010016415268182755;0.0003552656853571534
-0.0135955810546875;-0.1511077880859375;-0.996978759765625;0.061408232897520065;-0.010016415268182755;0.0003552656853571534
-0.0135955810546875;-0.1511077880859375;-0.996978759765625;0.061408232897520065;-0.010016415268182755;0.0003552656853571534
-0.0135955810546875;-0.1511077880859375;-0.996978759765625;0.061408232897520065;-0.010016415268182755;0.0003552656853571534
-0.01287841796875;-0.1524658203125;-0.9976348876953125;0.0519377663731575;-0.008323975838720798;-0.001365668955259025
-0.01287841796875;-0.1524658203125;-0.9976348876953125;0.0519377663731575;-0.008323975838720798;-0.001365668955259025
-0.01287841796875;-0.1524658203125;-0.9976348876953125;0.0519377663731575;-0.008323975838720798;-0.001365668955259025
-0.01287841796875;-0.1524658203125;-0.9976348876953125;0.0519377663731575;-0.008323975838720798;-0.001365668955259025
-0.01287841796875;-0.1524658203125;-0.9976348876953125;0.0519377663731575;-0.008323975838720798;-0.001365668955259025
-0.0126495361328125;-0.153228759765625;-0.9982452392578125;0.047207191586494446;-0.0024088292848318815;3.5686356568476185e-05
-0.0126495361328125;-0.153228759765625;-0.9982452392578125;0.047207191586494446;-0.0024088292848318815;3.5686356568476185e-05
-0.0126495361328125;-0.153228759765625;-0.9982452392578125;0.047207191586494446;-0.0024088292848318815;3.5686356568476185e-05
-0.0126495361328125;-0.153228759765625;-0.9982452392578125;0.047207191586494446;-0.0024088292848318815;3.5686356568476185e-05
-0.0126495361328125;-0.153228759765625;-0.9982452392578125;0.047207191586494446;-0.0024088292848318815;3.5686356568476185e-05
-0.0112457275390625;-0.15570068359375;-0.9984588623046875;0.04379728063941002;0.004019775427877903;0.00024288028362207115
-0.0112457275390625;-0.15570068359375;-0.9984588623046875;0.04379728063941002;0.004019775427877903;0.00024288028362207115
-0.0112457275390625;-0.15570068359375;-0.9984588623046875;0.04379728063941002;0.004019775427877903;0.00024288028362207115
-0.0112457275390625;-0.15570068359375;-0.9984588623046875;0.04379728063941002;0.004019775427877903;0.00024288028362207115
-0.0112457275390625;-0.15570068359375;-0.9984588623046875;0.04379728063941002;0.004019775427877903;0.00024288028362207115
-0.011505126953125;-0.1572418212890625;-1.000030517578125;0.0413421131670475;0.0019430422689765692;-0.0005542038124985993
-0.011505126953125;-0.1572418212890625;-1.000030517578125;0.0413421131670475;0.0019430422689765692;-0.0005542038124985993
-0.011505126953125;-0.1572418212890625;-1.000030517578125;0.0413421131670475;0.0019430422689765692;-0.0005542038124985993
-0.011505126953125;-0.1572418212890625;-1.000030517578125;0.0413421131670475;0.0019430422689765692;-0.0005542038124985993
-0.011505126953125;-0.1572418212890625;-1.000030517578125;0.0413421131670475;0.0019430422689765692;-0.0005542038124985993
-0.010711669921875;-0.157745361328125;-1.00250244140625;0.03978735953569412;-0.0033249566331505775;-0.0014096111990511417
-0.010711669921875;-0.157745361328125;-1.00250244140625;0.03978735953569412;-0.0033249566331505775;-0.0014096111990511417
-0.010711669921875;-0.157745361328125;-1.00250244140625;0.03978735953569412;-0.0033249566331505775;-0.0014096111990511417
-0.010711669921875;-0.157745361328125;-1.00250244140625;0.03978735953569412;-0.0033249566331505775;-0.0014096111990511417
-0.010711669921875;-0.157745361328125;-1.00250244140625;0.03978735953569412;-0.0033249566331505775;-0.0014096111990511417
-0.010406494140625;-0.1574859619140625;-1.007110595703125;0.04129550978541374;-0.009912019595503807;0.0007768440991640091
-0.010406494140625;-0.1574859619140625;-1.007110595703125;0.04129550978541374;-0.009912019595503807;0.0007768440991640091
-0.010406494140625;-0.1574859619140625;-1.007110595703125;0.04129550978541374;-0.009912019595503807;0.0007768440991640091
-0.010406494140625;-0.1574859619140625;-1.007110595703125;0.04129550978541374;-0.009912019595503807;0.0007768440991640091
-0.010406494140625;-0.1574859619140625;-1.007110595703125;0.04129550978541374;-0.009912019595503807;0.0007768440991640091
-0.011932373046875;-0.1568145751953125;-1.0108795166015625;0.047744885087013245;-0.013368535786867142;-0.002900981344282627
-0.011932373046875;-0.1568145751953125;-1.0108795166015625;0.047744885087013245;-0.013368535786867142;-0.002900981344282627
-0.011932373046875;-0.1568145751953125;-1.0108795166015625;0.047744885087013245;-0.013368535786867142;-0.002900981344282627
-0.011932373046875;-0.1568145751953125;-1.0108795166015625;0.047744885087013245;-0.013368535786867142;-0.002900981344282627
-0.011932373046875;-0.1568145751953125;-1.0108795166015625;0.047744885087013245;-0.013368535786867142;-0.002900981344282627
-0.011932373046875;-0.1579132080078125;-1.0120849609375;0.05278891324996948;-0.01500984188169241;-6.364954606397077e-05
-0.011932373046875;-0.1579132080078125;-1.0120849609375;0.05278891324996948;-0.01500984188169241;-6.364954606397077e-05
-0.011932373046875;-0.1579132080078125;-1.0120849609375;0.05278891324996948;-0.01500984188169241;-6.364954606397077e-05
-0.011932373046875;-0.1579132080078125;-1.0120849609375;0.05278891324996948;-0.01500984188169241;-6.364954606397077e-05
-0.011932373046875;-0.1579132080078125;-1.0120849609375;0.05278891324996948;-0.01500984188169241;-6.364954606397077e-05
-0.01226806640625;-0.1574249267578125;-1.00970458984375;0.05512690171599388;-0.017375528812408447;0.0027624969370663166
-0.01226806640625;-0.1574249267578125;-1.00970458984375;0.05512690171599388;-0.017375528812408447;0.0027624969370663166
-0.01226806640625;-0.1574249267578125;-1.00970458984375;0.05512690171599388;-0.017375528812408447;0.0027624969370663166
-0.01226806640625;-0.1574249267578125;-1.00970458984375;0.05512690171599388;-0.017375528812408447;0.0027624969370663166
-0.01226806640625;-0.1574249267578125;-1.00970458984375;0.05512690171599388;-0.017375528812408447;0.0027624969370663166
-0.0127105712890625;-0.1563262939453125;-1.008514404296875;0.0551772341132164;-0.014604242518544197;0.0018072210950776935
-0.0127105712890625;-0.1563262939453125;-1.008514404296875;0.0551772341132164;-0.014604242518544197;0.0018072210950776935
-0.0127105712890625;-0.1563262939453125;-1.008514404296875;0.0551772341132164;-0.014604242518544197;0.0018072210950776935
-0.0127105712890625;-0.1563262939453125;-1.008514404296875;0.0551772341132164;-0.014604242518544197;0.0018072210950776935
-0.0127105712890625;-0.1563262939453125;-1.008514404296875;0.0551772341132164;-0.014604242518544197;0.0018072210950776935
-0.0121612548828125;-0.1570281982421875;-1.00653076171875;0.053764693439006805;-0.01173442043364048;0.004206995479762554
-0.0121612548828125;-0.1570281982421875;-1.00653076171875;0.053764693439006805;-0.01173442043364048;0.004206995479762554
-0.0121612548828125;-0.1570281982421875;-1.00653076171875;0.053764693439006805;-0.01173442043364048;0.004206995479762554
-0.0121612548828125;-0.1570281982421875;-1.00653076171875;0.053764693439006805;-0.01173442043364048;0.004206995479762554
-0.0121612548828125;-0.1570281982421875;-1.00653076171875;0.053764693439006805;-0.01173442043364048;0.004206995479762554
-0.012176513671875;-0.15631103515625;-1.005706787109375;0.05127357318997383;-0.005001150071620941;0.00404587434604764
-0.012176513671875;-0.15631103515625;-1.005706787109375;0.05127357318997383;-0.005001150071620941;0.00404587434604764
-0.012176513671875;-0.15631103515625;-1.005706787109375;0.05127357318997383;-0.005001150071620941;0.00404587434604764
-0.012176513671875;-0.15631103515625;-1.005706787109375;0.05127357318997383;-0.005001150071620941;0.00404587434604764
-0.012176513671875;-0.15631103515625;-1.005706787109375;0.04903678596019745;-0.0054424358531832695;0.0038152446504682302
-0.0125732421875;-0.155975341796875;-1.00299072265625;0.04903678596019745;-0.0054424358531832695;0.0038152446504682302
-0.0125732421875;-0.155975341796875;-1.00299072265625;0.04903678596019745;-0.0054424358531832695;0.0038152446504682302
-0.0125732421875;-0.155975341796875;-1.00299072265625;0.04903678596019745;-0.0054424358531832695;0.0038152446504682302
-0.0125732421875;-0.155975341796875;-1.00299072265625;0.04903678596019745;-0.0054424358531832695;0.0038152446504682302
-0.01226806640625;-0.1562042236328125;-1.002349853515625;0.04543166235089302;-0.0028929917607456446;0.00686163455247879
-0.01226806640625;-0.1562042236328125;-1.002349853515625;0.04543166235089302;-0.0028929917607456446;0.00686163455247879
-0.01226806640625;-0.1562042236328125;-1.002349853515625;0.04543166235089302;-0.0028929917607456446;0.00686163455247879
-0.01226806640625;-0.1562042236328125;-1.002349853515625;0.04543166235089302;-0.0028929917607456446;0.00686163455247879
-0.01226806640625;-0.1562042236328125;-1.002349853515625;0.04543166235089302;-0.0028929917607456446;0.00686163455247879
-0.01226806640625;-0.1562042236328125;-1.002349853515625;0.043782901018857956;-0.0027414578944444656;0.004394748248159885
-0.012237548828125;-0.15716552734375;-1.0018768310546875;0.043782901018857956;-0.0027414578944444656;0.004394748248159885
-0.012237548828125;-0.15716552734375;-1.0018768310546875;0.043782901018857956;-0.0027414578944444656;0.004394748248159885
-0.012237548828125;-0.15716552734375;-1.0018768310546875;0.043782901018857956;-0.0027414578944444656;0.004394748248159885
-0.012237548828125;-0.15716552734375;-1.0018768310546875;0.043782901018857956;-0.0027414578944444656;0.004394748248159885
-0.012237548828125;-0.15716552734375;-1.0018768310546875;0.043782901018857956;-0.0027414578944444656;0.004394748248159885
-0.01214599609375;-0.1578521728515625;-1.0013580322265625;0.04152720421552658;-0.003251719754189253;0.0030956584960222244
-0.01214599609375;-0.1578521728515625;-1.0013580322265625;0.04152720421552658;-0.003251719754189253;0.0030956584960222244
-0.01214599609375;-0.1578521728515625;-1.0013580322265625;0.04152720421552658;-0.003251719754189253;0.0030956584960222244
-0.01214599609375;-0.1578521728515625;-1.0013580322265625;0.04152720421552658;-0.003251719754189253;0.0030956584960222244
-0.012237548828125;-0.1588592529296875;-1.0015716552734375;0.04254719242453575;-0.00803395826369524;0.0009025452891364694
-0.012237548828125;-0.1588592529296875;-1.0015716552734375;0.04254719242453575;-0.00803395826369524;0.0009025452891364694
-0.012237548828125;-0.1588592529296875;-1.0015716552734375;0.04254719242453575;-0.00803395826369524;0.0009025452891364694
-0.012237548828125;-0.1588592529296875;-1.0015716552734375;0.04254719242453575;-0.00803395826369524;0.0009025452891364694
-0.012237548828125;-0.1588592529296875;-1.0015716552734375;0.04254719242453575;-0.00803395826369524;0.0009025452891364694
-0.0123443603515625;-0.1603546142578125;-1.0019683837890625;0.03614575415849686;-0.007229150738567114;-3.1158982892520726e-05
-0.0123443603515625;-0.1603546142578125;-1.0019683837890625;0.03614575415849686;-0.007229150738567114;-3.1158982892520726e-05
-0.0123443603515625;-0.1603546142578125;-1.0019683837890625;0.03614575415849686;-0.007229150738567114;-3.1158982892520726e-05
-0.0123443603515625;-0.1603546142578125;-1.0019683837890625;0.03614575415849686;-0.007229150738567114;-3.1158982892520726e-05
-0.0123443603515625;-0.1603546142578125;-1.0019683837890625;0.03614575415849686;-0.007229150738567114;-3.1158982892520726e-05
-0.0125885009765625;-0.1617889404296875;-1.001678466796875;0.033956367522478104;-0.011000453494489193;-0.003297259798273444
-0.0125885009765625;-0.1617889404296875;-1.001678466796875;0.033956367522478104;-0.011000453494489193;-0.003297259798273444
-0.0125885009765625;-0.1617889404296875;-1.001678466796875;0.033956367522478104;-0.011000453494489193;-0.003297259798273444
-0.0125885009765625;-0.1617889404296875;-1.001678466796875;0.033956367522478104;-0.011000453494489193;-0.003297259798273444
-0.0125885009765625;-0.1617889404296875;-1.001678466796875;0.033956367522478104;-0.011000453494489193;-0.003297259798273444
-0.0129852294921875;-0.1629486083984375;-1.0018310546875;0.030160564929246902;-0.01124972477555275;-0.0004689826746471226
-0.0129852294921875;-0.1629486083984375;-1.0018310546875;0.030160564929246902;-0.01124972477555275;-0.0004689826746471226
-0.0129852294921875;-0.1629486083984375;-1.0018310546875;0.030160564929246902;-0.01124972477555275;-0.0004689826746471226
-0.0129852294921875;-0.1629486083984375;-1.0018310546875;0.030160564929246902;-0.01124972477555275;-0.0004689826746471226
-0.0129852294921875;-0.1629486083984375;-1.0018310546875;0.030160564929246902;-0.01124972477555275;-0.0004689826746471226
-0.01348876953125;-0.1638946533203125;-1.0029144287109375;0.03364717587828636;-0.012344816699624062;-0.0038514635525643826
-0.01348876953125;-0.1638946533203125;-1.0029144287109375;0.03364717587828636;-0.012344816699624062;-0.0038514635525643826
-0.01348876953125;-0.1638946533203125;-1.0029144287109375;0.03364717587828636;-0.012344816699624062;-0.0038514635525643826
-0.01348876953125;-0.1638946533203125;-1.0029144287109375;0.03364717587828636;-0.012344816699624062;-0.0038514635525643826
-0.0135955810546875;-0.1645965576171875;-1.0033416748046875;0.0342426598072052;-0.01079512294381857;-0.0049643986858427525
-0.0135955810546875;-0.1645965576171875;-1.0033416748046875;0.0342426598072052;-0.01079512294381857;-0.0049643986858427525
-0.0135955810546875;-0.1645965576171875;-1.0033416748046875;0.0342426598072052;-0.01079512294381857;-0.0049643986858427525
-0.0135955810546875;-0.1645965576171875;-1.0033416748046875;0.0342426598072052;-0.01079512294381857;-0.0049643986858427525
-0.0135955810546875;-0.1645965576171875;-1.0033416748046875;0.0342426598072052;-0.01079512294381857;-0.0049643986858427525
-0.0139007568359375;-0.1641845703125;-1.0022125244140625;0.03712259978055954;-0.011604724451899529;-0.003582217963412404
-0.0139007568359375;-0.1641845703125;-1.0022125244140625;0.03712259978055954;-0.011604724451899529;-0.003582217963412404
-0.0139007568359375;-0.1641845703125;-1.0022125244140625;0.03712259978055954;-0.011604724451899529;-0.003582217963412404
-0.0139007568359375;-0.1641845703125;-1.0022125244140625;0.03712259978055954;-0.011604724451899529;-0.003582217963412404
-0.0139007568359375;-0.1641845703125;-1.0022125244140625;0.03712259978055954;-0.011604724451899529;-0.003582217963412404
-0.0133514404296875;-0.164459228515625;-1.0026702880859375;0.03718731552362442;-0.008470982313156128;-0.0033212280832231045
-0.0133514404296875;-0.164459228515625;-1.0026702880859375;0.03718731552362442;-0.008470982313156128;-0.0033212280832231045
-0.0133514404296875;-0.164459228515625;-1.0026702880859375;0.03718731552362442;-0.008470982313156128;-0.0033212280832231045
-0.0133514404296875;-0.164459228515625;-1.0026702880859375;0.03718731552362442;-0.008470982313156128;-0.0033212280832231045
-0.0133514404296875;-0.164459228515625;-1.0026702880859375;0.03718731552362442;-0.008470982313156128;-0.0033212280832231045
-0.014251708984375;-0.1641693115234375;-1.002471923828125;0.03772873803973198;-0.005459479987621307;-0.0036599822342395782
-0.014251708984375;-0.1641693115234375;-1.002471923828125;0.03772873803973198;-0.005459479987621307;-0.0036599822342395782
-0.014251708984375;-0.1641693115234375;-1.002471923828125;0.03772873803973198;-0.005459479987621307;-0.0036599822342395782
-0.014251708984375;-0.1641693115234375;-1.002471923828125;0.03772873803973198;-0.005459479987621307;-0.0036599822342395782
-0.014251708984375;-0.1641693115234375;-1.002471923828125;0.03772873803973198;-0.005459479987621307;-0.0036599822342395782
-0.01470947265625;-0.1640777587890625;-1.0038299560546875;0.04080868139863014;-0.010553840547800064;-0.0023462448734790087
-0.01470947265625;-0.1640777587890625;-1.0038299560546875;0.04080868139863014;-0.010553840547800064;-0.0023462448734790087
-0.01470947265625;-0.1640777587890625;-1.0038299560546875;0.04080868139863014;-0.010553840547800064;-0.0023462448734790087
-0.01470947265625;-0.1640777587890625;-1.0038299560546875;0.04080868139863014;-0.010553840547800064;-0.0023462448734790087
-0.01470947265625;-0.1640777587890625;-1.0038299560546875;0.04080868139863014;-0.010553840547800064;-0.0023462448734790087
-0.0151214599609375;-0.1640777587890625;-1.00537109375;0.040290962904691696;-0.011216435581445694;-0.001130778226070106
-0.0151214599609375;-0.1640777587890625;-1.00537109375;0.040290962904691696;-0.011216435581445694;-0.001130778226070106
-0.0151214599609375;-0.1640777587890625;-1.00537109375;0.040290962904691696;-0.011216435581445694;-0.001130778226070106
-0.0151214599609375;-0.1640777587890625;-1.00537109375;0.040290962904691696;-0.011216435581445694;-0.001130778226070106
-0.0151214599609375;-0.1640777587890625;-1.00537109375;0.040290962904691696;-0.011216435581445694;-0.001130778226070106
-0.0157928466796875;-0.1643524169921875;-1.0040130615234375;0.04193546622991562;-0.009563944302499294;0.0004340952436905354
-0.0157928466796875;-0.1643524169921875;-1.0040130615234375;0.04193546622991562;-0.009563944302499294;0.0004340952436905354
-0.0157928466796875;-0.1643524169921875;-1.0040130615234375;0.04193546622991562;-0.009563944302499294;0.0004340952436905354
-0.0157928466796875;-0.1643524169921875;-1.0040130615234375;0.04193546622991562;-0.009563944302499294;0.0004340952436905354
-0.0157928466796875;-0.1643524169921875;-1.0040130615234375;0.04193546622991562;-0.009563944302499294;0.0004340952436905354
-0.0164794921875;-0.16351318359375;-1.003570556640625;0.03870745003223419;-0.006892260629683733;0.0018469021888449788
-0.0164794921875;-0.16351318359375;-1.003570556640625;0.03870745003223419;-0.006892260629683733;0.0018469021888449788
-0.0164794921875;-0.16351318359375;-1.003570556640625;0.03870745003223419;-0.006892260629683733;0.0018469021888449788
-0.0164794921875;-0.16351318359375;-1.003570556640625;0.03870745003223419;-0.006892260629683733;0.0018469021888449788
-0.0164794921875;-0.16351318359375;-1.003570556640625;0.03870745003223419;-0.006892260629683733;0.0018469021888449788
-0.0159149169921875;-0.16473388671875;-1.0012359619140625;0.03935246542096138;-0.0025188177824020386;0.00039228363311849535
-0.0159149169921875;-0.16473388671875;-1.0012359619140625;0.03935246542096138;-0.0025188177824020386;0.00039228363311849535
-0.0159149169921875;-0.16473388671875;-1.0012359619140625;0.03935246542096138;-0.0025188177824020386;0.00039228363311849535
-0.0159149169921875;-0.16473388671875;-1.0012359619140625;0.03935246542096138;-0.0025188177824020386;0.00039228363311849535
-0.0159149169921875;-0.16473388671875;-1.0012359619140625;0.03935246542096138;-0.0025188177824020386;0.00039228363311849535
-0.015380859375;-0.1645355224609375;-0.9994964599609375;0.037454430013895035;-0.002088717184960842;0.003578489413484931
-0.015380859375;-0.1645355224609375;-0.9994964599609375;0.037454430013895035;-0.002088717184960842;0.003578489413484931
-0.015380859375;-0.1645355224609375;-0.9994964599609375;0.037454430013895035;-0.002088717184960842;0.003578489413484931
-0.015380859375;-0.1645355224609375;-0.9994964599609375;0.037454430013895035;-0.002088717184960842;0.003578489413484931
-0.015380859375;-0.1645355224609375;-0.9994964599609375;0.037454430013895035;-0.002088717184960842;0.003578489413484931
-0.0144500732421875;-0.165557861328125;-0.998504638671875;0.033735327422618866;0.009090433828532696;0.004822718445211649
-0.0144500732421875;-0.165557861328125;-0.998504638671875;0.033735327422618866;0.009090433828532696;0.004822718445211649
-0.0144500732421875;-0.165557861328125;-0.998504638671875;0.033735327422618866;0.009090433828532696;0.004822718445211649
-0.0144500732421875;-0.165557861328125;-0.998504638671875;0.033735327422618866;0.009090433828532696;0.004822718445211649
-0.0144500732421875;-0.165557861328125;-0.998504638671875;0.033735327422618866;0.009090433828532696;0.004822718445211649
-0.013763427734375;-0.165008544921875;-0.9993896484375;0.03350256755948067;0.004009655211120844;0.0070278155617415905
-0.013763427734375;-0.165008544921875;-0.9993896484375;0.03350256755948067;0.004009655211120844;0.0070278155617415905
-0.013763427734375;-0.165008544921875;-0.9993896484375;0.03350256755948067;0.004009655211120844;0.0070278155617415905
-0.013763427734375;-0.165008544921875;-0.9993896484375;0.03350256755948067;0.004009655211120844;0.0070278155617415905
-0.013763427734375;-0.165008544921875;-0.9993896484375;0.03350256755948067;0.004009655211120844;0.0070278155617415905
-0.0134124755859375;-0.1646270751953125;-1.003997802734375;0.03930133208632469;0.00042743736412376165;0.005794506054371595
-0.0134124755859375;-0.1646270751953125;-1.003997802734375;0.03930133208632469;0.00042743736412376165;0.005794506054371595
-0.0134124755859375;-0.1646270751953125;-1.003997802734375;0.03930133208632469;0.00042743736412376165;0.005794506054371595
-0.0134124755859375;-0.1646270751953125;-1.003997802734375;0.03930133208632469;0.00042743736412376165;0.005794506054371595
-0.0134124755859375;-0.1646270751953125;-1.003997802734375;0.03930133208632469;0.00042743736412376165;0.005794506054371595
-0.0123748779296875;-0.1658935546875;-1.0071563720703125;0.04433603957295418;-0.008332232013344765;0.003953462466597557
-0.0123748779296875;-0.1658935546875;-1.0071563720703125;0.04433603957295418;-0.008332232013344765;0.003953462466597557
-0.0123748779296875;-0.1658935546875;-1.0071563720703125;0.04433603957295418;-0.008332232013344765;0.003953462466597557
-0.0123748779296875;-0.1658935546875;-1.0071563720703125;0.04433603957295418;-0.008332232013344765;0.003953462466597557
-0.0123748779296875;-0.1658935546875;-1.0071563720703125;0.04433603957295418;-0.008332232013344765;0.003953462466597557
-0.0127410888671875;-0.1658782958984375;-1.0085296630859375;0.05234096944332123;-0.01085877325385809;0.003992611076682806
-0.0127410888671875;-0.1658782958984375;-1.0085296630859375;0.05234096944332123;-0.01085877325385809;0.003992611076682806
-0.0127410888671875;-0.1658782958984375;-1.0085296630859375;0.05234096944332123;-0.01085877325385809;0.003992611076682806
-0.0127410888671875;-0.1658782958984375;-1.0085296630859375;0.05234096944332123;-0.01085877325385809;0.003992611076682806
-0.0127410888671875;-0.1658782958984375;-1.0085296630859375;0.05234096944332123;-0.01085877325385809;0.003992611076682806
-0.0140533447265625;-0.1670074462890625;-1.008392333984375;0.05422089248895645;-0.011230017989873886;0.004810467828065157
-0.0140533447265625;-0.1670074462890625;-1.008392333984375;0.05422089248895645;-0.011230017989873886;0.004810467828065157
-0.0140533447265625;-0.1670074462890625;-1.008392333984375;0.05422089248895645;-0.011230017989873886;0.004810467828065157
-0.0140533447265625;-0.1670074462890625;-1.008392333984375;0.05422089248895645;-0.011230017989873886;0.004810467828065157
-0.0140533447265625;-0.1670074462890625;-1.008392333984375;0.05422089248895645;-0.011230017989873886;0.004810467828065157
-0.0142669677734375;-0.169708251953125;-1.0072784423828125;0.052685849368572235;-0.007484547793865204;0.006234460044652224
-0.0142669677734375;-0.169708251953125;-1.0072784423828125;0.052685849368572235;-0.007484547793865204;0.006234460044652224
-0.0142669677734375;-0.169708251953125;-1.0072784423828125;0.052685849368572235;-0.007484547793865204;0.006234460044652224
-0.0142669677734375;-0.169708251953125;-1.0072784423828125;0.052685849368572235;-0.007484547793865204;0.006234460044652224
-0.0142669677734375;-0.169708251953125;-1.0072784423828125;0.052685849368572235;-0.007484547793865204;0.006234460044652224
-0.0137786865234375;-0.1711883544921875;-1.003997802734375;0.05103015899658203;-0.004969724919646978;0.007182811852544546
-0.0137786865234375;-0.1711883544921875;-1.003997802734375;0.05103015899658203;-0.004969724919646978;0.007182811852544546
-0.0137786865234375;-0.1711883544921875;-1.003997802734375;0.05103015899658203;-0.004969724919646978;0.007182811852544546
-0.0137786865234375;-0.1711883544921875;-1.003997802734375;0.05103015899658203;-0.004969724919646978;0.007182811852544546
-0.0137786865234375;-0.1711883544921875;-1.003997802734375;0.05103015899658203;-0.004969724919646978;0.007182811852544546
-0.014892578125;-0.17144775390625;-1.001922607421875;0.04412085562944412;-0.010882475413382053;0.004026699345558882
-0.014892578125;-0.17144775390625;-1.001922607421875;0.04412085562944412;-0.010882475413382053;0.004026699345558882
-0.014892578125;-0.17144775390625;-1.001922607421875;0.04412085562944412;-0.010882475413382053;0.004026699345558882
-0.014892578125;-0.17144775390625;-1.001922607421875;0.04412085562944412;-0.010882475413382053;0.004026699345558882
-0.014892578125;-0.17144775390625;-1.001922607421875;0.04412085562944412;-0.010882475413382053;0.004026699345558882
-0.014404296875;-0.1727752685546875;-0.9989166259765625;0.040288299322128296;-0.008579373359680176;0.003946272190660238
-0.014404296875;-0.1727752685546875;-0.9989166259765625;0.040288299322128296;-0.008579373359680176;0.003946272190660238
-0.014404296875;-0.1727752685546875;-0.9989166259765625;0.040288299322128296;-0.008579373359680176;0.003946272190660238
-0.014404296875;-0.1727752685546875;-0.9989166259765625;0.040288299322128296;-0.008579373359680176;0.003946272190660238
-0.014404296875;-0.1727752685546875;-0.9989166259765625;0.040288299322128296;-0.008579373359680176;0.003946272190660238
-0.0145721435546875;-0.1725616455078125;-0.9960174560546875;0.03002980351448059;-0.004536961205303669;0.0012815131340175867
-0.0145721435546875;-0.1725616455078125;-0.9960174560546875;0.03002980351448059;-0.004536961205303669;0.0012815131340175867
-0.0145721435546875;-0.1725616455078125;-0.9960174560546875;0.03002980351448059;-0.004536961205303669;0.0012815131340175867
-0.0145721435546875;-0.1725616455078125;-0.9960174560546875;0.03002980351448059;-0.004536961205303669;0.0012815131340175867
-0.0145721435546875;-0.1725616455078125;-0.9960174560546875;0.03002980351448059;-0.004536961205303669;0.0012815131340175867
-0.0146331787109375;-0.1714019775390625;-0.99530029296875;0.02226162888109684;0.004782504867762327;0.00035739620216190815
-0.0146331787109375;-0.1714019775390625;-0.99530029296875;0.02226162888109684;0.004782504867762327;0.00035739620216190815
-0.0146331787109375;-0.1714019775390625;-0.99530029296875;0.02226162888109684;0.004782504867762327;0.00035739620216190815
-0.0146331787109375;-0.1714019775390625;-0.99530029296875;0.02226162888109684;0.004782504867762327;0.00035739620216190815
-0.0146331787109375;-0.1714019775390625;-0.99530029296875;0.02226162888109684;0.004782504867762327;0.00035739620216190815
-0.014312744140625;-0.171905517578125;-0.999267578125;0.022945262491703033;-0.002216815249994397;0.0017062872648239136
-0.014312744140625;-0.171905517578125;-0.999267578125;0.022945262491703033;-0.002216815249994397;0.0017062872648239136
-0.014312744140625;-0.171905517578125;-0.999267578125;0.022945262491703033;-0.002216815249994397;0.0017062872648239136
-0.014312744140625;-0.171905517578125;-0.999267578125;0.022945262491703033;-0.002216815249994397;0.0017062872648239136
-0.014312744140625;-0.171905517578125;-0.999267578125;0.022945262491703033;-0.002216815249994397;0.0017062872648239136
-0.014495849609375;-0.1690673828125;-1.008087158203125;0.031013576313853264;-0.014281733892858028;-0.0015699334908276796
-0.014495849609375;-0.1690673828125;-1.008087158203125;0.031013576313853264;-0.014281733892858028;-0.0015699334908276796
-0.014495849609375;-0.1690673828125;-1.008087158203125;0.031013576313853264;-0.014281733892858028;-0.0015699334908276796
-0.014495849609375;-0.1690673828125;-1.008087158203125;0.031013576313853264;-0.014281733892858028;-0.0015699334908276796
-0.014495849609375;-0.1690673828125;-1.008087158203125;0.031013576313853264;-0.014281733892858028;-0.0015699334908276796
-0.0153045654296875;-0.167449951171875;-1.0133819580078125;0.039632897824048996;-0.03273024782538414;-0.004464523401111364
-0.0153045654296875;-0.167449951171875;-1.0133819580078125;0.039632897824048996;-0.03273024782538414;-0.004464523401111364
-0.0153045654296875;-0.167449951171875;-1.0133819580078125;0.039632897824048996;-0.03273024782538414;-0.004464523401111364
-0.0153045654296875;-0.167449951171875;-1.0133819580078125;0.039632897824048996;-0.03273024782538414;-0.004464523401111364
-0.0153045654296875;-0.167449951171875;-1.0133819580078125;0.039632897824048996;-0.03273024782538414;-0.004464523401111364
-0.014556884765625;-0.1686859130859375;-1.0095062255859375;0.03966139256954193;-0.040232639759778976;-0.0010423612548038363
-0.014556884765625;-0.1686859130859375;-1.0095062255859375;0.03966139256954193;-0.040232639759778976;-0.0010423612548038363
-0.014556884765625;-0.1686859130859375;-1.0095062255859375;0.03966139256954193;-0.040232639759778976;-0.0010423612548038363
-0.014556884765625;-0.1686859130859375;-1.0095062255859375;0.03966139256954193;-0.040232639759778976;-0.0010423612548038363
-0.014556884765625;-0.1686859130859375;-1.0095062255859375;0.03966139256954193;-0.040232639759778976;-0.0010423612548038363
-0.0157470703125;-0.1702423095703125;-1.0009765625;0.034936945885419846;-0.032162196934223175;0.0032892702147364616
-0.0157470703125;-0.1702423095703125;-1.0009765625;0.034936945885419846;-0.032162196934223175;0.0032892702147364616
-0.0157470703125;-0.1702423095703125;-1.0009765625;0.034936945885419846;-0.032162196934223175;0.0032892702147364616
-0.0157470703125;-0.1702423095703125;-1.0009765625;0.034936945885419846;-0.032162196934223175;0.0032892702147364616
-0.0157470703125;-0.1702423095703125;-1.0009765625;0.034936945885419846;-0.032162196934223175;0.0032892702147364616
-0.01708984375;-0.1710357666015625;-0.992645263671875;0.03326261416077614;-0.014150173403322697;0.0018618159228935838
-0.01708984375;-0.1710357666015625;-0.992645263671875;0.03326261416077614;-0.014150173403322697;0.0018618159228935838
-0.01708984375;-0.1710357666015625;-0.992645263671875;0.03326261416077614;-0.014150173403322697;0.0018618159228935838
-0.01708984375;-0.1710357666015625;-0.992645263671875;0.03326261416077614;-0.014150173403322697;0.0018618159228935838
-0.01708984375;-0.1710357666015625;-0.992645263671875;0.03326261416077614;-0.014150173403322697;0.0018618159228935838
-0.0176849365234375;-0.1718597412109375;-0.9903411865234375;0.02846892550587654;0.005813946947455406;0.004848018288612366
-0.0176849365234375;-0.1718597412109375;-0.9903411865234375;0.02846892550587654;0.005813946947455406;0.004848018288612366
-0.0176849365234375;-0.1718597412109375;-0.9903411865234375;0.02846892550587654;0.005813946947455406;0.004848018288612366
-0.0176849365234375;-0.1718597412109375;-0.9903411865234375;0.02846892550587654;0.005813946947455406;0.004848018288612366
-0.0176849365234375;-0.1718597412109375;-0.9903411865234375;0.02846892550587654;0.005813946947455406;0.004848018288612366
-0.0174560546875;-0.1732025146484375;-0.9935455322265625;0.025353560224175453;0.017556089907884598;0.00549170421436429
-0.0174560546875;-0.1732025146484375;-0.9935455322265625;0.025353560224175453;0.017556089907884598;0.00549170421436429
-0.0174560546875;-0.1732025146484375;-0.9935455322265625;0.025353560224175453;0.017556089907884598;0.00549170421436429
-0.0174560546875;-0.1732025146484375;-0.9935455322265625;0.025353560224175453;0.017556089907884598;0.00549170421436429
-0.0174560546875;-0.1732025146484375;-0.9935455322265625;0.021998776122927666;0.02996908500790596;0.0054823835380375385
-0.01580810546875;-0.1713714599609375;-0.9949188232421875;0.021998776122927666;0.02996908500790596;0.0054823835380375385
-0.01580810546875;-0.1713714599609375;-0.9949188232421875;0.021998776122927666;0.02996908500790596;0.0054823835380375385
-0.01580810546875;-0.1713714599609375;-0.9949188232421875;0.021998776122927666;0.02996908500790596;0.0054823835380375385
-0.01580810546875;-0.1713714599609375;-0.9949188232421875;0.021998776122927666;0.02996908500790596;0.0054823835380375385
-0.01580810546875;-0.1713714599609375;-0.9949188232421875;0.02304965816438198;0.030886011198163033;0.007361243478953838
-0.011810302734375;-0.1712188720703125;-0.9975738525390625;0.02304965816438198;0.030886011198163033;0.007361243478953838
-0.011810302734375;-0.1712188720703125;-0.9975738525390625;0.02304965816438198;0.030886011198163033;0.007361243478953838
-0.011810302734375;-0.1712188720703125;-0.9975738525390625;0.02304965816438198;0.030886011198163033;0.007361243478953838
-0.011810302734375;-0.1712188720703125;-0.9975738525390625;0.02304965816438198;0.030886011198163033;0.007361243478953838
-0.011810302734375;-0.1712188720703125;-0.9975738525390625;0.030302245169878006;0.031434621661901474;0.008684834465384483
-0.0093841552734375;-0.173980712890625;-1.0025787353515625;0.030302245169878006;0.031434621661901474;0.008684834465384483
-0.0093841552734375;-0.173980712890625;-1.0025787353515625;0.030302245169878006;0.031434621661901474;0.008684834465384483
-0.0093841552734375;-0.173980712890625;-1.0025787353515625;0.030302245169878006;0.031434621661901474;0.008684834465384483
-0.0093841552734375;-0.173980712890625;-1.0025787353515625;0.030302245169878006;0.031434621661901474;0.008684834465384483
-0.0080718994140625;-0.1763763427734375;-1.0069580078125;0.04320472851395607;0.02617541141808033;0.006616623606532812
-0.0080718994140625;-0.1763763427734375;-1.0069580078125;0.04320472851395607;0.02617541141808033;0.006616623606532812
-0.0080718994140625;-0.1763763427734375;-1.0069580078125;0.04320472851395607;0.02617541141808033;0.006616623606532812
-0.0080718994140625;-0.1763763427734375;-1.0069580078125;0.04320472851395607;0.02617541141808033;0.006616623606532812
-0.0080718994140625;-0.1763763427734375;-1.0069580078125;0.04320472851395607;0.02617541141808033;0.006616623606532812
-0.0080718994140625;-0.1763763427734375;-1.0069580078125;0.05138862133026123;0.011932559311389923;0.007947404868900776
-0.008087158203125;-0.1768951416015625;-1.0102081298828125;0.05138862133026123;0.011932559311389923;0.007947404868900776
-0.008087158203125;-0.1768951416015625;-1.0102081298828125;0.05138862133026123;0.011932559311389923;0.007947404868900776
-0.008087158203125;-0.1768951416015625;-1.0102081298828125;0.05138862133026123;0.011932559311389923;0.007947404868900776
-0.008087158203125;-0.1768951416015625;-1.0102081298828125;0.05138862133026123;0.011932559311389923;0.007947404868900776
-0.0103607177734375;-0.1776885986328125;-1.0113983154296875;0.05507150664925575;-0.001969940261915326;0.002743055811151862
-0.0103607177734375;-0.1776885986328125;-1.0113983154296875;0.05507150664925575;-0.001969940261915326;0.002743055811151862
-0.0103607177734375;-0.1776885986328125;-1.0113983154296875;0.05507150664925575;-0.001969940261915326;0.002743055811151862
-0.0103607177734375;-0.1776885986328125;-1.0113983154296875;0.05507150664925575;-0.001969940261915326;0.002743055811151862
-0.0103607177734375;-0.1776885986328125;-1.0113983154296875;0.05507150664925575;-0.001969940261915326;0.002743055811151862
-0.0127105712890625;-0.1775360107421875;-1.0088348388671875;0.057609498500823975;-0.01356507744640112;0.0014919028617441654
-0.0127105712890625;-0.1775360107421875;-1.0088348388671875;0.057609498500823975;-0.01356507744640112;0.0014919028617441654
-0.0127105712890625;-0.1775360107421875;-1.0088348388671875;0.057609498500823975;-0.01356507744640112;0.0014919028617441654
-0.0127105712890625;-0.1775360107421875;-1.0088348388671875;0.057609498500823975;-0.01356507744640112;0.0014919028617441654
-0.0127105712890625;-0.1775360107421875;-1.0088348388671875;0.057609498500823975;-0.01356507744640112;0.0014919028617441654
-0.01458740234375;-0.1784820556640625;-1.0080108642578125;0.05914641171693802;-0.016201872378587723;0.0013976269401609898
-0.01458740234375;-0.1784820556640625;-1.0080108642578125;0.05914641171693802;-0.016201872378587723;0.0013976269401609898
-0.01458740234375;-0.1784820556640625;-1.0080108642578125;0.05914641171693802;-0.016201872378587723;0.0013976269401609898
-0.01458740234375;-0.1784820556640625;-1.0080108642578125;0.05914641171693802;-0.016201872378587723;0.0013976269401609898
-0.01458740234375;-0.1784820556640625;-1.0080108642578125;0.05914641171693802;-0.016201872378587723;0.0013976269401609898
-0.0154571533203125;-0.1786956787109375;-1.00579833984375;0.054724764078855515;-0.019999008625745773;0.0008767126128077507
-0.0154571533203125;-0.1786956787109375;-1.00579833984375;0.054724764078855515;-0.019999008625745773;0.0008767126128077507
-0.0154571533203125;-0.1786956787109375;-1.00579833984375;0.054724764078855515;-0.019999008625745773;0.0008767126128077507
-0.0154571533203125;-0.1786956787109375;-1.00579833984375;0.054724764078855515;-0.019999008625745773;0.0008767126128077507
-0.0154571533203125;-0.1786956787109375;-1.00579833984375;0.054724764078855515;-0.019999008625745773;0.0008767126128077507
-0.0159912109375;-0.17901611328125;-1.0020751953125;0.054069627076387405;-0.014611699618399143;-0.0017185378819704056
-0.0159912109375;-0.17901611328125;-1.0020751953125;0.054069627076387405;-0.014611699618399143;-0.0017185378819704056
-0.0159912109375;-0.17901611328125;-1.0020751953125;0.054069627076387405;-0.014611699618399143;-0.0017185378819704056
-0.0159912109375;-0.17901611328125;-1.0020751953125;0.054069627076387405;-0.014611699618399143;-0.0017185378819704056
-0.0159912109375;-0.17901611328125;-1.0020751953125;0.054069627076387405;-0.014611699618399143;-0.0017185378819704056
-0.015594482421875;-0.17913818359375;-1.001007080078125;0.04242761805653572;-0.009818541817367077;0.0018748653819784522
-0.015594482421875;-0.17913818359375;-1.001007080078125;0.04242761805653572;-0.009818541817367077;0.0018748653819784522
-0.015594482421875;-0.17913818359375;-1.001007080078125;0.04242761805653572;-0.009818541817367077;0.0018748653819784522
-0.015594482421875;-0.17913818359375;-1.001007080078125;0.04242761805653572;-0.009818541817367077;0.0018748653819784522
-0.015594482421875;-0.17913818359375;-1.001007080078125;0.04242761805653572;-0.009818541817367077;0.0018748653819784522
-0.0145416259765625;-0.1790008544921875;-0.9998321533203125;0.03845231607556343;-0.00836632028222084;0.005453621037304401
-0.0145416259765625;-0.1790008544921875;-0.9998321533203125;0.03845231607556343;-0.00836632028222084;0.005453621037304401
-0.0145416259765625;-0.1790008544921875;-0.9998321533203125;0.03845231607556343;-0.00836632028222084;0.005453621037304401
-0.0145416259765625;-0.1790008544921875;-0.9998321533203125;0.03845231607556343;-0.00836632028222084;0.005453621037304401
-0.0145416259765625;-0.1790008544921875;-0.9998321533203125;0.03845231607556343;-0.00836632028222084;0.005453621037304401
-0.0138397216796875;-0.1767578125;-0.999237060546875;0.0282894279807806;-0.0019062906503677368;0.006355633959174156
-0.0138397216796875;-0.1767578125;-0.999237060546875;0.0282894279807806;-0.0019062906503677368;0.006355633959174156
-0.0138397216796875;-0.1767578125;-0.999237060546875;0.0282894279807806;-0.0019062906503677368;0.006355633959174156
-0.0138397216796875;-0.1767578125;-0.999237060546875;0.0282894279807806;-0.0019062906503677368;0.006355633959174156
-0.0138397216796875;-0.1767578125;-0.999237060546875;0.0282894279807806;-0.0019062906503677368;0.006355633959174156
-0.013336181640625;-0.176788330078125;-0.99835205078125;0.023991618305444717;-0.003853327827528119;0.008419849909842014
-0.013336181640625;-0.176788330078125;-0.99835205078125;0.023991618305444717;-0.003853327827528119;0.008419849909842014
-0.013336181640625;-0.176788330078125;-0.99835205078125;0.023991618305444717;-0.003853327827528119;0.008419849909842014
-0.013336181640625;-0.176788330078125;-0.99835205078125;0.023991618305444717;-0.003853327827528119;0.008419849909842014
-0.013336181640625;-0.176788330078125;-0.99835205078125;0.023991618305444717;-0.003853327827528119;0.008419849909842014
-0.01324462890625;-0.1775360107421875;-0.99884033203125;0.021623536944389343;-0.004054130055010319;0.007499994244426489
-0.01324462890625;-0.1775360107421875;-0.99884033203125;0.021623536944389343;-0.004054130055010319;0.007499994244426489
-0.01324462890625;-0.1775360107421875;-0.99884033203125;0.021623536944389343;-0.004054130055010319;0.007499994244426489
-0.01324462890625;-0.1775360107421875;-0.99884033203125;0.021623536944389343;-0.004054130055010319;0.007499994244426489
-0.01324462890625;-0.1775360107421875;-0.99884033203125;0.021623536944389343;-0.004054130055010319;0.007499994244426489
-0.0145416259765625;-0.1786956787109375;-1.0004425048828125;0.024656610563397408;-0.009377788752317429;0.004985437728464603
-0.0145416259765625;-0.1786956787109375;-1.0004425048828125;0.024656610563397408;-0.009377788752317429;0.004985437728464603
-0.0145416259765625;-0.1786956787109375;-1.0004425048828125;0.024656610563397408;-0.009377788752317429;0.004985437728464603
-0.0145416259765625;-0.1786956787109375;-1.0004425048828125;0.024656610563397408;-0.009377788752317429;0.004985437728464603
-0.0145416259765625;-0.1786956787109375;-1.0004425048828125;0.024656610563397408;-0.009377788752317429;0.004985437728464603
-0.0156097412109375;-0.178436279296875;-1.0007781982421875;0.027829499915242195;-0.0076209018006920815;0.004206196404993534
-0.0156097412109375;-0.178436279296875;-1.0007781982421875;0.027829499915242195;-0.0076209018006920815;0.004206196404993534
-0.0156097412109375;-0.178436279296875;-1.0007781982421875;0.027829499915242195;-0.0076209018006920815;0.004206196404993534
-0.0156097412109375;-0.178436279296875;-1.0007781982421875;0.027829499915242195;-0.0076209018006920815;0.004206196404993534
-0.0156097412109375;-0.178436279296875;-1.0007781982421875;0.027829499915242195;-0.0076209018006920815;0.004206196404993534
-0.0165863037109375;-0.1786651611328125;-1.0022735595703125;0.03225567564368248;-0.015117700211703777;0.0038125813007354736
-0.0165863037109375;-0.1786651611328125;-1.0022735595703125;0.03225567564368248;-0.015117700211703777;0.0038125813007354736
-0.0165863037109375;-0.1786651611328125;-1.0022735595703125;0.03225567564368248;-0.015117700211703777;0.0038125813007354736
-0.0165863037109375;-0.1786651611328125;-1.0022735595703125;0.03225567564368248;-0.015117700211703777;0.0038125813007354736
-0.0165863037109375;-0.1786651611328125;-1.0022735595703125;0.03225567564368248;-0.015117700211703777;0.0038125813007354736
-0.0167236328125;-0.1804962158203125;-1.004058837890625;0.04107792675495148;-0.013826599344611168;-0.0006002765148878098
-0.0167236328125;-0.1804962158203125;-1.004058837890625;0.04107792675495148;-0.013826599344611168;-0.0006002765148878098
-0.0167236328125;-0.1804962158203125;-1.004058837890625;0.04107792675495148;-0.013826599344611168;-0.0006002765148878098
-0.0167236328125;-0.1804962158203125;-1.004058837890625;0.04107792675495148;-0.013826599344611168;-0.0006002765148878098
-0.0167236328125;-0.1804962158203125;-1.004058837890625;0.04107792675495148;-0.013826599344611168;-0.0006002765148878098
-0.0167083740234375;-0.182037353515625;-1.0031280517578125;0.042816970497369766;-0.011590875685214996;0.002229065867140889
-0.0167083740234375;-0.182037353515625;-1.0031280517578125;0.042816970497369766;-0.011590875685214996;0.002229065867140889
-0.0167083740234375;-0.182037353515625;-1.0031280517578125;0.042816970497369766;-0.011590875685214996;0.002229065867140889
-0.0167083740234375;-0.182037353515625;-1.0031280517578125;0.042816970497369766;-0.011590875685214996;0.002229065867140889
-0.0167083740234375;-0.182037353515625;-1.0031280517578125;0.042816970497369766;-0.011590875685214996;0.002229065867140889
-0.016876220703125;-0.1833648681640625;-1.0021514892578125;0.04781812056899071;-0.005331115797162056;0.003049053018912673
-0.016876220703125;-0.1833648681640625;-1.0021514892578125;0.04781812056899071;-0.005331115797162056;0.003049053018912673
-0.016876220703125;-0.1833648681640625;-1.0021514892578125;0.04781812056899071;-0.005331115797162056;0.003049053018912673
-0.016876220703125;-0.1833648681640625;-1.0021514892578125;0.04781812056899071;-0.005331115797162056;0.003049053018912673
-0.016876220703125;-0.1833648681640625;-1.0021514892578125;0.04781812056899071;-0.005331115797162056;0.003049053018912673
-0.0162200927734375;-0.1850738525390625;-0.999725341796875;0.04351392015814781;-0.0056890444830060005;0.002126534003764391
-0.0162200927734375;-0.1850738525390625;-0.999725341796875;0.04351392015814781;-0.0056890444830060005;0.002126534003764391
-0.0162200927734375;-0.1850738525390625;-0.999725341796875;0.04351392015814781;-0.0056890444830060005;0.002126534003764391
-0.0162200927734375;-0.1850738525390625;-0.999725341796875;0.04351392015814781;-0.0056890444830060005;0.002126534003764391
-0.0162200927734375;-0.1850738525390625;-0.999725341796875;0.04351392015814781;-0.0056890444830060005;0.002126534003764391
-0.0165863037109375;-0.183929443359375;-0.999908447265625;0.04259220138192177;-0.01318158209323883;0.00047377636656165123
-0.0165863037109375;-0.183929443359375;-0.999908447265625;0.04259220138192177;-0.01318158209323883;0.00047377636656165123
-0.0165863037109375;-0.183929443359375;-0.999908447265625;0.04259220138192177;-0.01318158209323883;0.00047377636656165123
-0.0165863037109375;-0.183929443359375;-0.999908447265625;0.04259220138192177;-0.01318158209323883;0.00047377636656165123
-0.0165863037109375;-0.183929443359375;-0.999908447265625;0.04259220138192177;-0.01318158209323883;0.00047377636656165123
-0.01617431640625;-0.1824951171875;-1.0008697509765625;0.043656665831804276;-0.013830328360199928;0.0007062703371047974
-0.01617431640625;-0.1824951171875;-1.0008697509765625;0.043656665831804276;-0.013830328360199928;0.0007062703371047974
-0.01617431640625;-0.1824951171875;-1.0008697509765625;0.043656665831804276;-0.013830328360199928;0.0007062703371047974
-0.01617431640625;-0.1824951171875;-1.0008697509765625;0.043656665831804276;-0.013830328360199928;0.0007062703371047974
-0.01617431640625;-0.1824951171875;-1.0008697509765625;0.043656665831804276;-0.013830328360199928;0.0007062703371047974
-0.015594482421875;-0.1833038330078125;-0.999969482421875;0.041192710399627686;-0.007389472797513008;0.0023342606145888567
-0.015594482421875;-0.1833038330078125;-0.999969482421875;0.041192710399627686;-0.007389472797513008;0.0023342606145888567
-0.015594482421875;-0.1833038330078125;-0.999969482421875;0.041192710399627686;-0.007389472797513008;0.0023342606145888567
-0.015594482421875;-0.1833038330078125;-0.999969482421875;0.041192710399627686;-0.007389472797513008;0.0023342606145888567
-0.015594482421875;-0.1833038330078125;-0.999969482421875;0.041192710399627686;-0.007389472797513008;0.0023342606145888567
-0.0162506103515625;-0.184478759765625;-0.996612548828125;0.03526104986667633;0.004457599017769098;0.003388606244698167
-0.0162506103515625;-0.184478759765625;-0.996612548828125;0.03526104986667633;0.004457599017769098;0.003388606244698167
-0.0162506103515625;-0.184478759765625;-0.996612548828125;0.03526104986667633;0.004457599017769098;0.003388606244698167
-0.0162506103515625;-0.184478759765625;-0.996612548828125;0.03526104986667633;0.004457599017769098;0.003388606244698167
-0.0162506103515625;-0.184478759765625;-0.996612548828125;0.03526104986667633;0.004457599017769098;0.003388606244698167
-0.0158843994140625;-0.1844329833984375;-0.99609375;0.025080585852265358;0.00526586826890707;0.00609304616227746
-0.0158843994140625;-0.1844329833984375;-0.99609375;0.025080585852265358;0.00526586826890707;0.00609304616227746
-0.0158843994140625;-0.1844329833984375;-0.99609375;0.025080585852265358;0.00526586826890707;0.00609304616227746
-0.0158843994140625;-0.1844329833984375;-0.99609375;0.025080585852265358;0.00526586826890707;0.00609304616227746
-0.0158843994140625;-0.1844329833984375;-0.99609375;0.025080585852265358;0.00526586826890707;0.00609304616227746
-0.016387939453125;-0.18267822265625;-0.9980316162109375;0.020117253065109253;0.004609399009495974;0.0010551444720476866
-0.016387939453125;-0.18267822265625;-0.9980316162109375;0.020117253065109253;0.004609399009495974;0.0010551444720476866
-0.016387939453125;-0.18267822265625;-0.9980316162109375;0.020117253065109253;0.004609399009495974;0.0010551444720476866
-0.016387939453125;-0.18267822265625;-0.9980316162109375;0.020117253065109253;0.004609399009495974;0.0010551444720476866
-0.016387939453125;-0.18267822265625;-0.9980316162109375;0.020117253065109253;0.004609399009495974;0.0010551444720476866
-0.015472412109375;-0.1823272705078125;-0.99786376953125;0.01606392115354538;0.004485828336328268;0.0007350324303843081
-0.015472412109375;-0.1823272705078125;-0.99786376953125;0.01606392115354538;0.004485828336328268;0.0007350324303843081
-0.015472412109375;-0.1823272705078125;-0.99786376953125;0.01606392115354538;0.004485828336328268;0.0007350324303843081
-0.015472412109375;-0.1823272705078125;-0.99786376953125;0.01606392115354538;0.004485828336328268;0.0007350324303843081
-0.015472412109375;-0.1823272705078125;-0.99786376953125;0.01606392115354538;0.004485828336328268;0.0007350324303843081
-0.0138702392578125;-0.18267822265625;-0.994873046875;0.012795424088835716;0.0024314660113304853;0.005299157928675413
-0.0138702392578125;-0.18267822265625;-0.994873046875;0.012795424088835716;0.0024314660113304853;0.005299157928675413
-0.0138702392578125;-0.18267822265625;-0.994873046875;0.012795424088835716;0.0024314660113304853;0.005299157928675413
-0.0138702392578125;-0.18267822265625;-0.994873046875;0.012795424088835716;0.0024314660113304853;0.005299157928675413
-0.0138702392578125;-0.18267822265625;-0.994873046875;0.012795424088835716;0.0024314660113304853;0.005299157928675413
-0.0139312744140625;-0.1829833984375;-0.99505615234375;0.010179134085774422;0.00507065886631608;0.0028431906830519438
-0.0139312744140625;-0.1829833984375;-0.99505615234375;0.010179134085774422;0.00507065886631608;0.0028431906830519438
-0.0139312744140625;-0.1829833984375;-0.99505615234375;0.010179134085774422;0.00507065886631608;0.0028431906830519438
-0.0139312744140625;-0.1829833984375;-0.99505615234375;0.010179134085774422;0.00507065886631608;0.0028431906830519438
-0.0139312744140625;-0.1829833984375;-0.99505615234375;0.010179134085774422;0.00507065886631608;0.0028431906830519438
-0.014404296875;-0.1843109130859375;-0.9961395263671875;0.013945909217000008;0.007409446872770786;0.004905809182673693
-0.014404296875;-0.1843109130859375;-0.9961395263671875;0.013945909217000008;0.007409446872770786;0.004905809182673693
-0.014404296875;-0.1843109130859375;-0.9961395263671875;0.013945909217000008;0.007409446872770786;0.004905809182673693
-0.014404296875;-0.1843109130859375;-0.9961395263671875;0.013945909217000008;0.007409446872770786;0.004905809182673693
-0.014404296875;-0.1843109130859375;-0.9961395263671875;0.013945909217000008;0.007409446872770786;0.004905809182673693
-0.0137939453125;-0.1847686767578125;-0.9982147216796875;0.017364343628287315;0.0031015174463391304;0.003364637726917863
-0.0137939453125;-0.1847686767578125;-0.9982147216796875;0.017364343628287315;0.0031015174463391304;0.003364637726917863
-0.0137939453125;-0.1847686767578125;-0.9982147216796875;0.017364343628287315;0.0031015174463391304;0.003364637726917863
-0.0137939453125;-0.1847686767578125;-0.9982147216796875;0.017364343628287315;0.0031015174463391304;0.003364637726917863
-0.0137939453125;-0.1847686767578125;-0.9982147216796875;0.017364343628287315;0.0031015174463391304;0.003364637726917863
-0.0131072998046875;-0.1854705810546875;-1.0011749267578125;0.021802233532071114;0.0065527078695595264;0.005167597904801369
-0.0131072998046875;-0.1854705810546875;-1.0011749267578125;0.021802233532071114;0.0065527078695595264;0.005167597904801369
-0.0131072998046875;-0.1854705810546875;-1.0011749267578125;0.021802233532071114;0.0065527078695595264;0.005167597904801369
-0.0131072998046875;-0.1854705810546875;-1.0011749267578125;0.021802233532071114;0.0065527078695595264;0.005167597904801369
-0.0131072998046875;-0.1854705810546875;-1.0011749267578125;0.021802233532071114;0.0065527078695595264;0.005167597904801369
-0.013031005859375;-0.185791015625;-1.0023040771484375;0.025709889829158783;0.004038417246192694;0.004029362928122282
-0.013031005859375;-0.185791015625;-1.0023040771484375;0.025709889829158783;0.004038417246192694;0.004029362928122282
-0.013031005859375;-0.185791015625;-1.0023040771484375;0.025709889829158783;0.004038417246192694;0.004029362928122282
-0.013031005859375;-0.185791015625;-1.0023040771484375;0.025709889829158783;0.004038417246192694;0.004029362928122282
-0.013031005859375;-0.185791015625;-1.0023040771484375;0.025709889829158783;0.004038417246192694;0.004029362928122282
-0.0125885009765625;-0.18634033203125;-1.002960205078125;0.026163160800933838;-0.005449892953038216;0.004664526786655188
-0.0125885009765625;-0.18634033203125;-1.002960205078125;0.026163160800933838;-0.005449892953038216;0.004664526786655188
-0.0125885009765625;-0.18634033203125;-1.002960205078125;0.026163160800933838;-0.005449892953038216;0.004664526786655188
-0.0125885009765625;-0.18634033203125;-1.002960205078125;0.026163160800933838;-0.005449892953038216;0.004664526786655188
-0.0125885009765625;-0.18634033203125;-1.002960205078125;0.026163160800933838;-0.005449892953038216;0.004664526786655188
-0.013641357421875;-0.1876678466796875;-1.0052337646484375;0.025654496625065804;-0.007646734360605478;0.00484269205480814
-0.013641357421875;-0.1876678466796875;-1.0052337646484375;0.025654496625065804;-0.007646734360605478;0.00484269205480814
-0.013641357421875;-0.1876678466796875;-1.0052337646484375;0.025654496625065804;-0.007646734360605478;0.00484269205480814
-0.013641357421875;-0.1876678466796875;-1.0052337646484375;0.025654496625065804;-0.007646734360605478;0.00484269205480814
-0.013641357421875;-0.1876678466796875;-1.0052337646484375;0.025654496625065804;-0.007646734360605478;0.00484269205480814
-0.0142364501953125;-0.18731689453125;-1.0048675537109375;0.027359452098608017;-0.010407100431621075;0.00626002624630928
-0.0142364501953125;-0.18731689453125;-1.0048675537109375;0.027359452098608017;-0.010407100431621075;0.00626002624630928
-0.0142364501953125;-0.18731689453125;-1.0048675537109375;0.027359452098608017;-0.010407100431621075;0.00626002624630928
-0.0142364501953125;-0.18731689453125;-1.0048675537109375;0.027359452098608017;-0.010407100431621075;0.00626002624630928
-0.0142364501953125;-0.18731689453125;-1.0048675537109375;0.027359452098608017;-0.010407100431621075;0.00626002624630928
-0.014801025390625;-0.18865966796875;-1.0045318603515625;0.028348283842206;-0.008931443095207214;0.006461627781391144
-0.014801025390625;-0.18865966796875;-1.0045318603515625;0.028348283842206;-0.008931443095207214;0.006461627781391144
-0.014801025390625;-0.18865966796875;-1.0045318603515625;0.028348283842206;-0.008931443095207214;0.006461627781391144
-0.014801025390625;-0.18865966796875;-1.0045318603515625;0.028348283842206;-0.008931443095207214;0.006461627781391144
-0.014801025390625;-0.18865966796875;-1.0045318603515625;0.028348283842206;-0.008931443095207214;0.006461627781391144
-0.0151519775390625;-0.1882171630859375;-1.0048828125;0.021858427673578262;-0.0064387246966362;0.00484162662178278
-0.0151519775390625;-0.1882171630859375;-1.0048828125;0.021858427673578262;-0.0064387246966362;0.00484162662178278
-0.0151519775390625;-0.1882171630859375;-1.0048828125;0.021858427673578262;-0.0064387246966362;0.00484162662178278
-0.0151519775390625;-0.1882171630859375;-1.0048828125;0.021858427673578262;-0.0064387246966362;0.00484162662178278
-0.0151519775390625;-0.1882171630859375;-1.0048828125;0.021858427673578262;-0.0064387246966362;0.00484162662178278
-0.0159149169921875;-0.18927001953125;-1.00384521484375;0.016091885045170784;-0.0037121803034096956;0.005347361322492361
-0.0159149169921875;-0.18927001953125;-1.00384521484375;0.016091885045170784;-0.0037121803034096956;0.005347361322492361
-0.0159149169921875;-0.18927001953125;-1.00384521484375;0.016091885045170784;-0.0037121803034096956;0.005347361322492361
-0.0159149169921875;-0.18927001953125;-1.00384521484375;0.016091885045170784;-0.0037121803034096956;0.005347361322492361
-0.0159149169921875;-0.18927001953125;-1.00384521484375;0.016091885045170784;-0.0037121803034096956;0.005347361322492361
-0.0157623291015625;-0.1890106201171875;-1.001312255859375;0.011141601018607616;-0.003978230059146881;0.004529770463705063
-0.0157623291015625;-0.1890106201171875;-1.001312255859375;0.011141601018607616;-0.003978230059146881;0.004529770463705063
-0.0157623291015625;-0.1890106201171875;-1.001312255859375;0.011141601018607616;-0.003978230059146881;0.004529770463705063
-0.0157623291015625;-0.1890106201171875;-1.001312255859375;0.011141601018607616;-0.003978230059146881;0.004529770463705063
-0.0157623291015625;-0.1890106201171875;-1.001312255859375;0.001184574095532298;-0.005938849411904812;0.0054152715019881725
-0.01611328125;-0.187713623046875;-0.9983062744140625;0.001184574095532298;-0.005938849411904812;0.0054152715019881725
-0.01611328125;-0.187713623046875;-0.9983062744140625;0.001184574095532298;-0.005938849411904812;0.0054152715019881725
-0.01611328125;-0.187713623046875;-0.9983062744140625;0.001184574095532298;-0.005938849411904812;0.0054152715019881725
-0.01611328125;-0.187713623046875;-0.9983062744140625;0.001184574095532298;-0.005938849411904812;0.0054152715019881725
-0.01611328125;-0.187713623046875;-0.9983062744140625;-0.007812915369868279;-0.0049276468344032764;0.004483165219426155
-0.0152130126953125;-0.1883392333984375;-0.9962615966796875;-0.007812915369868279;-0.0049276468344032764;0.004483165219426155
-0.0152130126953125;-0.1883392333984375;-0.9962615966796875;-0.007812915369868279;-0.0049276468344032764;0.004483165219426155
-0.0152130126953125;-0.1883392333984375;-0.9962615966796875;-0.007812915369868279;-0.0049276468344032764;0.004483165219426155
-0.0152130126953125;-0.1883392333984375;-0.9962615966796875;-0.007812915369868279;-0.0049276468344032764;0.004483165219426155
-0.0152130126953125;-0.1883392333984375;-0.9962615966796875;-0.012255600653588772;-0.0018780612153932452;0.0009076052810996771
-0.01495361328125;-0.1885528564453125;-0.9957122802734375;-0.012255600653588772;-0.0018780612153932452;0.0009076052810996771
-0.01495361328125;-0.1885528564453125;-0.9957122802734375;-0.012255600653588772;-0.0018780612153932452;0.0009076052810996771
-0.01495361328125;-0.1885528564453125;-0.9957122802734375;-0.012255600653588772;-0.0018780612153932452;0.0009076052810996771
-0.01495361328125;-0.1885528564453125;-0.9957122802734375;-0.012255600653588772;-0.0018780612153932452;0.0009076052810996771
-0.01519775390625;-0.188262939453125;-0.99676513671875;-0.012255600653588772;-0.0018780612153932452;0.0009076052810996771
-0.01519775390625;-0.188262939453125;-0.99676513671875;-0.013973872177302837;-0.002002430846914649;0.0010455570882186294
-0.01519775390625;-0.188262939453125;-0.99676513671875;-0.013973872177302837;-0.002002430846914649;0.0010455570882186294
-0.01519775390625;-0.188262939453125;-0.99676513671875;-0.013973872177302837;-0.002002430846914649;0.0010455570882186294
-0.01519775390625;-0.188262939453125;-0.99676513671875;-0.013973872177302837;-0.002002430846914649;0.0010455570882186294
-0.01519775390625;-0.188262939453125;-0.99676513671875;-0.013973872177302837;-0.002002430846914649;0.0010455570882186294
-0.0143280029296875;-0.1887054443359375;-0.9962310791015625;-0.015155782923102379;0.00039494677912443876;-0.0004588626616168767
-0.0143280029296875;-0.1887054443359375;-0.9962310791015625;-0.015155782923102379;0.00039494677912443876;-0.0004588626616168767
-0.0143280029296875;-0.1887054443359375;-0.9962310791015625;-0.015155782923102379;0.00039494677912443876;-0.0004588626616168767
-0.0143280029296875;-0.1887054443359375;-0.9962310791015625;-0.015155782923102379;0.00039494677912443876;-0.0004588626616168767
-0.0143890380859375;-0.1880645751953125;-0.9979705810546875;-0.01278903242200613;0.0028479844331741333;-0.0025012409314513206
-0.0143890380859375;-0.1880645751953125;-0.9979705810546875;-0.01278903242200613;0.0028479844331741333;-0.0025012409314513206
-0.0143890380859375;-0.1880645751953125;-0.9979705810546875;-0.01278903242200613;0.0028479844331741333;-0.0025012409314513206
-0.0143890380859375;-0.1880645751953125;-0.9979705810546875;-0.01278903242200613;0.0028479844331741333;-0.0025012409314513206
-0.0143890380859375;-0.1880645751953125;-0.9979705810546875;-0.01278903242200613;0.0028479844331741333;-0.0025012409314513206
-0.0139617919921875;-0.187347412109375;-0.9980010986328125;-0.012106197886168957;0.004752411041408777;-0.0015595471486449242
-0.0139617919921875;-0.187347412109375;-0.9980010986328125;-0.012106197886168957;0.004752411041408777;-0.0015595471486449242
-0.0139617919921875;-0.187347412109375;-0.9980010986328125;-0.012106197886168957;0.004752411041408777;-0.0015595471486449242
-0.0139617919921875;-0.187347412109375;-0.9980010986328125;-0.012106197886168957;0.004752411041408777;-0.0015595471486449242
-0.0139617919921875;-0.187347412109375;-0.9980010986328125;-0.012106197886168957;0.004752411041408777;-0.0015595471486449242
-0.0140533447265625;-0.1865081787109375;-0.999420166015625;-0.0049223206005990505;0.0017989652696996927;-0.0017931063193827868
-0.0140533447265625;-0.1865081787109375;-0.999420166015625;-0.0049223206005990505;0.0017989652696996927;-0.0017931063193827868
-0.0140533447265625;-0.1865081787109375;-0.999420166015625;-0.0049223206005990505;0.0017989652696996927;-0.0017931063193827868
-0.0140533447265625;-0.1865081787109375;-0.999420166015625;-0.0049223206005990505;0.0017989652696996927;-0.0017931063193827868
-0.0140533447265625;-0.1865081787109375;-0.999420166015625;-0.0049223206005990505;0.0017989652696996927;-0.0017931063193827868
-0.0145721435546875;-0.18603515625;-0.9981231689453125;-0.002572879893705249;0.003519101068377495;-0.0005850964807905257
-0.0145721435546875;-0.18603515625;-0.9981231689453125;-0.002572879893705249;0.003519101068377495;-0.0005850964807905257
-0.0145721435546875;-0.18603515625;-0.9981231689453125;-0.002572879893705249;0.003519101068377495;-0.0005850964807905257
-0.0145721435546875;-0.18603515625;-0.9981231689453125;-0.002572879893705249;0.003519101068377495;-0.0005850964807905257
-0.0145721435546875;-0.18603515625;-0.9981231689453125;-0.002572879893705249;0.003519101068377495;-0.0005850964807905257
-0.01483154296875;-0.18585205078125;-0.9994354248046875;0.0001478054327890277;0.003771835006773472;0.000702009245287627
-0.01483154296875;-0.18585205078125;-0.9994354248046875;0.0001478054327890277;0.003771835006773472;0.000702009245287627
-0.01483154296875;-0.18585205078125;-0.9994354248046875;0.0001478054327890277;0.003771835006773472;0.000702009245287627
-0.01483154296875;-0.18585205078125;-0.9994354248046875;0.0001478054327890277;0.003771835006773472;0.000702009245287627
-0.01483154296875;-0.18585205078125;-0.9994354248046875;0.0001478054327890277;0.003771835006773472;0.000702009245287627
-0.014251708984375;-0.1851959228515625;-0.9997406005859375;0.003543335711583495;0.005615541245788336;0.0015326491557061672
-0.014251708984375;-0.1851959228515625;-0.9997406005859375;0.003543335711583495;0.005615541245788336;0.0015326491557061672
-0.014251708984375;-0.1851959228515625;-0.9997406005859375;0.003543335711583495;0.005615541245788336;0.0015326491557061672
-0.014251708984375;-0.1851959228515625;-0.9997406005859375;0.003543335711583495;0.005615541245788336;0.0015326491557061672
-0.014251708984375;-0.1851959228515625;-0.9997406005859375;0.003543335711583495;0.005615541245788336;0.0015326491557061672
-0.0144500732421875;-0.1852874755859375;-0.9987640380859375;0.0033276197500526905;0.004823517519980669;0.0024927188642323017
-0.0144500732421875;-0.1852874755859375;-0.9987640380859375;0.0033276197500526905;0.004823517519980669;0.0024927188642323017
-0.0144500732421875;-0.1852874755859375;-0.9987640380859375;0.0033276197500526905;0.004823517519980669;0.0024927188642323017
-0.0144500732421875;-0.1852874755859375;-0.9987640380859375;0.0033276197500526905;0.004823517519980669;0.0024927188642323017
-0.0144500732421875;-0.1852874755859375;-0.9987640380859375;0.0033276197500526905;0.004823517519980669;0.0024927188642323017
-0.0152130126953125;-0.1860198974609375;-0.9985504150390625;0.003145193215459585;0.006089583970606327;0.002984072081744671
-0.0152130126953125;-0.1860198974609375;-0.9985504150390625;0.003145193215459585;0.006089583970606327;0.002984072081744671
-0.0152130126953125;-0.1860198974609375;-0.9985504150390625;0.003145193215459585;0.006089583970606327;0.002984072081744671
-0.0152130126953125;-0.1860198974609375;-0.9985504150390625;0.003145193215459585;0.006089583970606327;0.002984072081744671
-0.0152130126953125;-0.1860198974609375;-0.9985504150390625;0.003145193215459585;0.006089583970606327;0.002984072081744671
-0.0144805908203125;-0.1856842041015625;-1.0002593994140625;0.0027023095171898603;0.004597947467118502;0.00529622845351696
-0.0144805908203125;-0.1856842041015625;-1.0002593994140625;0.0027023095171898603;0.004597947467118502;0.00529622845351696
-0.0144805908203125;-0.1856842041015625;-1.0002593994140625;0.0027023095171898603;0.004597947467118502;0.00529622845351696
-0.0144805908203125;-0.1856842041015625;-1.0002593994140625;0.0027023095171898603;0.004597947467118502;0.00529622845351696
-0.0144805908203125;-0.1856842041015625;-1.0002593994140625;0.0027023095171898603;0.004597947467118502;0.00529622845351696
-0.0149993896484375;-0.185943603515625;-1.00103759765625;0.0016112125013023615;0.004400873556733131;0.005567338317632675
-0.0149993896484375;-0.185943603515625;-1.00103759765625;0.0016112125013023615;0.004400873556733131;0.005567338317632675
-0.0149993896484375;-0.185943603515625;-1.00103759765625;0.0016112125013023615;0.004400873556733131;0.005567338317632675
-0.0149993896484375;-0.185943603515625;-1.00103759765625;0.0016112125013023615;0.004400873556733131;0.005567338317632675
-0.0149993896484375;-0.185943603515625;-1.00103759765625;0.0016112125013023615;0.004400873556733131;0.005567338317632675
-0.014862060546875;-0.1868438720703125;-1.0006561279296875;-0.0003312972257845104;0.0033252229914069176;0.002924683503806591
-0.014862060546875;-0.1868438720703125;-1.0006561279296875;-0.0003312972257845104;0.0033252229914069176;0.002924683503806591
-0.014862060546875;-0.1868438720703125;-1.0006561279296875;-0.0003312972257845104;0.0033252229914069176;0.002924683503806591
-0.014862060546875;-0.1868438720703125;-1.0006561279296875;-0.0003312972257845104;0.0033252229914069176;0.002924683503806591
-0.014862060546875;-0.1868438720703125;-1.0006561279296875;-0.0003312972257845104;0.0033252229914069176;0.002924683503806591
-0.0142059326171875;-0.1872406005859375;-1.000152587890625;0.003979827743023634;0.005181712564080954;0.006731672212481499
-0.0142059326171875;-0.1872406005859375;-1.000152587890625;0.003979827743023634;0.005181712564080954;0.006731672212481499
-0.0142059326171875;-0.1872406005859375;-1.000152587890625;0.003979827743023634;0.005181712564080954;0.006731672212481499
-0.0142059326171875;-0.1872406005859375;-1.000152587890625;0.003979827743023634;0.005181712564080954;0.006731672212481499
-0.0142059326171875;-0.1872406005859375;-1.000152587890625;0.003979827743023634;0.005181712564080954;0.006731672212481499
-0.013885498046875;-0.1868438720703125;-1.0007171630859375;0.005714611150324345;0.005652293097227812;0.004287689458578825
-0.013885498046875;-0.1868438720703125;-1.0007171630859375;0.005714611150324345;0.005652293097227812;0.004287689458578825
-0.013885498046875;-0.1868438720703125;-1.0007171630859375;0.005714611150324345;0.005652293097227812;0.004287689458578825
-0.013885498046875;-0.1868438720703125;-1.0007171630859375;0.005714611150324345;0.005652293097227812;0.004287689458578825
-0.013885498046875;-0.1868438720703125;-1.0007171630859375;0.005714611150324345;0.005652293097227812;0.004287689458578825
-0.0134124755859375;-0.1869964599609375;-1.002532958984375;0.003943875432014465;0.002936934120953083;0.0012026835465803742
-0.0134124755859375;-0.1869964599609375;-1.002532958984375;0.003943875432014465;0.002936934120953083;0.0012026835465803742
-0.0134124755859375;-0.1869964599609375;-1.002532958984375;0.003943875432014465;0.002936934120953083;0.0012026835465803742
-0.0134124755859375;-0.1869964599609375;-1.002532958984375;0.003943875432014465;0.002936934120953083;0.0012026835465803742
-0.0134124755859375;-0.1869964599609375;-1.002532958984375;0.003943875432014465;0.002936934120953083;0.0012026835465803742
-0.01318359375;-0.1874847412109375;-1.0030975341796875;0.0032474587205797434;-0.0012333098566159606;0.003442934714257717
-0.01318359375;-0.1874847412109375;-1.0030975341796875;0.0032474587205797434;-0.0012333098566159606;0.003442934714257717
-0.01318359375;-0.1874847412109375;-1.0030975341796875;0.0032474587205797434;-0.0012333098566159606;0.003442934714257717
-0.01318359375;-0.1874847412109375;-1.0030975341796875;0.0032474587205797434;-0.0012333098566159606;0.003442934714257717
-0.01318359375;-0.1874847412109375;-1.0030975341796875;0.0032474587205797434;-0.0012333098566159606;0.003442934714257717
-0.01318359375;-0.188262939453125;-1.00360107421875;0.004966795444488525;-0.0006748450105078518;0.006640059407800436
-0.01318359375;-0.188262939453125;-1.00360107421875;0.004966795444488525;-0.0006748450105078518;0.006640059407800436
-0.01318359375;-0.188262939453125;-1.00360107421875;0.004966795444488525;-0.0006748450105078518;0.006640059407800436
-0.01318359375;-0.188262939453125;-1.00360107421875;0.004966795444488525;-0.0006748450105078518;0.006640059407800436
-0.01318359375;-0.188262939453125;-1.00360107421875;0.004966795444488525;-0.0006748450105078518;0.006640059407800436
-0.01422119140625;-0.188873291015625;-1.002044677734375;0.007044061087071896;0.0008910936885513365;0.005841909907758236
-0.01422119140625;-0.188873291015625;-1.002044677734375;0.007044061087071896;0.0008910936885513365;0.005841909907758236
-0.01422119140625;-0.188873291015625;-1.002044677734375;0.007044061087071896;0.0008910936885513365;0.005841909907758236
-0.01422119140625;-0.188873291015625;-1.002044677734375;0.007044061087071896;0.0008910936885513365;0.005841909907758236
-0.01422119140625;-0.188873291015625;-1.002044677734375;0.007044061087071896;0.0008910936885513365;0.005841909907758236
-0.0142364501953125;-0.1886138916015625;-1.003173828125;0.005571599118411541;-0.004773716442286968;0.003156644757837057
-0.0142364501953125;-0.1886138916015625;-1.003173828125;0.005571599118411541;-0.004773716442286968;0.003156644757837057
-0.0142364501953125;-0.1886138916015625;-1.003173828125;0.005571599118411541;-0.004773716442286968;0.003156644757837057
-0.0142364501953125;-0.1886138916015625;-1.003173828125;0.005571599118411541;-0.004773716442286968;0.003156644757837057
-0.0142364501953125;-0.1886138916015625;-1.003173828125;0.005571599118411541;-0.004773716442286968;0.003156644757837057
-0.01422119140625;-0.1889495849609375;-1.0014190673828125;0.006477074231952429;-0.0013086773687973619;0.004746285732835531
-0.01422119140625;-0.1889495849609375;-1.0014190673828125;0.006477074231952429;-0.0013086773687973619;0.004746285732835531
-0.01422119140625;-0.1889495849609375;-1.0014190673828125;0.006477074231952429;-0.0013086773687973619;0.004746285732835531
-0.01422119140625;-0.1889495849609375;-1.0014190673828125;0.006477074231952429;-0.0013086773687973619;0.004746285732835531
-0.01422119140625;-0.1889495849609375;-1.0014190673828125;0.006477074231952429;-0.0013086773687973619;0.004746285732835531
-0.0140228271484375;-0.188385009765625;-0.9973602294921875;-0.0009249158320017159;2.4234765078290366e-05;0.005498095881193876
-0.0140228271484375;-0.188385009765625;-0.9973602294921875;-0.0009249158320017159;2.4234765078290366e-05;0.005498095881193876
-0.0140228271484375;-0.188385009765625;-0.9973602294921875;-0.0009249158320017159;2.4234765078290366e-05;0.005498095881193876
-0.0140228271484375;-0.188385009765625;-0.9973602294921875;-0.0009249158320017159;2.4234765078290366e-05;0.005498095881193876
-0.0140228271484375;-0.188385009765625;-0.9973602294921875;-0.0009249158320017159;2.4234765078290366e-05;0.005498095881193876
-0.014495849609375;-0.1885986328125;-0.9942626953125;-0.0013659353135153651;0.004412058740854263;0.0030626351945102215
-0.014495849609375;-0.1885986328125;-0.9942626953125;-0.0013659353135153651;0.004412058740854263;0.0030626351945102215
-0.014495849609375;-0.1885986328125;-0.9942626953125;-0.0013659353135153651;0.004412058740854263;0.0030626351945102215
-0.014495849609375;-0.1885986328125;-0.9942626953125;-0.0013659353135153651;0.004412058740854263;0.0030626351945102215
-0.014495849609375;-0.1885986328125;-0.9942626953125;-0.0013659353135153651;0.004412058740854263;0.0030626351945102215
-0.0140228271484375;-0.18798828125;-0.9950714111328125;-0.008264055475592613;0.007315703667700291;0.003910852130502462
-0.0140228271484375;-0.18798828125;-0.9950714111328125;-0.008264055475592613;0.007315703667700291;0.003910852130502462
-0.0140228271484375;-0.18798828125;-0.9950714111328125;-0.008264055475592613;0.007315703667700291;0.003910852130502462
-0.0140228271484375;-0.18798828125;-0.9950714111328125;-0.008264055475592613;0.007315703667700291;0.003910852130502462
-0.0140228271484375;-0.18798828125;-0.9950714111328125;-0.008264055475592613;0.007315703667700291;0.003910852130502462
-0.0137176513671875;-0.1879730224609375;-0.9979095458984375;-0.003706587478518486;0.009015599265694618;0.004460794851183891
-0.0137176513671875;-0.1879730224609375;-0.9979095458984375;-0.003706587478518486;0.009015599265694618;0.004460794851183891
-0.0137176513671875;-0.1879730224609375;-0.9979095458984375;-0.003706587478518486;0.009015599265694618;0.004460794851183891
-0.0137176513671875;-0.1879730224609375;-0.9979095458984375;-0.003706587478518486;0.009015599265694618;0.004460794851183891
-0.01220703125;-0.1870269775390625;-1.0037384033203125;0.0005070658517070115;0.0037681066896766424;0.0029814087320119143
-0.01220703125;-0.1870269775390625;-1.0037384033203125;0.0005070658517070115;0.0037681066896766424;0.0029814087320119143
-0.01220703125;-0.1870269775390625;-1.0037384033203125;0.0005070658517070115;0.0037681066896766424;0.0029814087320119143
-0.01220703125;-0.1870269775390625;-1.0037384033203125;0.0005070658517070115;0.0037681066896766424;0.0029814087320119143
-0.01220703125;-0.1870269775390625;-1.0037384033203125;0.0005070658517070115;0.0037681066896766424;0.0029814087320119143
-0.0125885009765625;-0.18603515625;-1.0073089599609375;0.006584665738046169;0.0024074974935501814;0.002626675646752119
-0.0125885009765625;-0.18603515625;-1.0073089599609375;0.006584665738046169;0.0024074974935501814;0.002626675646752119
-0.0125885009765625;-0.18603515625;-1.0073089599609375;0.006584665738046169;0.0024074974935501814;0.002626675646752119
-0.0125885009765625;-0.18603515625;-1.0073089599609375;0.006584665738046169;0.0024074974935501814;0.002626675646752119
-0.0125885009765625;-0.18603515625;-1.0073089599609375;0.006584665738046169;0.0024074974935501814;0.002626675646752119
