Acell X;Acell Y;Acell Z;Gyro X;Gyro Y;Gyro Z

-0.009246826171875;-0.12982177734375;-1.0055084228515625;-0.030612504109740257;-0.07135140895843506;-0.0030780816450715065
-0.009246826171875;-0.12982177734375;-1.0055084228515625;-0.030612504109740257;-0.07135140895843506;-0.0030780816450715065
-0.009246826171875;-0.12982177734375;-1.0055084228515625;-0.030612504109740257;-0.07135140895843506;-0.0030780816450715065
-0.009246826171875;-0.12982177734375;-1.0055084228515625;-0.030612504109740257;-0.07135140895843506;-0.0030780816450715065
-0.0186920166015625;-0.1233673095703125;-0.9950103759765625;-0.02858930081129074;-0.07876991480588913;-0.0060142166912555695
-0.0186920166015625;-0.1233673095703125;-0.9950103759765625;-0.02858930081129074;-0.07876991480588913;-0.0060142166912555695
-0.0186920166015625;-0.1233673095703125;-0.9950103759765625;-0.02858930081129074;-0.07876991480588913;-0.0060142166912555695
-0.0186920166015625;-0.1233673095703125;-0.9950103759765625;-0.02858930081129074;-0.07876991480588913;-0.0060142166912555695
-0.0186920166015625;-0.1233673095703125;-0.9950103759765625;-0.02858930081129074;-0.07876991480588913;-0.0060142166912555695
-0.0224761962890625;-0.1251678466796875;-0.9970703125;-0.013232714496552944;-0.05470691993832588;-0.004441619850695133
-0.0224761962890625;-0.1251678466796875;-0.9970703125;-0.013232714496552944;-0.05470691993832588;-0.004441619850695133
-0.0224761962890625;-0.1251678466796875;-0.9970703125;-0.013232714496552944;-0.05470691993832588;-0.004441619850695133
-0.0224761962890625;-0.1251678466796875;-0.9970703125;-0.013232714496552944;-0.05470691993832588;-0.004441619850695133
-0.0224761962890625;-0.1251678466796875;-0.9970703125;-0.013232714496552944;-0.05470691993832588;-0.004441619850695133
-0.028167724609375;-0.1244049072265625;-0.998565673828125;-0.0005230448441579938;-0.029892118647694588;-0.010907242074608803
-0.028167724609375;-0.1244049072265625;-0.998565673828125;-0.0005230448441579938;-0.029892118647694588;-0.010907242074608803
-0.028167724609375;-0.1244049072265625;-0.998565673828125;-0.0005230448441579938;-0.029892118647694588;-0.010907242074608803
-0.028167724609375;-0.1244049072265625;-0.998565673828125;-0.0005230448441579938;-0.029892118647694588;-0.010907242074608803
-0.028167724609375;-0.1244049072265625;-0.998565673828125;-0.0005230448441579938;-0.029892118647694588;-0.010907242074608803
-0.032440185546875;-0.1257476806640625;-0.996429443359375;0.00857298169285059;-0.006088785361498594;-0.011092598550021648
-0.032440185546875;-0.1257476806640625;-0.996429443359375;0.00857298169285059;-0.006088785361498594;-0.011092598550021648
-0.032440185546875;-0.1257476806640625;-0.996429443359375;0.00857298169285059;-0.006088785361498594;-0.011092598550021648
-0.032440185546875;-0.1257476806640625;-0.996429443359375;0.00857298169285059;-0.006088785361498594;-0.011092598550021648
-0.032440185546875;-0.1257476806640625;-0.996429443359375;0.00857298169285059;-0.006088785361498594;-0.011092598550021648
-0.0169219970703125;-0.1218109130859375;-0.9942626953125;0.022188127040863037;0.010643855668604374;-0.001589108258485794
-0.0169219970703125;-0.1218109130859375;-0.9942626953125;0.022188127040863037;0.010643855668604374;-0.001589108258485794
-0.0169219970703125;-0.1218109130859375;-0.9942626953125;0.022188127040863037;0.010643855668604374;-0.001589108258485794
-0.0169219970703125;-0.1218109130859375;-0.9942626953125;0.022188127040863037;0.010643855668604374;-0.001589108258485794
-0.0169219970703125;-0.1218109130859375;-0.9942626953125;0.022188127040863037;0.010643855668604374;-0.001589108258485794
-0.0146636962890625;-0.11627197265625;-1.0033721923828125;0.040166329592466354;0.00669305631890893;-3.728425508597866e-05
-0.0146636962890625;-0.11627197265625;-1.0033721923828125;0.040166329592466354;0.00669305631890893;-3.728425508597866e-05
-0.0146636962890625;-0.11627197265625;-1.0033721923828125;0.040166329592466354;0.00669305631890893;-3.728425508597866e-05
-0.0146636962890625;-0.11627197265625;-1.0033721923828125;0.040166329592466354;0.00669305631890893;-3.728425508597866e-05
-0.0146636962890625;-0.11627197265625;-1.0033721923828125;0.040166329592466354;0.00669305631890893;-3.728425508597866e-05
-0.0181427001953125;-0.115997314453125;-1.0108795166015625;0.05347627401351929;-0.0019323896849527955;0.000532632227987051
-0.0181427001953125;-0.115997314453125;-1.0108795166015625;0.05347627401351929;-0.0019323896849527955;0.000532632227987051
-0.0181427001953125;-0.115997314453125;-1.0108795166015625;0.05347627401351929;-0.0019323896849527955;0.000532632227987051
-0.0181427001953125;-0.115997314453125;-1.0108795166015625;0.05347627401351929;-0.0019323896849527955;0.000532632227987051
-0.0181427001953125;-0.115997314453125;-1.0108795166015625;0.05347627401351929;-0.0019323896849527955;0.000532632227987051
-0.017791748046875;-0.11553955078125;-1.010009765625;0.07050132751464844;-0.005910086911171675;0.0005829659639857709
-0.017791748046875;-0.11553955078125;-1.010009765625;0.07050132751464844;-0.005910086911171675;0.0005829659639857709
-0.017791748046875;-0.11553955078125;-1.010009765625;0.07050132751464844;-0.005910086911171675;0.0005829659639857709
-0.017791748046875;-0.11553955078125;-1.010009765625;0.07050132751464844;-0.005910086911171675;0.0005829659639857709
-0.017791748046875;-0.11553955078125;-1.010009765625;0.07050132751464844;-0.005910086911171675;0.0005829659639857709
-0.0171966552734375;-0.115570068359375;-1.00823974609375;0.0827697142958641;-0.008481635712087154;0.0012471582740545273
-0.0171966552734375;-0.115570068359375;-1.00823974609375;0.0827697142958641;-0.008481635712087154;0.0012471582740545273
-0.0171966552734375;-0.115570068359375;-1.00823974609375;0.0827697142958641;-0.008481635712087154;0.0012471582740545273
-0.0171966552734375;-0.115570068359375;-1.00823974609375;0.0827697142958641;-0.008481635712087154;0.0012471582740545273
-0.0171966552734375;-0.115570068359375;-1.00823974609375;0.0827697142958641;-0.008481635712087154;0.0012471582740545273
-0.01690673828125;-0.117156982421875;-1.008209228515625;0.0916508212685585;-0.011902731843292713;0.0023094932548701763
-0.01690673828125;-0.117156982421875;-1.008209228515625;0.0916508212685585;-0.011902731843292713;0.0023094932548701763
-0.01690673828125;-0.117156982421875;-1.008209228515625;0.0916508212685585;-0.011902731843292713;0.0023094932548701763
-0.01690673828125;-0.117156982421875;-1.008209228515625;0.0916508212685585;-0.011902731843292713;0.0023094932548701763
-0.01690673828125;-0.117156982421875;-1.008209228515625;0.0916508212685585;-0.011902731843292713;0.0023094932548701763
-0.01654052734375;-0.11822509765625;-1.006622314453125;0.09604557603597641;-0.01661759242415428;0.0014945659786462784
-0.01654052734375;-0.11822509765625;-1.006622314453125;0.09604557603597641;-0.01661759242415428;0.0014945659786462784
-0.01654052734375;-0.11822509765625;-1.006622314453125;0.09604557603597641;-0.01661759242415428;0.0014945659786462784
-0.01654052734375;-0.11822509765625;-1.006622314453125;0.09604557603597641;-0.01661759242415428;0.0014945659786462784
-0.01654052734375;-0.11822509765625;-1.006622314453125;0.09604557603597641;-0.01661759242415428;0.0014945659786462784
-0.016448974609375;-0.121337890625;-1.0032958984375;0.10150585323572159;-0.01293577253818512;0.0023997745011001825
-0.016448974609375;-0.121337890625;-1.0032958984375;0.10150585323572159;-0.01293577253818512;0.0023997745011001825
-0.016448974609375;-0.121337890625;-1.0032958984375;0.10150585323572159;-0.01293577253818512;0.0023997745011001825
-0.016448974609375;-0.121337890625;-1.0032958984375;0.10150585323572159;-0.01293577253818512;0.0023997745011001825
-0.016448974609375;-0.121337890625;-1.0032958984375;0.09703201055526733;-0.013717676512897015;-0.0019441075855866075
-0.01666259765625;-0.1236114501953125;-1.000640869140625;0.09703201055526733;-0.013717676512897015;-0.0019441075855866075
-0.01666259765625;-0.1236114501953125;-1.000640869140625;0.09703201055526733;-0.013717676512897015;-0.0019441075855866075
-0.01666259765625;-0.1236114501953125;-1.000640869140625;0.09703201055526733;-0.013717676512897015;-0.0019441075855866075
-0.01666259765625;-0.1236114501953125;-1.000640869140625;0.09703201055526733;-0.013717676512897015;-0.0019441075855866075
-0.01666259765625;-0.1236114501953125;-1.000640869140625;0.09243778884410858;-0.015386146493256092;-0.006844590418040752
-0.0165863037109375;-0.1261138916015625;-0.9976959228515625;0.09243778884410858;-0.015386146493256092;-0.006844590418040752
-0.0165863037109375;-0.1261138916015625;-0.9976959228515625;0.09243778884410858;-0.015386146493256092;-0.006844590418040752
-0.0165863037109375;-0.1261138916015625;-0.9976959228515625;0.09243778884410858;-0.015386146493256092;-0.006844590418040752
-0.0165863037109375;-0.1261138916015625;-0.9976959228515625;0.09243778884410858;-0.015386146493256092;-0.006844590418040752
-0.0165863037109375;-0.1261138916015625;-0.9976959228515625;0.08315214514732361;-0.014916098676621914;-0.001418665866367519
-0.0155181884765625;-0.1294708251953125;-0.9944610595703125;0.08315214514732361;-0.014916098676621914;-0.001418665866367519
-0.0155181884765625;-0.1294708251953125;-0.9944610595703125;0.08315214514732361;-0.014916098676621914;-0.001418665866367519
-0.0155181884765625;-0.1294708251953125;-0.9944610595703125;0.08315214514732361;-0.014916098676621914;-0.001418665866367519
-0.0155181884765625;-0.1294708251953125;-0.9944610595703125;0.08315214514732361;-0.014916098676621914;-0.001418665866367519
-0.0155181884765625;-0.1294708251953125;-0.9944610595703125;0.0747045949101448;-0.015327024273574352;-0.0007994809420779347
-0.014678955078125;-0.13177490234375;-0.9942169189453125;0.0747045949101448;-0.015327024273574352;-0.0007994809420779347
-0.014678955078125;-0.13177490234375;-0.9942169189453125;0.0747045949101448;-0.015327024273574352;-0.0007994809420779347
-0.014678955078125;-0.13177490234375;-0.9942169189453125;0.0747045949101448;-0.015327024273574352;-0.0007994809420779347
-0.014678955078125;-0.13177490234375;-0.9942169189453125;0.0747045949101448;-0.015327024273574352;-0.0007994809420779347
-0.015869140625;-0.1355438232421875;-0.9935150146484375;0.07005897909402847;-0.014635934494435787;-0.001160339335910976
-0.015869140625;-0.1355438232421875;-0.9935150146484375;0.07005897909402847;-0.014635934494435787;-0.001160339335910976
-0.015869140625;-0.1355438232421875;-0.9935150146484375;0.07005897909402847;-0.014635934494435787;-0.001160339335910976
-0.015869140625;-0.1355438232421875;-0.9935150146484375;0.07005897909402847;-0.014635934494435787;-0.001160339335910976
-0.015869140625;-0.1355438232421875;-0.9935150146484375;0.07005897909402847;-0.014635934494435787;-0.001160339335910976
-0.0155792236328125;-0.13671875;-0.9961090087890625;0.06702510267496109;-0.012878780253231525;0.0018343853298574686
-0.0155792236328125;-0.13671875;-0.9961090087890625;0.06702510267496109;-0.012878780253231525;0.0018343853298574686
-0.0155792236328125;-0.13671875;-0.9961090087890625;0.06702510267496109;-0.012878780253231525;0.0018343853298574686
-0.0155792236328125;-0.13671875;-0.9961090087890625;0.06702510267496109;-0.012878780253231525;0.0018343853298574686
-0.0155792236328125;-0.13671875;-0.9961090087890625;0.06702510267496109;-0.012878780253231525;0.0018343853298574686
-0.0155181884765625;-0.1356353759765625;-0.99993896484375;0.06969785690307617;-0.015439676120877266;1.5978966985130683e-06
-0.0155181884765625;-0.1356353759765625;-0.99993896484375;0.06969785690307617;-0.015439676120877266;1.5978966985130683e-06
-0.0155181884765625;-0.1356353759765625;-0.99993896484375;0.06969785690307617;-0.015439676120877266;1.5978966985130683e-06
-0.0155181884765625;-0.1356353759765625;-0.99993896484375;0.06969785690307617;-0.015439676120877266;1.5978966985130683e-06
-0.0155181884765625;-0.1356353759765625;-0.99993896484375;0.06969785690307617;-0.015439676120877266;1.5978966985130683e-06
-0.0177764892578125;-0.134979248046875;-1.0061187744140625;0.07711715251207352;-0.016530239954590797;0.0024407871533185244
-0.0177764892578125;-0.134979248046875;-1.0061187744140625;0.07711715251207352;-0.016530239954590797;0.0024407871533185244
-0.0177764892578125;-0.134979248046875;-1.0061187744140625;0.07711715251207352;-0.016530239954590797;0.0024407871533185244
-0.0177764892578125;-0.134979248046875;-1.0061187744140625;0.07711715251207352;-0.016530239954590797;0.0024407871533185244
-0.0177764892578125;-0.134979248046875;-1.0061187744140625;0.07711715251207352;-0.016530239954590797;0.0024407871533185244
-0.0177764892578125;-0.134979248046875;-1.0061187744140625;0.09193231910467148;-0.018141984939575195;0.004462925251573324
-0.0178680419921875;-0.1347503662109375;-1.0088043212890625;0.09193231910467148;-0.018141984939575195;0.004462925251573324
-0.0178680419921875;-0.1347503662109375;-1.0088043212890625;0.09193231910467148;-0.018141984939575195;0.004462925251573324
-0.0178680419921875;-0.1347503662109375;-1.0088043212890625;0.09193231910467148;-0.018141984939575195;0.004462925251573324
-0.0178680419921875;-0.1347503662109375;-1.0088043212890625;0.09193231910467148;-0.018141984939575195;0.004462925251573324
-0.0176849365234375;-0.135955810546875;-1.0079498291015625;0.09567379206418991;-0.00920495018362999;0.008231830783188343
-0.0176849365234375;-0.135955810546875;-1.0079498291015625;0.09567379206418991;-0.00920495018362999;0.008231830783188343
-0.0176849365234375;-0.135955810546875;-1.0079498291015625;0.09567379206418991;-0.00920495018362999;0.008231830783188343
-0.0176849365234375;-0.135955810546875;-1.0079498291015625;0.09567379206418991;-0.00920495018362999;0.008231830783188343
-0.0176849365234375;-0.135955810546875;-1.0079498291015625;0.09567379206418991;-0.00920495018362999;0.008231830783188343
-0.0180511474609375;-0.1383209228515625;-1.006591796875;0.09585249423980713;0.001100950757972896;0.010307231917977333
-0.0180511474609375;-0.1383209228515625;-1.006591796875;0.09585249423980713;0.001100950757972896;0.010307231917977333
-0.0180511474609375;-0.1383209228515625;-1.006591796875;0.09585249423980713;0.001100950757972896;0.010307231917977333
-0.0180511474609375;-0.1383209228515625;-1.006591796875;0.09585249423980713;0.001100950757972896;0.010307231917977333
-0.0180511474609375;-0.1383209228515625;-1.006591796875;0.09585249423980713;0.001100950757972896;0.010307231917977333
-0.0178375244140625;-0.140106201171875;-1.004119873046875;0.09034240990877151;0.016524381935596466;0.01817447692155838
-0.0178375244140625;-0.140106201171875;-1.004119873046875;0.09034240990877151;0.016524381935596466;0.01817447692155838
-0.0178375244140625;-0.140106201171875;-1.004119873046875;0.09034240990877151;0.016524381935596466;0.01817447692155838
-0.0178375244140625;-0.140106201171875;-1.004119873046875;0.09034240990877151;0.016524381935596466;0.01817447692155838
-0.0178375244140625;-0.140106201171875;-1.004119873046875;0.09034240990877151;0.016524381935596466;0.01817447692155838
-0.0155029296875;-0.14178466796875;-0.9980926513671875;0.068918876349926;0.039680566638708115;0.016760071739554405
-0.0155029296875;-0.14178466796875;-0.9980926513671875;0.068918876349926;0.039680566638708115;0.016760071739554405
-0.0155029296875;-0.14178466796875;-0.9980926513671875;0.068918876349926;0.039680566638708115;0.016760071739554405
-0.0155029296875;-0.14178466796875;-0.9980926513671875;0.068918876349926;0.039680566638708115;0.016760071739554405
-0.0155029296875;-0.14178466796875;-0.9980926513671875;0.068918876349926;0.039680566638708115;0.016760071739554405
-0.0150909423828125;-0.1431427001953125;-0.99151611328125;0.04490728676319122;0.04240844398736954;0.011097924783825874
-0.0150909423828125;-0.1431427001953125;-0.99151611328125;0.04490728676319122;0.04240844398736954;0.011097924783825874
-0.0150909423828125;-0.1431427001953125;-0.99151611328125;0.04490728676319122;0.04240844398736954;0.011097924783825874
-0.0150909423828125;-0.1431427001953125;-0.99151611328125;0.04490728676319122;0.04240844398736954;0.011097924783825874
-0.0150909423828125;-0.1431427001953125;-0.99151611328125;0.04490728676319122;0.04240844398736954;0.011097924783825874
-0.0147552490234375;-0.14208984375;-0.9955291748046875;0.026086460798978806;0.01973855122923851;0.0009211873984895647
-0.0147552490234375;-0.14208984375;-0.9955291748046875;0.026086460798978806;0.01973855122923851;0.0009211873984895647
-0.0147552490234375;-0.14208984375;-0.9955291748046875;0.026086460798978806;0.01973855122923851;0.0009211873984895647
-0.0147552490234375;-0.14208984375;-0.9955291748046875;0.026086460798978806;0.01973855122923851;0.0009211873984895647
-0.0147552490234375;-0.14208984375;-0.9955291748046875;0.026086460798978806;0.01973855122923851;0.0009211873984895647
-0.0164794921875;-0.136932373046875;-1.0128326416015625;0.027528030797839165;-0.014712367206811905;-0.005308745428919792
-0.0164794921875;-0.136932373046875;-1.0128326416015625;0.027528030797839165;-0.014712367206811905;-0.005308745428919792
-0.0164794921875;-0.136932373046875;-1.0128326416015625;0.027528030797839165;-0.014712367206811905;-0.005308745428919792
-0.0164794921875;-0.136932373046875;-1.0128326416015625;0.027528030797839165;-0.014712367206811905;-0.005308745428919792
-0.0164794921875;-0.136932373046875;-1.0128326416015625;0.027528030797839165;-0.014712367206811905;-0.005308745428919792
-0.0203704833984375;-0.13751220703125;-1.024871826171875;0.03283970430493355;-0.05644383281469345;-0.014200774021446705
-0.0203704833984375;-0.13751220703125;-1.024871826171875;0.03283970430493355;-0.05644383281469345;-0.014200774021446705
-0.0203704833984375;-0.13751220703125;-1.024871826171875;0.03283970430493355;-0.05644383281469345;-0.014200774021446705
-0.0203704833984375;-0.13751220703125;-1.024871826171875;0.03283970430493355;-0.05644383281469345;-0.014200774021446705
-0.0203704833984375;-0.13751220703125;-1.024871826171875;0.03283970430493355;-0.05644383281469345;-0.014200774021446705
-0.0230255126953125;-0.14324951171875;-1.02667236328125;0.039795082062482834;-0.0911882296204567;-0.012343751266598701
-0.0230255126953125;-0.14324951171875;-1.02667236328125;0.039795082062482834;-0.0911882296204567;-0.012343751266598701
-0.0230255126953125;-0.14324951171875;-1.02667236328125;0.039795082062482834;-0.0911882296204567;-0.012343751266598701
-0.0230255126953125;-0.14324951171875;-1.02667236328125;0.039795082062482834;-0.0911882296204567;-0.012343751266598701
-0.0230255126953125;-0.14324951171875;-1.02667236328125;0.039795082062482834;-0.0911882296204567;-0.012343751266598701
-0.02459716796875;-0.1446990966796875;-1.016448974609375;0.047567520290613174;-0.09891166538000107;-0.008259793743491173
-0.02459716796875;-0.1446990966796875;-1.016448974609375;0.047567520290613174;-0.09891166538000107;-0.008259793743491173
-0.02459716796875;-0.1446990966796875;-1.016448974609375;0.047567520290613174;-0.09891166538000107;-0.008259793743491173
-0.02459716796875;-0.1446990966796875;-1.016448974609375;0.047567520290613174;-0.09891166538000107;-0.008259793743491173
-0.02459716796875;-0.1446990966796875;-1.016448974609375;0.047567520290613174;-0.09891166538000107;-0.008259793743491173
-0.027679443359375;-0.1431732177734375;-0.9986419677734375;0.056475527584552765;-0.07733473181724548;-0.004222175572067499
-0.027679443359375;-0.1431732177734375;-0.9986419677734375;0.056475527584552765;-0.07733473181724548;-0.004222175572067499
-0.027679443359375;-0.1431732177734375;-0.9986419677734375;0.056475527584552765;-0.07733473181724548;-0.004222175572067499
-0.027679443359375;-0.1431732177734375;-0.9986419677734375;0.056475527584552765;-0.07733473181724548;-0.004222175572067499
-0.027679443359375;-0.1431732177734375;-0.9986419677734375;0.056475527584552765;-0.07733473181724548;-0.004222175572067499
-0.0303802490234375;-0.1416473388671875;-0.9868927001953125;0.0625067874789238;-0.04139697551727295;-0.007648332044482231
-0.0303802490234375;-0.1416473388671875;-0.9868927001953125;0.0625067874789238;-0.04139697551727295;-0.007648332044482231
-0.0303802490234375;-0.1416473388671875;-0.9868927001953125;0.0625067874789238;-0.04139697551727295;-0.007648332044482231
-0.0303802490234375;-0.1416473388671875;-0.9868927001953125;0.0625067874789238;-0.04139697551727295;-0.007648332044482231
-0.0303802490234375;-0.1416473388671875;-0.9868927001953125;0.0625067874789238;-0.04139697551727295;-0.007648332044482231
-0.03118896484375;-0.13909912109375;-0.9847564697265625;0.07456132024526596;-0.0010546117555350065;-0.005659483373165131
-0.03118896484375;-0.13909912109375;-0.9847564697265625;0.07456132024526596;-0.0010546117555350065;-0.005659483373165131
-0.03118896484375;-0.13909912109375;-0.9847564697265625;0.07456132024526596;-0.0010546117555350065;-0.005659483373165131
-0.03118896484375;-0.13909912109375;-0.9847564697265625;0.07456132024526596;-0.0010546117555350065;-0.005659483373165131
-0.03118896484375;-0.13909912109375;-0.9847564697265625;0.07456132024526596;-0.0010546117555350065;-0.005659483373165131
-0.02685546875;-0.1370086669921875;-0.990264892578125;0.08441048860549927;0.02719194069504738;-0.001942509668879211
-0.02685546875;-0.1370086669921875;-0.990264892578125;0.08441048860549927;0.02719194069504738;-0.001942509668879211
-0.02685546875;-0.1370086669921875;-0.990264892578125;0.08441048860549927;0.02719194069504738;-0.001942509668879211
-0.02685546875;-0.1370086669921875;-0.990264892578125;0.08441048860549927;0.02719194069504738;-0.001942509668879211
-0.02685546875;-0.1370086669921875;-0.990264892578125;0.08441048860549927;0.02719194069504738;-0.001942509668879211
-0.020111083984375;-0.137603759765625;-0.9988861083984375;0.0940183773636818;0.038415566086769104;0.002938798163086176
-0.020111083984375;-0.137603759765625;-0.9988861083984375;0.0940183773636818;0.038415566086769104;0.002938798163086176
-0.020111083984375;-0.137603759765625;-0.9988861083984375;0.0940183773636818;0.038415566086769104;0.002938798163086176
-0.020111083984375;-0.137603759765625;-0.9988861083984375;0.0940183773636818;0.038415566086769104;0.002938798163086176
-0.020111083984375;-0.137603759765625;-0.9988861083984375;0.0940183773636818;0.038415566086769104;0.002938798163086176
-0.0157470703125;-0.14019775390625;-1.0075225830078125;0.10423186421394348;0.03587597608566284;0.006840595509856939
-0.0157470703125;-0.14019775390625;-1.0075225830078125;0.10423186421394348;0.03587597608566284;0.006840595509856939
-0.0157470703125;-0.14019775390625;-1.0075225830078125;0.10423186421394348;0.03587597608566284;0.006840595509856939
-0.0157470703125;-0.14019775390625;-1.0075225830078125;0.10423186421394348;0.03587597608566284;0.006840595509856939
-0.0157470703125;-0.14019775390625;-1.0075225830078125;0.10423186421394348;0.03587597608566284;0.006840595509856939
-0.0145263671875;-0.1449432373046875;-1.0125885009765625;0.1005479097366333;0.021215273067355156;0.00845500361174345
-0.0145263671875;-0.1449432373046875;-1.0125885009765625;0.1005479097366333;0.021215273067355156;0.00845500361174345
-0.0145263671875;-0.1449432373046875;-1.0125885009765625;0.1005479097366333;0.021215273067355156;0.00845500361174345
-0.0145263671875;-0.1449432373046875;-1.0125885009765625;0.1005479097366333;0.021215273067355156;0.00845500361174345
-0.0145263671875;-0.1449432373046875;-1.0125885009765625;0.1005479097366333;0.021215273067355156;0.00845500361174345
-0.016754150390625;-0.1502685546875;-1.013763427734375;0.08807819336652756;0.0032229574862867594;0.005321528296917677
-0.016754150390625;-0.1502685546875;-1.013763427734375;0.08807819336652756;0.0032229574862867594;0.005321528296917677
-0.016754150390625;-0.1502685546875;-1.013763427734375;0.08807819336652756;0.0032229574862867594;0.005321528296917677
-0.016754150390625;-0.1502685546875;-1.013763427734375;0.08807819336652756;0.0032229574862867594;0.005321528296917677
-0.016754150390625;-0.1502685546875;-1.013763427734375;0.08807819336652756;0.0032229574862867594;0.005321528296917677
-0.0200042724609375;-0.1549072265625;-1.008941650390625;0.07131519168615341;-0.010468886233866215;0.005281314719468355
-0.0200042724609375;-0.1549072265625;-1.008941650390625;0.07131519168615341;-0.010468886233866215;0.005281314719468355
-0.0200042724609375;-0.1549072265625;-1.008941650390625;0.07131519168615341;-0.010468886233866215;0.005281314719468355
-0.0200042724609375;-0.1549072265625;-1.008941650390625;0.07131519168615341;-0.010468886233866215;0.005281314719468355
-0.0200042724609375;-0.1549072265625;-1.008941650390625;0.07131519168615341;-0.010468886233866215;0.005281314719468355
-0.0228424072265625;-0.1573944091796875;-1.00665283203125;0.050213903188705444;-0.011448929086327553;0.0032732912804931402
-0.0228424072265625;-0.1573944091796875;-1.00665283203125;0.050213903188705444;-0.011448929086327553;0.0032732912804931402
-0.0228424072265625;-0.1573944091796875;-1.00665283203125;0.050213903188705444;-0.011448929086327553;0.0032732912804931402
-0.0228424072265625;-0.1573944091796875;-1.00665283203125;0.050213903188705444;-0.011448929086327553;0.0032732912804931402
-0.0228424072265625;-0.1573944091796875;-1.00665283203125;0.050213903188705444;-0.011448929086327553;0.0032732912804931402
-0.0242156982421875;-0.1596221923828125;-1.00518798828125;0.0230531208217144;-0.013051619753241539;-0.000523843802511692
-0.0242156982421875;-0.1596221923828125;-1.00518798828125;0.0230531208217144;-0.013051619753241539;-0.000523843802511692
-0.0242156982421875;-0.1596221923828125;-1.00518798828125;0.0230531208217144;-0.013051619753241539;-0.000523843802511692
-0.0242156982421875;-0.1596221923828125;-1.00518798828125;0.0230531208217144;-0.013051619753241539;-0.000523843802511692
-0.0242156982421875;-0.1596221923828125;-1.00518798828125;0.0230531208217144;-0.013051619753241539;-0.000523843802511692
-0.024200439453125;-0.160552978515625;-1.0020904541015625;0.0026991136837750673;-0.011360245756804943;0.0027750139124691486
-0.024200439453125;-0.160552978515625;-1.0020904541015625;0.0026991136837750673;-0.011360245756804943;0.0027750139124691486
-0.024200439453125;-0.160552978515625;-1.0020904541015625;0.0026991136837750673;-0.011360245756804943;0.0027750139124691486
-0.024200439453125;-0.160552978515625;-1.0020904541015625;0.0026991136837750673;-0.011360245756804943;0.0027750139124691486
-0.024200439453125;-0.160552978515625;-1.0020904541015625;0.0026991136837750673;-0.011360245756804943;0.0027750139124691486
-0.0223388671875;-0.1600189208984375;-1.0016021728515625;-0.018143316730856895;-0.0132084796205163;-0.00018082863243762404
-0.0223388671875;-0.1600189208984375;-1.0016021728515625;-0.018143316730856895;-0.0132084796205163;-0.00018082863243762404
-0.0223388671875;-0.1600189208984375;-1.0016021728515625;-0.018143316730856895;-0.0132084796205163;-0.00018082863243762404
-0.0223388671875;-0.1600189208984375;-1.0016021728515625;-0.018143316730856895;-0.0132084796205163;-0.00018082863243762404
-0.0223388671875;-0.1600189208984375;-1.0016021728515625;-0.018143316730856895;-0.0132084796205163;-0.00018082863243762404
-0.0202789306640625;-0.1568756103515625;-1.001953125;-0.02588566020131111;-0.011386078782379627;-0.0018527611391618848
-0.0202789306640625;-0.1568756103515625;-1.001953125;-0.02588566020131111;-0.011386078782379627;-0.0018527611391618848
-0.0202789306640625;-0.1568756103515625;-1.001953125;-0.02588566020131111;-0.011386078782379627;-0.0018527611391618848
-0.0202789306640625;-0.1568756103515625;-1.001953125;-0.02588566020131111;-0.011386078782379627;-0.0018527611391618848
-0.0202789306640625;-0.1568756103515625;-1.001953125;-0.02588566020131111;-0.011386078782379627;-0.0018527611391618848
-0.01885986328125;-0.15338134765625;-1.0043182373046875;-0.020265590399503708;-0.012003932148218155;0.0007629956235177815
-0.01885986328125;-0.15338134765625;-1.0043182373046875;-0.020265590399503708;-0.012003932148218155;0.0007629956235177815
-0.01885986328125;-0.15338134765625;-1.0043182373046875;-0.020265590399503708;-0.012003932148218155;0.0007629956235177815
-0.01885986328125;-0.15338134765625;-1.0043182373046875;-0.020265590399503708;-0.012003932148218155;0.0007629956235177815
-0.01885986328125;-0.15338134765625;-1.0043182373046875;-0.020265590399503708;-0.012003932148218155;0.0007629956235177815
-0.018157958984375;-0.1508941650390625;-1.0068511962890625;-0.006374009884893894;-0.008470982313156128;-0.002261290093883872
-0.018157958984375;-0.1508941650390625;-1.0068511962890625;-0.006374009884893894;-0.008470982313156128;-0.002261290093883872
-0.018157958984375;-0.1508941650390625;-1.0068511962890625;-0.006374009884893894;-0.008470982313156128;-0.002261290093883872
-0.018157958984375;-0.1508941650390625;-1.0068511962890625;-0.006374009884893894;-0.008470982313156128;-0.002261290093883872
-0.018157958984375;-0.1508941650390625;-1.0068511962890625;-0.006374009884893894;-0.008470982313156128;-0.002261290093883872
-0.0187225341796875;-0.147979736328125;-1.0078125;0.012443886138498783;-0.008897887542843819;-0.0012215919559821486
-0.0187225341796875;-0.147979736328125;-1.0078125;0.012443886138498783;-0.008897887542843819;-0.0012215919559821486
-0.0187225341796875;-0.147979736328125;-1.0078125;0.012443886138498783;-0.008897887542843819;-0.0012215919559821486
-0.0187225341796875;-0.147979736328125;-1.0078125;0.012443886138498783;-0.008897887542843819;-0.0012215919559821486
-0.0187225341796875;-0.147979736328125;-1.0078125;0.012443886138498783;-0.008897887542843819;-0.0012215919559821486
-0.0180511474609375;-0.1458892822265625;-1.008636474609375;0.03630074858665466;-0.004709800239652395;0.00122558674775064
-0.0180511474609375;-0.1458892822265625;-1.008636474609375;0.03630074858665466;-0.004709800239652395;0.00122558674775064
-0.0180511474609375;-0.1458892822265625;-1.008636474609375;0.03630074858665466;-0.004709800239652395;0.00122558674775064
-0.0180511474609375;-0.1458892822265625;-1.008636474609375;0.03630074858665466;-0.004709800239652395;0.00122558674775064
-0.0180511474609375;-0.1458892822265625;-1.008636474609375;0.03630074858665466;-0.004709800239652395;0.00122558674775064
-0.0188140869140625;-0.1468505859375;-1.0085296630859375;0.05399345979094505;0.003272492438554764;0.00042983421008102596
-0.0188140869140625;-0.1468505859375;-1.0085296630859375;0.05399345979094505;0.003272492438554764;0.00042983421008102596
-0.0188140869140625;-0.1468505859375;-1.0085296630859375;0.05399345979094505;0.003272492438554764;0.00042983421008102596
-0.0188140869140625;-0.1468505859375;-1.0085296630859375;0.05399345979094505;0.003272492438554764;0.00042983421008102596
-0.0188140869140625;-0.1468505859375;-1.0085296630859375;0.05399345979094505;0.003272492438554764;0.00042983421008102596
-0.0180511474609375;-0.147613525390625;-1.008697509765625;0.0639566108584404;0.006196643225848675;-0.0003938815207220614
-0.0180511474609375;-0.147613525390625;-1.008697509765625;0.0639566108584404;0.006196643225848675;-0.0003938815207220614
-0.0180511474609375;-0.147613525390625;-1.008697509765625;0.0639566108584404;0.006196643225848675;-0.0003938815207220614
-0.0180511474609375;-0.147613525390625;-1.008697509765625;0.0639566108584404;0.006196643225848675;-0.0003938815207220614
-0.0180511474609375;-0.147613525390625;-1.008697509765625;0.0639566108584404;0.006196643225848675;-0.0003938815207220614
-0.018341064453125;-0.149993896484375;-1.0090484619140625;0.07072184234857559;0.009136239998042583;0.00430047232657671
-0.018341064453125;-0.149993896484375;-1.0090484619140625;0.07072184234857559;0.009136239998042583;0.00430047232657671
-0.018341064453125;-0.149993896484375;-1.0090484619140625;0.07072184234857559;0.009136239998042583;0.00430047232657671
-0.018341064453125;-0.149993896484375;-1.0090484619140625;0.07072184234857559;0.009136239998042583;0.00430047232657671
-0.018341064453125;-0.149993896484375;-1.0090484619140625;0.07072184234857559;0.009136239998042583;0.00430047232657671
-0.0183563232421875;-0.1512451171875;-1.0084991455078125;0.06959611922502518;0.010785802267491817;0.004541488364338875
-0.0183563232421875;-0.1512451171875;-1.0084991455078125;0.06959611922502518;0.010785802267491817;0.004541488364338875
-0.0183563232421875;-0.1512451171875;-1.0084991455078125;0.06959611922502518;0.010785802267491817;0.004541488364338875
-0.0183563232421875;-0.1512451171875;-1.0084991455078125;0.06959611922502518;0.010785802267491817;0.004541488364338875
-0.0183563232421875;-0.1512451171875;-1.0084991455078125;0.06106468662619591;-0.004054929129779339;0.0018024274613708258
-0.0188751220703125;-0.1526641845703125;-1.00775146484375;0.06106468662619591;-0.004054929129779339;0.0018024274613708258
-0.0188751220703125;-0.1526641845703125;-1.00775146484375;0.06106468662619591;-0.004054929129779339;0.0018024274613708258
-0.0188751220703125;-0.1526641845703125;-1.00775146484375;0.06106468662619591;-0.004054929129779339;0.0018024274613708258
-0.0188751220703125;-0.1526641845703125;-1.00775146484375;0.06106468662619591;-0.004054929129779339;0.0018024274613708258
-0.0188751220703125;-0.1526641845703125;-1.00775146484375;0.04964505136013031;-0.0158868208527565;0.003865312086418271
-0.018829345703125;-0.1536407470703125;-1.007843017578125;0.04964505136013031;-0.0158868208527565;0.003865312086418271
-0.018829345703125;-0.1536407470703125;-1.007843017578125;0.04964505136013031;-0.0158868208527565;0.003865312086418271
-0.018829345703125;-0.1536407470703125;-1.007843017578125;0.04964505136013031;-0.0158868208527565;0.003865312086418271
-0.018829345703125;-0.1536407470703125;-1.007843017578125;0.04964505136013031;-0.0158868208527565;0.003865312086418271
-0.018829345703125;-0.1536407470703125;-1.007843017578125;0.036017388105392456;-0.014311827719211578;0.0065590995363891125
-0.01812744140625;-0.1571502685546875;-1.006256103515625;0.036017388105392456;-0.014311827719211578;0.0065590995363891125
-0.01812744140625;-0.1571502685546875;-1.006256103515625;0.036017388105392456;-0.014311827719211578;0.0065590995363891125
-0.01812744140625;-0.1571502685546875;-1.006256103515625;0.036017388105392456;-0.014311827719211578;0.0065590995363891125
-0.01812744140625;-0.1571502685546875;-1.006256103515625;0.036017388105392456;-0.014311827719211578;0.0065590995363891125
-0.01812744140625;-0.1571502685546875;-1.006256103515625;0.021435517817735672;-0.017105218023061752;0.009238505735993385
-0.0183868408203125;-0.1594085693359375;-1.0017547607421875;0.021435517817735672;-0.017105218023061752;0.009238505735993385
-0.0183868408203125;-0.1594085693359375;-1.0017547607421875;0.021435517817735672;-0.017105218023061752;0.009238505735993385
-0.0183868408203125;-0.1594085693359375;-1.0017547607421875;0.021435517817735672;-0.017105218023061752;0.009238505735993385
-0.0183868408203125;-0.1594085693359375;-1.0017547607421875;0.021435517817735672;-0.017105218023061752;0.009238505735993385
-0.0207366943359375;-0.15887451171875;-1.001068115234375;0.009349825792014599;-0.027179956436157227;0.007951400242745876
-0.0207366943359375;-0.15887451171875;-1.001068115234375;0.009349825792014599;-0.027179956436157227;0.007951400242745876
-0.0207366943359375;-0.15887451171875;-1.001068115234375;0.009349825792014599;-0.027179956436157227;0.007951400242745876
-0.0207366943359375;-0.15887451171875;-1.001068115234375;0.009349825792014599;-0.027179956436157227;0.007951400242745876
-0.0207366943359375;-0.15887451171875;-1.001068115234375;0.009349825792014599;-0.027179956436157227;0.007951400242745876
-0.0207366943359375;-0.15887451171875;-1.001068115234375;0.002070607617497444;-0.03201119601726532;0.0033422671258449554
-0.022796630859375;-0.156036376953125;-1.00054931640625;0.002070607617497444;-0.03201119601726532;0.0033422671258449554
-0.022796630859375;-0.156036376953125;-1.00054931640625;0.002070607617497444;-0.03201119601726532;0.0033422671258449554
-0.022796630859375;-0.156036376953125;-1.00054931640625;0.002070607617497444;-0.03201119601726532;0.0033422671258449554
-0.022796630859375;-0.156036376953125;-1.00054931640625;0.002070607617497444;-0.03201119601726532;0.0033422671258449554
-0.0233154296875;-0.1552734375;-0.9997711181640625;0.0007877630414441228;-0.030591731891036034;0.00044075315236113966
-0.0233154296875;-0.1552734375;-0.9997711181640625;0.0007877630414441228;-0.030591731891036034;0.00044075315236113966
-0.0233154296875;-0.1552734375;-0.9997711181640625;0.0007877630414441228;-0.030591731891036034;0.00044075315236113966
-0.0233154296875;-0.1552734375;-0.9997711181640625;0.0007877630414441228;-0.030591731891036034;0.00044075315236113966
-0.0233154296875;-0.1552734375;-0.9997711181640625;0.0007877630414441228;-0.030591731891036034;0.00044075315236113966
-0.023162841796875;-0.15496826171875;-1.000335693359375;-0.0012474246323108673;-0.019465576857328415;0.004634699318557978
-0.023162841796875;-0.15496826171875;-1.000335693359375;-0.0012474246323108673;-0.019465576857328415;0.004634699318557978
-0.023162841796875;-0.15496826171875;-1.000335693359375;-0.0012474246323108673;-0.019465576857328415;0.004634699318557978
-0.023162841796875;-0.15496826171875;-1.000335693359375;-0.0012474246323108673;-0.019465576857328415;0.004634699318557978
-0.023162841796875;-0.15496826171875;-1.000335693359375;-0.0012474246323108673;-0.019465576857328415;0.004634699318557978
-0.0229034423828125;-0.156219482421875;-1.000457763671875;-0.0021289309952408075;-0.01452914159744978;0.004800613969564438
-0.0229034423828125;-0.156219482421875;-1.000457763671875;-0.0021289309952408075;-0.01452914159744978;0.004800613969564438
-0.0229034423828125;-0.156219482421875;-1.000457763671875;-0.0021289309952408075;-0.01452914159744978;0.004800613969564438
-0.0229034423828125;-0.156219482421875;-1.000457763671875;-0.0021289309952408075;-0.01452914159744978;0.004800613969564438
-0.0229034423828125;-0.156219482421875;-1.000457763671875;-0.0021289309952408075;-0.01452914159744978;0.004800613969564438
-0.0224456787109375;-0.1568450927734375;-0.99969482421875;-0.0041497377678751945;-0.006006493698805571;0.0051990230567753315
-0.0224456787109375;-0.1568450927734375;-0.99969482421875;-0.0041497377678751945;-0.006006493698805571;0.0051990230567753315
-0.0224456787109375;-0.1568450927734375;-0.99969482421875;-0.0041497377678751945;-0.006006493698805571;0.0051990230567753315
-0.0224456787109375;-0.1568450927734375;-0.99969482421875;-0.0041497377678751945;-0.006006493698805571;0.0051990230567753315
-0.0224456787109375;-0.1568450927734375;-0.99969482421875;-0.0041497377678751945;-0.006006493698805571;0.0051990230567753315
-0.0214080810546875;-0.1564483642578125;-1.0001678466796875;-0.0021544971968978643;-0.0015092133544385433;0.00848536379635334
-0.0214080810546875;-0.1564483642578125;-1.0001678466796875;-0.0021544971968978643;-0.0015092133544385433;0.00848536379635334
-0.0214080810546875;-0.1564483642578125;-1.0001678466796875;-0.0021544971968978643;-0.0015092133544385433;0.00848536379635334
-0.0214080810546875;-0.1564483642578125;-1.0001678466796875;-0.0021544971968978643;-0.0015092133544385433;0.00848536379635334
-0.0214080810546875;-0.1564483642578125;-1.0001678466796875;-0.0021544971968978643;-0.0015092133544385433;0.00848536379635334
-0.02081298828125;-0.1566925048828125;-1.0020751953125;0.004605670925229788;0.0025537051260471344;0.004899417515844107
-0.02081298828125;-0.1566925048828125;-1.0020751953125;0.004605670925229788;0.0025537051260471344;0.004899417515844107
-0.02081298828125;-0.1566925048828125;-1.0020751953125;0.004605670925229788;0.0025537051260471344;0.004899417515844107
-0.02081298828125;-0.1566925048828125;-1.0020751953125;0.004605670925229788;0.0025537051260471344;0.004899417515844107
-0.02081298828125;-0.1566925048828125;-1.0020751953125;0.004605670925229788;0.0025537051260471344;0.004899417515844107
-0.0227508544921875;-0.1556396484375;-1.00634765625;0.011108310893177986;0.00500940578058362;0.004322044085711241
-0.0227508544921875;-0.1556396484375;-1.00634765625;0.011108310893177986;0.00500940578058362;0.004322044085711241
-0.0227508544921875;-0.1556396484375;-1.00634765625;0.011108310893177986;0.00500940578058362;0.004322044085711241
-0.0227508544921875;-0.1556396484375;-1.00634765625;0.011108310893177986;0.00500940578058362;0.004322044085711241
-0.0227508544921875;-0.1556396484375;-1.00634765625;0.011108310893177986;0.00500940578058362;0.004322044085711241
-0.0227203369140625;-0.1554412841796875;-1.0081329345703125;0.02208639308810234;0.004922853317111731;0.0035212314687669277
-0.0227203369140625;-0.1554412841796875;-1.0081329345703125;0.02208639308810234;0.004922853317111731;0.0035212314687669277
-0.0227203369140625;-0.1554412841796875;-1.0081329345703125;0.02208639308810234;0.004922853317111731;0.0035212314687669277
-0.0227203369140625;-0.1554412841796875;-1.0081329345703125;0.02208639308810234;0.004922853317111731;0.0035212314687669277
-0.0227203369140625;-0.1554412841796875;-1.0081329345703125;0.02208639308810234;0.004922853317111731;0.0035212314687669277
-0.0234527587890625;-0.155792236328125;-1.01177978515625;0.030766701325774193;0.0036780918017029762;0.0032621060963720083
-0.0234527587890625;-0.155792236328125;-1.01177978515625;0.030766701325774193;0.0036780918017029762;0.0032621060963720083
-0.0234527587890625;-0.155792236328125;-1.01177978515625;0.030766701325774193;0.0036780918017029762;0.0032621060963720083
-0.0234527587890625;-0.155792236328125;-1.01177978515625;0.030766701325774193;0.0036780918017029762;0.0032621060963720083
-0.0234527587890625;-0.155792236328125;-1.01177978515625;0.030766701325774193;0.0036780918017029762;0.0032621060963720083
-0.0229949951171875;-0.156280517578125;-1.0115203857421875;0.03585440292954445;0.0014828480780124664;0.0037920749746263027
-0.0229949951171875;-0.156280517578125;-1.0115203857421875;0.03585440292954445;0.0014828480780124664;0.0037920749746263027
-0.0229949951171875;-0.156280517578125;-1.0115203857421875;0.03585440292954445;0.0014828480780124664;0.0037920749746263027
-0.0229949951171875;-0.156280517578125;-1.0115203857421875;0.03585440292954445;0.0014828480780124664;0.0037920749746263027
-0.0229949951171875;-0.156280517578125;-1.0115203857421875;0.03585440292954445;0.0014828480780124664;0.0037920749746263027
-0.022369384765625;-0.1567535400390625;-1.0118255615234375;0.03979108855128288;-0.002519882982596755;0.005618470720946789
-0.022369384765625;-0.1567535400390625;-1.0118255615234375;0.03979108855128288;-0.002519882982596755;0.005618470720946789
-0.022369384765625;-0.1567535400390625;-1.0118255615234375;0.03979108855128288;-0.002519882982596755;0.005618470720946789
-0.022369384765625;-0.1567535400390625;-1.0118255615234375;0.03979108855128288;-0.002519882982596755;0.005618470720946789
-0.022369384765625;-0.1567535400390625;-1.0118255615234375;0.03979108855128288;-0.002519882982596755;0.005618470720946789
-0.0228271484375;-0.1569061279296875;-1.010528564453125;0.04046060889959335;-0.0034911378752440214;0.0057199373841285706
-0.0228271484375;-0.1569061279296875;-1.010528564453125;0.04046060889959335;-0.0034911378752440214;0.0057199373841285706
-0.0228271484375;-0.1569061279296875;-1.010528564453125;0.04046060889959335;-0.0034911378752440214;0.0057199373841285706
-0.0228271484375;-0.1569061279296875;-1.010528564453125;0.04046060889959335;-0.0034911378752440214;0.0057199373841285706
-0.0228271484375;-0.1569061279296875;-1.010528564453125;0.04046060889959335;-0.0034911378752440214;0.0057199373841285706
-0.023101806640625;-0.1566619873046875;-1.0095367431640625;0.03833114355802536;-0.0024461133871227503;0.0032802154310047626
-0.023101806640625;-0.1566619873046875;-1.0095367431640625;0.03833114355802536;-0.0024461133871227503;0.0032802154310047626
-0.023101806640625;-0.1566619873046875;-1.0095367431640625;0.03833114355802536;-0.0024461133871227503;0.0032802154310047626
-0.023101806640625;-0.1566619873046875;-1.0095367431640625;0.03833114355802536;-0.0024461133871227503;0.0032802154310047626
-0.023101806640625;-0.1566619873046875;-1.0095367431640625;0.03833114355802536;-0.0024461133871227503;0.0032802154310047626
-0.023345947265625;-0.1574249267578125;-1.007293701171875;0.03506956994533539;-0.002977147698402405;0.0037499971222132444
-0.023345947265625;-0.1574249267578125;-1.007293701171875;0.03506956994533539;-0.002977147698402405;0.0037499971222132444
-0.023345947265625;-0.1574249267578125;-1.007293701171875;0.03506956994533539;-0.002977147698402405;0.0037499971222132444
-0.023345947265625;-0.1574249267578125;-1.007293701171875;0.03506956994533539;-0.002977147698402405;0.0037499971222132444
-0.023345947265625;-0.1574249267578125;-1.007293701171875;0.03506956994533539;-0.002977147698402405;0.0037499971222132444
-0.02264404296875;-0.157989501953125;-1.0051422119140625;0.026549052447080612;-0.004524976946413517;0.0036818201187998056
-0.02264404296875;-0.157989501953125;-1.0051422119140625;0.026549052447080612;-0.004524976946413517;0.0036818201187998056
-0.02264404296875;-0.157989501953125;-1.0051422119140625;0.026549052447080612;-0.004524976946413517;0.0036818201187998056
-0.02264404296875;-0.157989501953125;-1.0051422119140625;0.026549052447080612;-0.004524976946413517;0.0036818201187998056
-0.02264404296875;-0.157989501953125;-1.0051422119140625;0.026549052447080612;-0.004524976946413517;0.0036818201187998056
-0.0220794677734375;-0.1580657958984375;-1.004730224609375;0.022109296172857285;-0.005874134600162506;0.001853293739259243
-0.0220794677734375;-0.1580657958984375;-1.004730224609375;0.022109296172857285;-0.005874134600162506;0.001853293739259243
-0.0220794677734375;-0.1580657958984375;-1.004730224609375;0.022109296172857285;-0.005874134600162506;0.001853293739259243
-0.0220794677734375;-0.1580657958984375;-1.004730224609375;0.022109296172857285;-0.005874134600162506;0.001853293739259243
-0.0220794677734375;-0.1580657958984375;-1.004730224609375;0.022109296172857285;-0.005874134600162506;0.001853293739259243
-0.022552490234375;-0.158416748046875;-1.005126953125;0.021564148366451263;-0.009956493973731995;-0.0031193606555461884
-0.022552490234375;-0.158416748046875;-1.005126953125;0.021564148366451263;-0.009956493973731995;-0.0031193606555461884
-0.022552490234375;-0.158416748046875;-1.005126953125;0.021564148366451263;-0.009956493973731995;-0.0031193606555461884
-0.022552490234375;-0.158416748046875;-1.005126953125;0.021564148366451263;-0.009956493973731995;-0.0031193606555461884
-0.022552490234375;-0.158416748046875;-1.005126953125;0.021564148366451263;-0.009956493973731995;-0.0031193606555461884
-0.021148681640625;-0.1586456298828125;-1.0054473876953125;0.023624103516340256;-0.014929681085050106;-0.00025513084256090224
-0.021148681640625;-0.1586456298828125;-1.0054473876953125;0.023624103516340256;-0.014929681085050106;-0.00025513084256090224
-0.021148681640625;-0.1586456298828125;-1.0054473876953125;0.023624103516340256;-0.014929681085050106;-0.00025513084256090224
-0.021148681640625;-0.1586456298828125;-1.0054473876953125;0.023624103516340256;-0.014929681085050106;-0.00025513084256090224
-0.021148681640625;-0.1586456298828125;-1.0054473876953125;0.023624103516340256;-0.014929681085050106;-0.00025513084256090224
-0.0216064453125;-0.1591339111328125;-1.0069122314453125;0.02858663722872734;-0.019634421914815903;0.0003587277897167951
-0.0216064453125;-0.1591339111328125;-1.0069122314453125;0.02858663722872734;-0.019634421914815903;0.0003587277897167951
-0.0216064453125;-0.1591339111328125;-1.0069122314453125;0.02858663722872734;-0.019634421914815903;0.0003587277897167951
-0.0216064453125;-0.1591339111328125;-1.0069122314453125;0.02858663722872734;-0.019634421914815903;0.0003587277897167951
-0.0216064453125;-0.1591339111328125;-1.0069122314453125;0.02858663722872734;-0.019634421914815903;0.0003587277897167951
-0.0216827392578125;-0.160369873046875;-1.0069427490234375;0.035050928592681885;-0.01745515689253807;-0.0031097731553018093
-0.0216827392578125;-0.160369873046875;-1.0069427490234375;0.035050928592681885;-0.01745515689253807;-0.0031097731553018093
-0.0216827392578125;-0.160369873046875;-1.0069427490234375;0.035050928592681885;-0.01745515689253807;-0.0031097731553018093
-0.0216827392578125;-0.160369873046875;-1.0069427490234375;0.035050928592681885;-0.01745515689253807;-0.0031097731553018093
-0.0216827392578125;-0.160369873046875;-1.0069427490234375;0.035050928592681885;-0.01745515689253807;-0.0031097731553018093
-0.021240234375;-0.1610565185546875;-1.0060577392578125;0.04237355664372444;-0.01931537501513958;-0.00013422331539914012
-0.021240234375;-0.1610565185546875;-1.0060577392578125;0.04237355664372444;-0.01931537501513958;-0.00013422331539914012
-0.021240234375;-0.1610565185546875;-1.0060577392578125;0.04237355664372444;-0.01931537501513958;-0.00013422331539914012
-0.021240234375;-0.1610565185546875;-1.0060577392578125;0.04237355664372444;-0.01931537501513958;-0.00013422331539914012
-0.021240234375;-0.1610565185546875;-1.0060577392578125;0.04237355664372444;-0.01931537501513958;-0.00013422331539914012
-0.021575927734375;-0.161590576171875;-1.0054473876953125;0.043120305985212326;-0.01835823431611061;0.0005060005933046341
-0.021575927734375;-0.161590576171875;-1.0054473876953125;0.043120305985212326;-0.01835823431611061;0.0005060005933046341
-0.021575927734375;-0.161590576171875;-1.0054473876953125;0.043120305985212326;-0.01835823431611061;0.0005060005933046341
-0.021575927734375;-0.161590576171875;-1.0054473876953125;0.043120305985212326;-0.01835823431611061;0.0005060005933046341
-0.021575927734375;-0.161590576171875;-1.0054473876953125;0.043120305985212326;-0.01835823431611061;0.0005060005933046341
-0.0226898193359375;-0.162261962890625;-1.0011138916015625;0.04205690696835518;-0.017655160278081894;0.004346012603491545
-0.0226898193359375;-0.162261962890625;-1.0011138916015625;0.04205690696835518;-0.017655160278081894;0.004346012603491545
-0.0226898193359375;-0.162261962890625;-1.0011138916015625;0.04205690696835518;-0.017655160278081894;0.004346012603491545
-0.0226898193359375;-0.162261962890625;-1.0011138916015625;0.04205690696835518;-0.017655160278081894;0.004346012603491545
-0.0226898193359375;-0.162261962890625;-1.0011138916015625;0.04205690696835518;-0.017655160278081894;0.004346012603491545
-0.021728515625;-0.16412353515625;-0.9951171875;0.03344610705971718;-0.008325307630002499;0.005253884010016918
-0.021728515625;-0.16412353515625;-0.9951171875;0.03344610705971718;-0.008325307630002499;0.005253884010016918
-0.021728515625;-0.16412353515625;-0.9951171875;0.03344610705971718;-0.008325307630002499;0.005253884010016918
-0.021728515625;-0.16412353515625;-0.9951171875;0.03344610705971718;-0.008325307630002499;0.005253884010016918
-0.021728515625;-0.16412353515625;-0.9951171875;0.03344610705971718;-0.008325307630002499;0.005253884010016918
-0.021942138671875;-0.16387939453125;-0.9904327392578125;0.0203406922519207;-0.008038219064474106;0.006385461427271366
-0.021942138671875;-0.16387939453125;-0.9904327392578125;0.0203406922519207;-0.008038219064474106;0.006385461427271366
-0.021942138671875;-0.16387939453125;-0.9904327392578125;0.0203406922519207;-0.008038219064474106;0.006385461427271366
-0.021942138671875;-0.16387939453125;-0.9904327392578125;0.0203406922519207;-0.008038219064474106;0.006385461427271366
-0.021942138671875;-0.16387939453125;-0.9904327392578125;0.0203406922519207;-0.008038219064474106;0.006385461427271366
-0.0214385986328125;-0.1627349853515625;-0.9886322021484375;0.01022733747959137;8.415588672505692e-05;0.009825199842453003
-0.0214385986328125;-0.1627349853515625;-0.9886322021484375;0.01022733747959137;8.415588672505692e-05;0.009825199842453003
-0.0214385986328125;-0.1627349853515625;-0.9886322021484375;0.01022733747959137;8.415588672505692e-05;0.009825199842453003
-0.0214385986328125;-0.1627349853515625;-0.9886322021484375;0.01022733747959137;8.415588672505692e-05;0.009825199842453003
-0.0214385986328125;-0.1627349853515625;-0.9886322021484375;0.01022733747959137;8.415588672505692e-05;0.009825199842453003
-0.0218353271484375;-0.161407470703125;-0.9927215576171875;0.008094144985079765;-0.00011691277177305892;0.00720491586253047
-0.0218353271484375;-0.161407470703125;-0.9927215576171875;0.008094144985079765;-0.00011691277177305892;0.00720491586253047
-0.0218353271484375;-0.161407470703125;-0.9927215576171875;0.008094144985079765;-0.00011691277177305892;0.00720491586253047
-0.0218353271484375;-0.161407470703125;-0.9927215576171875;0.008094144985079765;-0.00011691277177305892;0.00720491586253047
-0.0218353271484375;-0.161407470703125;-0.9927215576171875;0.008094144985079765;-0.00011691277177305892;0.00720491586253047
-0.02215576171875;-0.15887451171875;-1.0014495849609375;0.016823720186948776;-0.0015720640076324344;0.005865079816430807
-0.02215576171875;-0.15887451171875;-1.0014495849609375;0.016823720186948776;-0.0015720640076324344;0.005865079816430807
-0.02215576171875;-0.15887451171875;-1.0014495849609375;0.016823720186948776;-0.0015720640076324344;0.005865079816430807
-0.02215576171875;-0.15887451171875;-1.0014495849609375;0.016823720186948776;-0.0015720640076324344;0.005865079816430807
-0.02215576171875;-0.15887451171875;-1.0014495849609375;0.016823720186948776;-0.0015720640076324344;0.005865079816430807
-0.0225677490234375;-0.158355712890625;-1.0064544677734375;0.024264592677354813;-0.0023361248895525932;0.006715160794556141
-0.0225677490234375;-0.158355712890625;-1.0064544677734375;0.024264592677354813;-0.0023361248895525932;0.006715160794556141
-0.0225677490234375;-0.158355712890625;-1.0064544677734375;0.024264592677354813;-0.0023361248895525932;0.006715160794556141
-0.0225677490234375;-0.158355712890625;-1.0064544677734375;0.024264592677354813;-0.0023361248895525932;0.006715160794556141
-0.0225677490234375;-0.158355712890625;-1.0064544677734375;0.024264592677354813;-0.0023361248895525932;0.006715160794556141
-0.0236968994140625;-0.1583099365234375;-1.0087127685546875;0.03380110487341881;0.0030988543294370174;0.007733553647994995
-0.0236968994140625;-0.1583099365234375;-1.0087127685546875;0.03380110487341881;0.0030988543294370174;0.007733553647994995
-0.0236968994140625;-0.1583099365234375;-1.0087127685546875;0.03380110487341881;0.0030988543294370174;0.007733553647994995
-0.0236968994140625;-0.1583099365234375;-1.0087127685546875;0.03380110487341881;0.0030988543294370174;0.007733553647994995
-0.0236968994140625;-0.1583099365234375;-1.0087127685546875;0.03380110487341881;0.0030988543294370174;0.007733553647994995
-0.0235137939453125;-0.15936279296875;-1.008697509765625;0.03942010924220085;0.00509835546836257;0.012955745682120323
-0.0235137939453125;-0.15936279296875;-1.008697509765625;0.03942010924220085;0.00509835546836257;0.012955745682120323
-0.0235137939453125;-0.15936279296875;-1.008697509765625;0.03942010924220085;0.00509835546836257;0.012955745682120323
-0.0235137939453125;-0.15936279296875;-1.008697509765625;0.03942010924220085;0.00509835546836257;0.012955745682120323
-0.0235137939453125;-0.15936279296875;-1.008697509765625;0.03942010924220085;0.00509835546836257;0.012955745682120323
-0.0216827392578125;-0.1620635986328125;-1.006805419921875;0.03683391585946083;0.012801283039152622;0.013199425302445889
-0.0216827392578125;-0.1620635986328125;-1.006805419921875;0.03683391585946083;0.012801283039152622;0.013199425302445889
-0.0216827392578125;-0.1620635986328125;-1.006805419921875;0.03683391585946083;0.012801283039152622;0.013199425302445889
-0.0216827392578125;-0.1620635986328125;-1.006805419921875;0.03683391585946083;0.012801283039152622;0.013199425302445889
-0.0216827392578125;-0.1620635986328125;-1.006805419921875;0.03683391585946083;0.012801283039152622;0.013199425302445889
-0.020355224609375;-0.1645355224609375;-0.99884033203125;0.02328801155090332;0.02533252164721489;0.018865033984184265
-0.020355224609375;-0.1645355224609375;-0.99884033203125;0.02328801155090332;0.02533252164721489;0.018865033984184265
-0.020355224609375;-0.1645355224609375;-0.99884033203125;0.02328801155090332;0.02533252164721489;0.018865033984184265
-0.020355224609375;-0.1645355224609375;-0.99884033203125;0.02328801155090332;0.02533252164721489;0.018865033984184265
-0.020355224609375;-0.1645355224609375;-0.99884033203125;0.02328801155090332;0.02533252164721489;0.018865033984184265
-0.01971435546875;-0.164947509765625;-0.9924163818359375;0.011522432789206505;0.028557341545820236;0.018434135243296623
-0.01971435546875;-0.164947509765625;-0.9924163818359375;0.011522432789206505;0.028557341545820236;0.018434135243296623
-0.01971435546875;-0.164947509765625;-0.9924163818359375;0.011522432789206505;0.028557341545820236;0.018434135243296623
-0.01971435546875;-0.164947509765625;-0.9924163818359375;0.011522432789206505;0.028557341545820236;0.018434135243296623
-0.01971435546875;-0.164947509765625;-0.9924163818359375;0.011522432789206505;0.028557341545820236;0.018434135243296623
-0.0187225341796875;-0.1630096435546875;-0.9972076416015625;0.002043177140876651;0.015562714077532291;0.00942173134535551
-0.0187225341796875;-0.1630096435546875;-0.9972076416015625;0.002043177140876651;0.015562714077532291;0.00942173134535551
-0.0187225341796875;-0.1630096435546875;-0.9972076416015625;0.002043177140876651;0.015562714077532291;0.00942173134535551
-0.0187225341796875;-0.1630096435546875;-0.9972076416015625;0.002043177140876651;0.015562714077532291;0.00942173134535551
-0.0187225341796875;-0.1630096435546875;-0.9972076416015625;0.002043177140876651;0.015562714077532291;0.00942173134535551
-0.0190277099609375;-0.1605224609375;-1.0084228515625;0.0041582598350942135;-0.007473628968000412;0.0026764769572764635
-0.0190277099609375;-0.1605224609375;-1.0084228515625;0.0041582598350942135;-0.007473628968000412;0.0026764769572764635
-0.0190277099609375;-0.1605224609375;-1.0084228515625;0.0041582598350942135;-0.007473628968000412;0.0026764769572764635
-0.0190277099609375;-0.1605224609375;-1.0084228515625;0.0041582598350942135;-0.007473628968000412;0.0026764769572764635
-0.0190277099609375;-0.1605224609375;-1.0084228515625;0.01179167814552784;-0.030406374484300613;-0.004021373111754656
-0.0220947265625;-0.160064697265625;-1.017791748046875;0.01179167814552784;-0.030406374484300613;-0.004021373111754656
-0.0220947265625;-0.160064697265625;-1.017791748046875;0.01179167814552784;-0.030406374484300613;-0.004021373111754656
-0.0220947265625;-0.160064697265625;-1.017791748046875;0.01179167814552784;-0.030406374484300613;-0.004021373111754656
-0.0220947265625;-0.160064697265625;-1.017791748046875;0.01179167814552784;-0.030406374484300613;-0.004021373111754656
-0.0220947265625;-0.160064697265625;-1.017791748046875;0.011953066103160381;-0.05126212164759636;-0.00040746363811194897
-0.024169921875;-0.16253662109375;-1.0196685791015625;0.011953066103160381;-0.05126212164759636;-0.00040746363811194897
-0.024169921875;-0.16253662109375;-1.0196685791015625;0.011953066103160381;-0.05126212164759636;-0.00040746363811194897
-0.024169921875;-0.16253662109375;-1.0196685791015625;0.011953066103160381;-0.05126212164759636;-0.00040746363811194897
-0.024169921875;-0.16253662109375;-1.0196685791015625;0.011953066103160381;-0.05126212164759636;-0.00040746363811194897
-0.024169921875;-0.16253662109375;-1.0196685791015625;0.006918093655258417;-0.06174539029598236;0.0059905145317316055
-0.0233612060546875;-0.166015625;-1.0103302001953125;0.006918093655258417;-0.06174539029598236;0.0059905145317316055
-0.0233612060546875;-0.166015625;-1.0103302001953125;0.006918093655258417;-0.06174539029598236;0.0059905145317316055
-0.0233612060546875;-0.166015625;-1.0103302001953125;0.006918093655258417;-0.06174539029598236;0.0059905145317316055
-0.0233612060546875;-0.166015625;-1.0103302001953125;0.006918093655258417;-0.06174539029598236;0.0059905145317316055
-0.0259246826171875;-0.16534423828125;-0.998138427734375;0.003492735791951418;-0.0554366260766983;0.0051833102479577065
-0.0259246826171875;-0.16534423828125;-0.998138427734375;0.003492735791951418;-0.0554366260766983;0.0051833102479577065
-0.0259246826171875;-0.16534423828125;-0.998138427734375;0.003492735791951418;-0.0554366260766983;0.0051833102479577065
-0.0259246826171875;-0.16534423828125;-0.998138427734375;0.003492735791951418;-0.0554366260766983;0.0051833102479577065
-0.0259246826171875;-0.16534423828125;-0.998138427734375;0.003492735791951418;-0.0554366260766983;0.0051833102479577065
-0.029327392578125;-0.1634979248046875;-0.9906158447265625;0.002572879893705249;-0.028740568086504936;0.00520647969096899
-0.029327392578125;-0.1634979248046875;-0.9906158447265625;0.002572879893705249;-0.028740568086504936;0.00520647969096899
-0.029327392578125;-0.1634979248046875;-0.9906158447265625;0.002572879893705249;-0.028740568086504936;0.00520647969096899
-0.029327392578125;-0.1634979248046875;-0.9906158447265625;0.002572879893705249;-0.028740568086504936;0.00520647969096899
-0.0285491943359375;-0.16473388671875;-0.9875640869140625;0.0035329493694007397;0.002656503114849329;0.00558118661865592
-0.0285491943359375;-0.16473388671875;-0.9875640869140625;0.0035329493694007397;0.002656503114849329;0.00558118661865592
-0.0285491943359375;-0.16473388671875;-0.9875640869140625;0.0035329493694007397;0.002656503114849329;0.00558118661865592
-0.0285491943359375;-0.16473388671875;-0.9875640869140625;0.0035329493694007397;0.002656503114849329;0.00558118661865592
-0.0285491943359375;-0.16473388671875;-0.9875640869140625;0.0035329493694007397;0.002656503114849329;0.00558118661865592
-0.0264434814453125;-0.161712646484375;-0.99102783203125;0.012770922854542732;0.023126624524593353;0.005894640926271677
-0.0264434814453125;-0.161712646484375;-0.99102783203125;0.012770922854542732;0.023126624524593353;0.005894640926271677
-0.0264434814453125;-0.161712646484375;-0.99102783203125;0.012770922854542732;0.023126624524593353;0.005894640926271677
-0.0264434814453125;-0.161712646484375;-0.99102783203125;0.012770922854542732;0.023126624524593353;0.005894640926271677
-0.0264434814453125;-0.161712646484375;-0.99102783203125;0.012770922854542732;0.023126624524593353;0.005894640926271677
-0.0221099853515625;-0.1605377197265625;-0.9976043701171875;0.0273906122893095;0.04488944262266159;0.008102667517960072
-0.0221099853515625;-0.1605377197265625;-0.9976043701171875;0.0273906122893095;0.04488944262266159;0.008102667517960072
-0.0221099853515625;-0.1605377197265625;-0.9976043701171875;0.0273906122893095;0.04488944262266159;0.008102667517960072
-0.0221099853515625;-0.1605377197265625;-0.9976043701171875;0.0273906122893095;0.04488944262266159;0.008102667517960072
-0.0221099853515625;-0.1605377197265625;-0.9976043701171875;0.0273906122893095;0.04488944262266159;0.008102667517960072
-0.018341064453125;-0.16015625;-1.003509521484375;0.04694220796227455;0.06161702424287796;0.006301305256783962
-0.018341064453125;-0.16015625;-1.003509521484375;0.04694220796227455;0.06161702424287796;0.006301305256783962
-0.018341064453125;-0.16015625;-1.003509521484375;0.04694220796227455;0.06161702424287796;0.006301305256783962
-0.018341064453125;-0.16015625;-1.003509521484375;0.04694220796227455;0.06161702424287796;0.006301305256783962
-0.018341064453125;-0.16015625;-1.003509521484375;0.04694220796227455;0.06161702424287796;0.006301305256783962
-0.018341064453125;-0.16015625;-1.003509521484375;0.04694220796227455;0.06161702424287796;0.006301305256783962
-0.01593017578125;-0.1631011962890625;-1.009124755859375;0.06425248831510544;0.06293715536594391;0.011426026001572609
-0.01593017578125;-0.1631011962890625;-1.009124755859375;0.06425248831510544;0.06293715536594391;0.011426026001572609
-0.01593017578125;-0.1631011962890625;-1.009124755859375;0.06425248831510544;0.06293715536594391;0.011426026001572609
-0.01593017578125;-0.1631011962890625;-1.009124755859375;0.06425248831510544;0.06293715536594391;0.011426026001572609
-0.01409912109375;-0.16552734375;-1.0135650634765625;0.06425248831510544;0.06293715536594391;0.011426026001572609
-0.01409912109375;-0.16552734375;-1.0135650634765625;0.07593977451324463;0.05320170149207115;0.009492305107414722
-0.01409912109375;-0.16552734375;-1.0135650634765625;0.07593977451324463;0.05320170149207115;0.009492305107414722
-0.01409912109375;-0.16552734375;-1.0135650634765625;0.07593977451324463;0.05320170149207115;0.009492305107414722
-0.01409912109375;-0.16552734375;-1.0135650634765625;0.07593977451324463;0.05320170149207115;0.009492305107414722
-0.0160369873046875;-0.1669769287109375;-1.0122222900390625;0.08100004494190216;0.04169125482439995;0.009245430119335651
-0.0160369873046875;-0.1669769287109375;-1.0122222900390625;0.08100004494190216;0.04169125482439995;0.009245430119335651
-0.0160369873046875;-0.1669769287109375;-1.0122222900390625;0.08100004494190216;0.04169125482439995;0.009245430119335651
-0.0160369873046875;-0.1669769287109375;-1.0122222900390625;0.08100004494190216;0.04169125482439995;0.009245430119335651
-0.0160369873046875;-0.1669769287109375;-1.0122222900390625;0.08100004494190216;0.04169125482439995;0.009245430119335651
-0.018585205078125;-0.1682586669921875;-1.0125274658203125;0.08481582254171371;0.027293140068650246;0.006856308318674564
-0.018585205078125;-0.1682586669921875;-1.0125274658203125;0.08481582254171371;0.027293140068650246;0.006856308318674564
-0.018585205078125;-0.1682586669921875;-1.0125274658203125;0.08481582254171371;0.027293140068650246;0.006856308318674564
-0.018585205078125;-0.1682586669921875;-1.0125274658203125;0.08481582254171371;0.027293140068650246;0.006856308318674564
-0.018585205078125;-0.1682586669921875;-1.0125274658203125;0.08481582254171371;0.027293140068650246;0.006856308318674564
-0.020751953125;-0.1699981689453125;-1.0126953125;0.08028312027454376;0.017853299155831337;0.0026146916206926107
-0.020751953125;-0.1699981689453125;-1.0126953125;0.08028312027454376;0.017853299155831337;0.0026146916206926107
-0.020751953125;-0.1699981689453125;-1.0126953125;0.08028312027454376;0.017853299155831337;0.0026146916206926107
-0.020751953125;-0.1699981689453125;-1.0126953125;0.08028312027454376;0.017853299155831337;0.0026146916206926107
-0.020751953125;-0.1699981689453125;-1.0126953125;0.08028312027454376;0.017853299155831337;0.0026146916206926107
-0.023101806640625;-0.171173095703125;-1.009490966796875;0.07131705433130264;0.007773500867187977;0.0020040287636220455
-0.023101806640625;-0.171173095703125;-1.009490966796875;0.07131705433130264;0.007773500867187977;0.0020040287636220455
-0.023101806640625;-0.171173095703125;-1.009490966796875;0.07131705433130264;0.007773500867187977;0.0020040287636220455
-0.023101806640625;-0.171173095703125;-1.009490966796875;0.07131705433130264;0.007773500867187977;0.0020040287636220455
-0.023101806640625;-0.171173095703125;-1.009490966796875;0.07131705433130264;0.007773500867187977;0.0020040287636220455
-0.0229644775390625;-0.1724853515625;-1.0075836181640625;0.059537895023822784;0.0033872744534164667;0.003087668912485242
-0.0229644775390625;-0.1724853515625;-1.0075836181640625;0.059537895023822784;0.0033872744534164667;0.003087668912485242
-0.0229644775390625;-0.1724853515625;-1.0075836181640625;0.059537895023822784;0.0033872744534164667;0.003087668912485242
-0.0229644775390625;-0.1724853515625;-1.0075836181640625;0.059537895023822784;0.0033872744534164667;0.003087668912485242
-0.0229644775390625;-0.1724853515625;-1.0075836181640625;0.059537895023822784;0.0033872744534164667;0.003087668912485242
-0.0222625732421875;-0.1728057861328125;-1.0051116943359375;0.0475321002304554;-0.0031401331070810556;0.009123723953962326
-0.0222625732421875;-0.1728057861328125;-1.0051116943359375;0.0475321002304554;-0.0031401331070810556;0.009123723953962326
-0.0222625732421875;-0.1728057861328125;-1.0051116943359375;0.0475321002304554;-0.0031401331070810556;0.009123723953962326
-0.0222625732421875;-0.1728057861328125;-1.0051116943359375;0.0475321002304554;-0.0031401331070810556;0.009123723953962326
-0.0222625732421875;-0.1728057861328125;-1.0051116943359375;0.0475321002304554;-0.0031401331070810556;0.009123723953962326
-0.019989013671875;-0.1721038818359375;-1.002105712890625;0.03723977878689766;-0.0016080166678875685;0.011040134355425835
-0.019989013671875;-0.1721038818359375;-1.002105712890625;0.03723977878689766;-0.0016080166678875685;0.011040134355425835
-0.019989013671875;-0.1721038818359375;-1.002105712890625;0.03723977878689766;-0.0016080166678875685;0.011040134355425835
-0.019989013671875;-0.1721038818359375;-1.002105712890625;0.03723977878689766;-0.0016080166678875685;0.011040134355425835
-0.019989013671875;-0.1721038818359375;-1.002105712890625;0.03723977878689766;-0.0016080166678875685;0.011040134355425835
-0.01824951171875;-0.1715850830078125;-1.0000457763671875;0.029762156307697296;-0.0008082693675532937;0.010973022319376469
-0.01824951171875;-0.1715850830078125;-1.0000457763671875;0.029762156307697296;-0.0008082693675532937;0.010973022319376469
-0.01824951171875;-0.1715850830078125;-1.0000457763671875;0.029762156307697296;-0.0008082693675532937;0.010973022319376469
-0.01824951171875;-0.1715850830078125;-1.0000457763671875;0.029762156307697296;-0.0008082693675532937;0.010973022319376469
-0.01824951171875;-0.1715850830078125;-1.0000457763671875;0.029762156307697296;-0.0008082693675532937;0.010973022319376469
-0.0182342529296875;-0.171112060546875;-1.0011444091796875;0.02611229382455349;0.0024546354543417692;0.012982111424207687
-0.0182342529296875;-0.171112060546875;-1.0011444091796875;0.02611229382455349;0.0024546354543417692;0.012982111424207687
-0.0182342529296875;-0.171112060546875;-1.0011444091796875;0.02611229382455349;0.0024546354543417692;0.012982111424207687
-0.0182342529296875;-0.171112060546875;-1.0011444091796875;0.02611229382455349;0.0024546354543417692;0.012982111424207687
-0.0182342529296875;-0.171112060546875;-1.0011444091796875;0.02611229382455349;0.0024546354543417692;0.012982111424207687
-0.0183563232421875;-0.17071533203125;-1.0023193359375;0.02726277895271778;0.0020330571569502354;0.009184443391859531
-0.0183563232421875;-0.17071533203125;-1.0023193359375;0.02726277895271778;0.0020330571569502354;0.009184443391859531
-0.0183563232421875;-0.17071533203125;-1.0023193359375;0.02726277895271778;0.0020330571569502354;0.009184443391859531
-0.0183563232421875;-0.17071533203125;-1.0023193359375;0.02726277895271778;0.0020330571569502354;0.009184443391859531
-0.0183563232421875;-0.17071533203125;-1.0023193359375;0.02726277895271778;0.0020330571569502354;0.009184443391859531
-0.018890380859375;-0.1714630126953125;-1.0030364990234375;0.033431727439165115;0.0031036478467285633;0.00848563015460968
-0.018890380859375;-0.1714630126953125;-1.0030364990234375;0.033431727439165115;0.0031036478467285633;0.00848563015460968
-0.018890380859375;-0.1714630126953125;-1.0030364990234375;0.033431727439165115;0.0031036478467285633;0.00848563015460968
-0.018890380859375;-0.1714630126953125;-1.0030364990234375;0.033431727439165115;0.0031036478467285633;0.00848563015460968
-0.018890380859375;-0.1714630126953125;-1.0030364990234375;0.033431727439165115;0.0031036478467285633;0.00848563015460968
-0.0200042724609375;-0.170989990234375;-1.0030517578125;0.03918415307998657;0.0008146609761752188;0.007241401355713606
-0.0200042724609375;-0.170989990234375;-1.0030517578125;0.03918415307998657;0.0008146609761752188;0.007241401355713606
-0.0200042724609375;-0.170989990234375;-1.0030517578125;0.03918415307998657;0.0008146609761752188;0.007241401355713606
-0.0200042724609375;-0.170989990234375;-1.0030517578125;0.03918415307998657;0.0008146609761752188;0.007241401355713606
-0.0200042724609375;-0.170989990234375;-1.0030517578125;0.03918415307998657;0.0008146609761752188;0.007241401355713606
-0.02056884765625;-0.1729583740234375;-1.00494384765625;0.04914624243974686;0.0026141589041799307;0.008671784773468971
-0.02056884765625;-0.1729583740234375;-1.00494384765625;0.04914624243974686;0.0026141589041799307;0.008671784773468971
-0.02056884765625;-0.1729583740234375;-1.00494384765625;0.04914624243974686;0.0026141589041799307;0.008671784773468971
-0.02056884765625;-0.1729583740234375;-1.00494384765625;0.04914624243974686;0.0026141589041799307;0.008671784773468971
-0.02056884765625;-0.1729583740234375;-1.00494384765625;0.04914624243974686;0.0026141589041799307;0.008671784773468971
-0.0212860107421875;-0.1730499267578125;-1.0066680908203125;0.053533267229795456;0.0017957695527002215;0.006199572701007128
-0.0212860107421875;-0.1730499267578125;-1.0066680908203125;0.053533267229795456;0.0017957695527002215;0.006199572701007128
-0.0212860107421875;-0.1730499267578125;-1.0066680908203125;0.053533267229795456;0.0017957695527002215;0.006199572701007128
-0.0212860107421875;-0.1730499267578125;-1.0066680908203125;0.053533267229795456;0.0017957695527002215;0.006199572701007128
-0.0212860107421875;-0.1730499267578125;-1.0066680908203125;0.053533267229795456;0.0017957695527002215;0.006199572701007128
-0.0220794677734375;-0.1736297607421875;-1.0074310302734375;0.0651899203658104;-0.010135725140571594;0.004890629090368748
-0.0220794677734375;-0.1736297607421875;-1.0074310302734375;0.0651899203658104;-0.010135725140571594;0.004890629090368748
-0.0220794677734375;-0.1736297607421875;-1.0074310302734375;0.0651899203658104;-0.010135725140571594;0.004890629090368748
-0.0220794677734375;-0.1736297607421875;-1.0074310302734375;0.0651899203658104;-0.010135725140571594;0.004890629090368748
-0.0220794677734375;-0.1736297607421875;-1.0074310302734375;0.0651899203658104;-0.010135725140571594;0.004890629090368748
-0.0227813720703125;-0.1729888916015625;-1.0065155029296875;0.06955910474061966;-0.014052968472242355;0.004568119999021292
-0.0227813720703125;-0.1729888916015625;-1.0065155029296875;0.06955910474061966;-0.014052968472242355;0.004568119999021292
-0.0227813720703125;-0.1729888916015625;-1.0065155029296875;0.06955910474061966;-0.014052968472242355;0.004568119999021292
-0.0227813720703125;-0.1729888916015625;-1.0065155029296875;0.06955910474061966;-0.014052968472242355;0.004568119999021292
-0.0227813720703125;-0.1729888916015625;-1.0065155029296875;0.06955910474061966;-0.014052968472242355;0.004568119999021292
-0.0225067138671875;-0.175048828125;-1.0016632080078125;0.07132717967033386;-0.008203867822885513;0.00815220270305872
-0.0225067138671875;-0.175048828125;-1.0016632080078125;0.07132717967033386;-0.008203867822885513;0.00815220270305872
-0.0225067138671875;-0.175048828125;-1.0016632080078125;0.07132717967033386;-0.008203867822885513;0.00815220270305872
-0.0225067138671875;-0.175048828125;-1.0016632080078125;0.07132717967033386;-0.008203867822885513;0.00815220270305872
-0.0225067138671875;-0.175048828125;-1.0016632080078125;0.07132717967033386;-0.008203867822885513;0.00815220270305872
-0.021881103515625;-0.1762542724609375;-0.9972076416015625;0.0680922344326973;-0.0030269487760961056;0.010537062771618366
-0.021881103515625;-0.1762542724609375;-0.9972076416015625;0.0680922344326973;-0.0030269487760961056;0.010537062771618366
-0.021881103515625;-0.1762542724609375;-0.9972076416015625;0.0680922344326973;-0.0030269487760961056;0.010537062771618366
-0.021881103515625;-0.1762542724609375;-0.9972076416015625;0.0680922344326973;-0.0030269487760961056;0.010537062771618366
-0.021881103515625;-0.1762542724609375;-0.9972076416015625;0.0680922344326973;-0.0030269487760961056;0.010537062771618366
-0.0220489501953125;-0.176605224609375;-0.9949951171875;0.0649544969201088;0.0033007217571139336;0.011023356579244137
-0.0220489501953125;-0.176605224609375;-0.9949951171875;0.0649544969201088;0.0033007217571139336;0.011023356579244137
-0.0220489501953125;-0.176605224609375;-0.9949951171875;0.0649544969201088;0.0033007217571139336;0.011023356579244137
-0.0220489501953125;-0.176605224609375;-0.9949951171875;0.0649544969201088;0.0033007217571139336;0.011023356579244137
-0.0220489501953125;-0.176605224609375;-0.9949951171875;0.0649544969201088;0.0033007217571139336;0.011023356579244137
-0.022918701171875;-0.1756744384765625;-0.9943695068359375;0.0575687550008297;0.001157143502496183;0.00999138131737709
-0.022918701171875;-0.1756744384765625;-0.9943695068359375;0.0575687550008297;0.001157143502496183;0.00999138131737709
-0.022918701171875;-0.1756744384765625;-0.9943695068359375;0.0575687550008297;0.001157143502496183;0.00999138131737709
-0.022918701171875;-0.1756744384765625;-0.9943695068359375;0.0575687550008297;0.001157143502496183;0.00999138131737709
-0.022918701171875;-0.1756744384765625;-0.9943695068359375;0.0575687550008297;0.001157143502496183;0.00999138131737709
-0.0220794677734375;-0.174468994140625;-0.9944915771484375;0.04989219084382057;-0.002241050126031041;0.006908506155014038
-0.0220794677734375;-0.174468994140625;-0.9944915771484375;0.04989219084382057;-0.002241050126031041;0.006908506155014038
-0.0220794677734375;-0.174468994140625;-0.9944915771484375;0.04989219084382057;-0.002241050126031041;0.006908506155014038
-0.0220794677734375;-0.174468994140625;-0.9944915771484375;0.04989219084382057;-0.002241050126031041;0.006908506155014038
-0.0220794677734375;-0.174468994140625;-0.9944915771484375;0.04989219084382057;-0.002241050126031041;0.006908506155014038
-0.0221710205078125;-0.173431396484375;-0.99462890625;0.04710226505994797;-0.0014026869321241975;0.009681922383606434
-0.0221710205078125;-0.173431396484375;-0.99462890625;0.04710226505994797;-0.0014026869321241975;0.009681922383606434
-0.0221710205078125;-0.173431396484375;-0.99462890625;0.04710226505994797;-0.0014026869321241975;0.009681922383606434
-0.0221710205078125;-0.173431396484375;-0.99462890625;0.04710226505994797;-0.0014026869321241975;0.009681922383606434
-0.0221710205078125;-0.173431396484375;-0.99462890625;0.04710226505994797;-0.0014026869321241975;0.009681922383606434
-0.0224761962890625;-0.1739654541015625;-0.9948272705078125;0.04506121948361397;0.0006237123161554337;0.006856841035187244
-0.0224761962890625;-0.1739654541015625;-0.9948272705078125;0.04506121948361397;0.0006237123161554337;0.006856841035187244
-0.0224761962890625;-0.1739654541015625;-0.9948272705078125;0.04506121948361397;0.0006237123161554337;0.006856841035187244
-0.0224761962890625;-0.1739654541015625;-0.9948272705078125;0.04506121948361397;0.0006237123161554337;0.006856841035187244
-0.0224761962890625;-0.1739654541015625;-0.9948272705078125;0.04506121948361397;0.0006237123161554337;0.006856841035187244
-0.02130126953125;-0.1753387451171875;-0.9969329833984375;0.04139804095029831;0.001916410750709474;0.009520534425973892
-0.02130126953125;-0.1753387451171875;-0.9969329833984375;0.04139804095029831;0.001916410750709474;0.009520534425973892
-0.02130126953125;-0.1753387451171875;-0.9969329833984375;0.04139804095029831;0.001916410750709474;0.009520534425973892
-0.02130126953125;-0.1753387451171875;-0.9969329833984375;0.04139804095029831;0.001916410750709474;0.009520534425973892
-0.02130126953125;-0.1753387451171875;-0.9969329833984375;0.04139804095029831;0.001916410750709474;0.009520534425973892
-0.020294189453125;-0.17645263671875;-0.9984130859375;0.04645591601729393;0.012529374100267887;0.011457717977464199
-0.020294189453125;-0.17645263671875;-0.9984130859375;0.04645591601729393;0.012529374100267887;0.011457717977464199
-0.020294189453125;-0.17645263671875;-0.9984130859375;0.04645591601729393;0.012529374100267887;0.011457717977464199
-0.020294189453125;-0.17645263671875;-0.9984130859375;0.04645591601729393;0.012529374100267887;0.011457717977464199
-0.020294189453125;-0.17645263671875;-0.9984130859375;0.04645591601729393;0.012529374100267887;0.011457717977464199
-0.01953125;-0.1767730712890625;-1.0003814697265625;0.049739059060811996;0.010889398865401745;0.009552759118378162
-0.01953125;-0.1767730712890625;-1.0003814697265625;0.049739059060811996;0.010889398865401745;0.009552759118378162
-0.01953125;-0.1767730712890625;-1.0003814697265625;0.049739059060811996;0.010889398865401745;0.009552759118378162
-0.01953125;-0.1767730712890625;-1.0003814697265625;0.049739059060811996;0.010889398865401745;0.009552759118378162
-0.01953125;-0.1767730712890625;-1.0003814697265625;0.049739059060811996;0.010889398865401745;0.009552759118378162
-0.0194091796875;-0.1778564453125;-1.0025177001953125;0.053154829889535904;0.012656140141189098;0.010013485327363014
-0.0194091796875;-0.1778564453125;-1.0025177001953125;0.053154829889535904;0.012656140141189098;0.010013485327363014
-0.0194091796875;-0.1778564453125;-1.0025177001953125;0.053154829889535904;0.012656140141189098;0.010013485327363014
-0.0194091796875;-0.1778564453125;-1.0025177001953125;0.053154829889535904;0.012656140141189098;0.010013485327363014
-0.0194091796875;-0.1778564453125;-1.0025177001953125;0.053154829889535904;0.012656140141189098;0.010013485327363014
-0.0189208984375;-0.17913818359375;-1.004852294921875;0.059247344732284546;0.0084262415766716;0.01278849970549345
-0.0189208984375;-0.17913818359375;-1.004852294921875;0.059247344732284546;0.0084262415766716;0.01278849970549345
-0.0189208984375;-0.17913818359375;-1.004852294921875;0.059247344732284546;0.0084262415766716;0.01278849970549345
-0.0189208984375;-0.17913818359375;-1.004852294921875;0.059247344732284546;0.0084262415766716;0.01278849970549345
-0.0189208984375;-0.17913818359375;-1.004852294921875;0.059247344732284546;0.0084262415766716;0.01278849970549345
-0.0191192626953125;-0.18206787109375;-1.0075531005859375;0.06431001424789429;0.008435562252998352;0.012777580879628658
-0.0191192626953125;-0.18206787109375;-1.0075531005859375;0.06431001424789429;0.008435562252998352;0.012777580879628658
-0.0191192626953125;-0.18206787109375;-1.0075531005859375;0.06431001424789429;0.008435562252998352;0.012777580879628658
-0.0191192626953125;-0.18206787109375;-1.0075531005859375;0.06431001424789429;0.008435562252998352;0.012777580879628658
-0.0191192626953125;-0.18206787109375;-1.0075531005859375;0.0665646493434906;0.011419634334743023;0.011788482777774334
-0.0191497802734375;-0.1825714111328125;-1.0096893310546875;0.0665646493434906;0.011419634334743023;0.011788482777774334
-0.0191497802734375;-0.1825714111328125;-1.0096893310546875;0.0665646493434906;0.011419634334743023;0.011788482777774334
-0.0191497802734375;-0.1825714111328125;-1.0096893310546875;0.0665646493434906;0.011419634334743023;0.011788482777774334
-0.0191497802734375;-0.1825714111328125;-1.0096893310546875;0.0665646493434906;0.011419634334743023;0.011788482777774334
-0.0191497802734375;-0.1825714111328125;-1.0096893310546875;0.06988773494958878;0.006728742737323046;0.007370031904429197
-0.0194854736328125;-0.1851806640625;-1.007598876953125;0.06988773494958878;0.006728742737323046;0.007370031904429197
-0.0194854736328125;-0.1851806640625;-1.007598876953125;0.06988773494958878;0.006728742737323046;0.007370031904429197
-0.0194854736328125;-0.1851806640625;-1.007598876953125;0.06988773494958878;0.006728742737323046;0.007370031904429197
-0.0194854736328125;-0.1851806640625;-1.007598876953125;0.06988773494958878;0.006728742737323046;0.007370031904429197
-0.0193328857421875;-0.1866607666015625;-1.0066375732421875;0.06654120981693268;0.0005262406193651259;0.01314909104257822
-0.0193328857421875;-0.1866607666015625;-1.0066375732421875;0.06654120981693268;0.0005262406193651259;0.01314909104257822
-0.0193328857421875;-0.1866607666015625;-1.0066375732421875;0.06654120981693268;0.0005262406193651259;0.01314909104257822
-0.0193328857421875;-0.1866607666015625;-1.0066375732421875;0.06654120981693268;0.0005262406193651259;0.01314909104257822
-0.0193328857421875;-0.1866607666015625;-1.0066375732421875;0.06654120981693268;0.0005262406193651259;0.01314909104257822
-0.019287109375;-0.1882781982421875;-1.0030670166015625;0.06015947833657265;0.0008673915872350335;0.011553592048585415
-0.019287109375;-0.1882781982421875;-1.0030670166015625;0.06015947833657265;0.0008673915872350335;0.011553592048585415
-0.019287109375;-0.1882781982421875;-1.0030670166015625;0.06015947833657265;0.0008673915872350335;0.011553592048585415
-0.019287109375;-0.1882781982421875;-1.0030670166015625;0.06015947833657265;0.0008673915872350335;0.011553592048585415
-0.019287109375;-0.1882781982421875;-1.0030670166015625;0.06015947833657265;0.0008673915872350335;0.011553592048585415
-0.0191497802734375;-0.188629150390625;-0.9997100830078125;0.05294923484325409;-0.0005097290268167853;0.010765562765300274
-0.0191497802734375;-0.188629150390625;-0.9997100830078125;0.05294923484325409;-0.0005097290268167853;0.010765562765300274
-0.0191497802734375;-0.188629150390625;-0.9997100830078125;0.05294923484325409;-0.0005097290268167853;0.010765562765300274
-0.0191497802734375;-0.188629150390625;-0.9997100830078125;0.05294923484325409;-0.0005097290268167853;0.010765562765300274
-0.0191497802734375;-0.188629150390625;-0.9997100830078125;0.05294923484325409;-0.0005097290268167853;0.010765562765300274
-0.018280029296875;-0.18939208984375;-0.9981536865234375;0.04658907279372215;-0.0011494202772155404;0.00926220789551735
-0.018280029296875;-0.18939208984375;-0.9981536865234375;0.04658907279372215;-0.0011494202772155404;0.00926220789551735
-0.018280029296875;-0.18939208984375;-0.9981536865234375;0.04658907279372215;-0.0011494202772155404;0.00926220789551735
-0.018280029296875;-0.18939208984375;-0.9981536865234375;0.04658907279372215;-0.0011494202772155404;0.00926220789551735
-0.018280029296875;-0.18939208984375;-0.9981536865234375;0.04658907279372215;-0.0011494202772155404;0.00926220789551735
-0.018280029296875;-0.18939208984375;-0.9981536865234375;0.04095941781997681;-1.2783173588104546e-05;0.0073418025858700275
-0.018524169921875;-0.1897125244140625;-0.996246337890625;0.04095941781997681;-1.2783173588104546e-05;0.0073418025858700275
-0.018524169921875;-0.1897125244140625;-0.996246337890625;0.04095941781997681;-1.2783173588104546e-05;0.0073418025858700275
-0.018524169921875;-0.1897125244140625;-0.996246337890625;0.04095941781997681;-1.2783173588104546e-05;0.0073418025858700275
-0.018524169921875;-0.1897125244140625;-0.996246337890625;0.04095941781997681;-1.2783173588104546e-05;0.0073418025858700275
-0.0177459716796875;-0.188995361328125;-0.9966583251953125;0.03921504691243172;-0.000898550555575639;0.004520982038229704
-0.0177459716796875;-0.188995361328125;-0.9966583251953125;0.03921504691243172;-0.000898550555575639;0.004520982038229704
-0.0177459716796875;-0.188995361328125;-0.9966583251953125;0.03921504691243172;-0.000898550555575639;0.004520982038229704
-0.0177459716796875;-0.188995361328125;-0.9966583251953125;0.03921504691243172;-0.000898550555575639;0.004520982038229704
-0.0177459716796875;-0.188995361328125;-0.9966583251953125;0.03921504691243172;-0.000898550555575639;0.004520982038229704
-0.01715087890625;-0.1872711181640625;-0.998382568359375;0.03765257075428963;-0.0007669904152862728;0.0051990230567753315
-0.01715087890625;-0.1872711181640625;-0.998382568359375;0.03765257075428963;-0.0007669904152862728;0.0051990230567753315
-0.01715087890625;-0.1872711181640625;-0.998382568359375;0.03765257075428963;-0.0007669904152862728;0.0051990230567753315
-0.01715087890625;-0.1872711181640625;-0.998382568359375;0.03765257075428963;-0.0007669904152862728;0.0051990230567753315
-0.01715087890625;-0.1872711181640625;-0.998382568359375;0.03765257075428963;-0.0007669904152862728;0.0051990230567753315
-0.0175628662109375;-0.1873016357421875;-0.9997711181640625;0.037266410887241364;-0.0003403519804123789;0.007675496395677328
-0.0175628662109375;-0.1873016357421875;-0.9997711181640625;0.037266410887241364;-0.0003403519804123789;0.007675496395677328
-0.0175628662109375;-0.1873016357421875;-0.9997711181640625;0.037266410887241364;-0.0003403519804123789;0.007675496395677328
-0.0175628662109375;-0.1873016357421875;-0.9997711181640625;0.037266410887241364;-0.0003403519804123789;0.007675496395677328
-0.0175628662109375;-0.1873016357421875;-0.9997711181640625;0.037266410887241364;-0.0003403519804123789;0.007675496395677328
-0.0188751220703125;-0.186981201171875;-1.00042724609375;0.042087532579898834;-0.0010508833220228553;0.005572930909693241
-0.0188751220703125;-0.186981201171875;-1.00042724609375;0.042087532579898834;-0.0010508833220228553;0.005572930909693241
-0.0188751220703125;-0.186981201171875;-1.00042724609375;0.042087532579898834;-0.0010508833220228553;0.005572930909693241
-0.0188751220703125;-0.186981201171875;-1.00042724609375;0.042087532579898834;-0.0010508833220228553;0.005572930909693241
-0.0188751220703125;-0.186981201171875;-1.00042724609375;0.042087532579898834;-0.0010508833220228553;0.005572930909693241
-0.0193634033203125;-0.188018798828125;-1.004058837890625;0.04385906830430031;0.001297225710004568;0.004026965703815222
-0.0193634033203125;-0.188018798828125;-1.004058837890625;0.04385906830430031;0.001297225710004568;0.004026965703815222
-0.0193634033203125;-0.188018798828125;-1.004058837890625;0.04385906830430031;0.001297225710004568;0.004026965703815222
-0.0193634033203125;-0.188018798828125;-1.004058837890625;0.04385906830430031;0.001297225710004568;0.004026965703815222
-0.0193634033203125;-0.188018798828125;-1.004058837890625;0.04385906830430031;0.001297225710004568;0.004026965703815222
-0.01959228515625;-0.188079833984375;-1.0041351318359375;0.04596269875764847;0.0013009541435167193;0.003763046581298113
-0.01959228515625;-0.188079833984375;-1.0041351318359375;0.04596269875764847;0.0013009541435167193;0.003763046581298113
-0.01959228515625;-0.188079833984375;-1.0041351318359375;0.04596269875764847;0.0013009541435167193;0.003763046581298113
-0.01959228515625;-0.188079833984375;-1.0041351318359375;0.04596269875764847;0.0013009541435167193;0.003763046581298113
-0.01959228515625;-0.188079833984375;-1.0041351318359375;0.04596269875764847;0.0013009541435167193;0.003763046581298113
-0.0203399658203125;-0.18817138671875;-1.0003662109375;0.04126088693737984;-0.001127848750911653;0.007506918627768755
-0.0203399658203125;-0.18817138671875;-1.0003662109375;0.04126088693737984;-0.001127848750911653;0.007506918627768755
-0.0203399658203125;-0.18817138671875;-1.0003662109375;0.04126088693737984;-0.001127848750911653;0.007506918627768755
-0.0203399658203125;-0.18817138671875;-1.0003662109375;0.04126088693737984;-0.001127848750911653;0.007506918627768755
-0.0203399658203125;-0.18817138671875;-1.0003662109375;0.04126088693737984;-0.001127848750911653;0.007506918627768755
-0.0190887451171875;-0.1900177001953125;-0.995758056640625;0.037090908735990524;0.002508165081962943;0.010629475116729736
-0.0190887451171875;-0.1900177001953125;-0.995758056640625;0.037090908735990524;0.002508165081962943;0.010629475116729736
-0.0190887451171875;-0.1900177001953125;-0.995758056640625;0.037090908735990524;0.002508165081962943;0.010629475116729736
-0.0190887451171875;-0.1900177001953125;-0.995758056640625;0.037090908735990524;0.002508165081962943;0.010629475116729736
-0.0190887451171875;-0.1900177001953125;-0.995758056640625;0.037090908735990524;0.002508165081962943;0.010629475116729736
-0.01861572265625;-0.191070556640625;-0.99176025390625;0.027661189436912537;0.004378503188490868;0.005633650813251734
-0.01861572265625;-0.191070556640625;-0.99176025390625;0.027661189436912537;0.004378503188490868;0.005633650813251734
-0.01861572265625;-0.191070556640625;-0.99176025390625;0.027661189436912537;0.004378503188490868;0.005633650813251734
-0.01861572265625;-0.191070556640625;-0.99176025390625;0.027661189436912537;0.004378503188490868;0.005633650813251734
-0.01861572265625;-0.191070556640625;-0.99176025390625;0.027661189436912537;0.004378503188490868;0.005633650813251734
-0.01922607421875;-0.1909637451171875;-0.9880828857421875;0.02196681685745716;0.005363073665648699;0.01053573191165924
-0.01922607421875;-0.1909637451171875;-0.9880828857421875;0.02196681685745716;0.005363073665648699;0.01053573191165924
-0.01922607421875;-0.1909637451171875;-0.9880828857421875;0.02196681685745716;0.005363073665648699;0.01053573191165924
-0.01922607421875;-0.1909637451171875;-0.9880828857421875;0.02196681685745716;0.005363073665648699;0.01053573191165924
-0.01922607421875;-0.1909637451171875;-0.9880828857421875;0.02196681685745716;0.005363073665648699;0.01053573191165924
-0.0191650390625;-0.190582275390625;-0.9889373779296875;0.01949646882712841;0.008191084489226341;0.008296279236674309
-0.0191650390625;-0.190582275390625;-0.9889373779296875;0.01949646882712841;0.008191084489226341;0.008296279236674309
-0.0191650390625;-0.190582275390625;-0.9889373779296875;0.01949646882712841;0.008191084489226341;0.008296279236674309
-0.0191650390625;-0.190582275390625;-0.9889373779296875;0.01949646882712841;0.008191084489226341;0.008296279236674309
-0.0191650390625;-0.190582275390625;-0.9889373779296875;0.01949646882712841;0.008191084489226341;0.008296279236674309
-0.0193328857421875;-0.1887664794921875;-0.995635986328125;0.019601130858063698;0.00221947836689651;0.005471197888255119
-0.0193328857421875;-0.1887664794921875;-0.995635986328125;0.019601130858063698;0.00221947836689651;0.005471197888255119
-0.0193328857421875;-0.1887664794921875;-0.995635986328125;0.019601130858063698;0.00221947836689651;0.005471197888255119
-0.0193328857421875;-0.1887664794921875;-0.995635986328125;0.019601130858063698;0.00221947836689651;0.005471197888255119
-0.0193328857421875;-0.1887664794921875;-0.995635986328125;0.019601130858063698;0.00221947836689651;0.005471197888255119
-0.0185699462890625;-0.188262939453125;-1.002716064453125;0.027485687285661697;-0.00020879182557109743;0.002688460983335972
-0.0185699462890625;-0.188262939453125;-1.002716064453125;0.027485687285661697;-0.00020879182557109743;0.002688460983335972
-0.0185699462890625;-0.188262939453125;-1.002716064453125;0.027485687285661697;-0.00020879182557109743;0.002688460983335972
-0.0185699462890625;-0.188262939453125;-1.002716064453125;0.027485687285661697;-0.00020879182557109743;0.002688460983335972
-0.0185699462890625;-0.188262939453125;-1.002716064453125;0.027485687285661697;-0.00020879182557109743;0.002688460983335972
-0.0187530517578125;-0.188690185546875;-1.0051422119140625;0.03356808051466942;-0.0009914948605000973;0.0023041670210659504
-0.0187530517578125;-0.188690185546875;-1.0051422119140625;0.03356808051466942;-0.0009914948605000973;0.0023041670210659504
-0.0187530517578125;-0.188690185546875;-1.0051422119140625;0.03356808051466942;-0.0009914948605000973;0.0023041670210659504
-0.0187530517578125;-0.188690185546875;-1.0051422119140625;0.03356808051466942;-0.0009914948605000973;0.0023041670210659504
-0.0187530517578125;-0.188690185546875;-1.0051422119140625;0.03356808051466942;-0.0009914948605000973;0.0023041670210659504
-0.0195770263671875;-0.1889190673828125;-1.003326416015625;0.03846563398838043;0.004233627114444971;0.005929794628173113
-0.0195770263671875;-0.1889190673828125;-1.003326416015625;0.03846563398838043;0.004233627114444971;0.005929794628173113
-0.0195770263671875;-0.1889190673828125;-1.003326416015625;0.03846563398838043;0.004233627114444971;0.005929794628173113
-0.0195770263671875;-0.1889190673828125;-1.003326416015625;0.03846563398838043;0.004233627114444971;0.005929794628173113
-0.0195770263671875;-0.1889190673828125;-1.003326416015625;0.03846563398838043;0.004233627114444971;0.005929794628173113
-0.01995849609375;-0.1896820068359375;-1.001373291015625;0.03512789309024811;0.008615326136350632;0.007119961082935333
-0.01995849609375;-0.1896820068359375;-1.001373291015625;0.03512789309024811;0.008615326136350632;0.007119961082935333
-0.01995849609375;-0.1896820068359375;-1.001373291015625;0.03512789309024811;0.008615326136350632;0.007119961082935333
-0.01995849609375;-0.1896820068359375;-1.001373291015625;0.03512789309024811;0.008615326136350632;0.007119961082935333
-0.01995849609375;-0.1896820068359375;-1.001373291015625;0.03512789309024811;0.008615326136350632;0.007119961082935333
-0.0188140869140625;-0.1912384033203125;-0.996978759765625;0.023333285003900528;0.013768542557954788;0.011607120744884014
-0.0188140869140625;-0.1912384033203125;-0.996978759765625;0.023333285003900528;0.013768542557954788;0.011607120744884014
-0.0188140869140625;-0.1912384033203125;-0.996978759765625;0.023333285003900528;0.013768542557954788;0.011607120744884014
-0.0188140869140625;-0.1912384033203125;-0.996978759765625;0.023333285003900528;0.013768542557954788;0.011607120744884014
-0.0188140869140625;-0.1912384033203125;-0.996978759765625;0.023333285003900528;0.013768542557954788;0.011607120744884014
-0.01800537109375;-0.192352294921875;-0.9928436279296875;0.012645487673580647;0.014027401804924011;0.013157879933714867
-0.01800537109375;-0.192352294921875;-0.9928436279296875;0.012645487673580647;0.014027401804924011;0.013157879933714867
-0.01800537109375;-0.192352294921875;-0.9928436279296875;0.012645487673580647;0.014027401804924011;0.013157879933714867
-0.01800537109375;-0.192352294921875;-0.9928436279296875;0.012645487673580647;0.014027401804924011;0.013157879933714867
-0.01800537109375;-0.192352294921875;-0.9928436279296875;0.012645487673580647;0.014027401804924011;0.013157879933714867
-0.017120361328125;-0.1929168701171875;-0.9904937744140625;-0.0011994877131655812;0.012619388289749622;0.011554124765098095
-0.017120361328125;-0.1929168701171875;-0.9904937744140625;-0.0011994877131655812;0.012619388289749622;0.011554124765098095
-0.017120361328125;-0.1929168701171875;-0.9904937744140625;-0.0011994877131655812;0.012619388289749622;0.011554124765098095
-0.017120361328125;-0.1929168701171875;-0.9904937744140625;-0.0011994877131655812;0.012619388289749622;0.011554124765098095
-0.017120361328125;-0.1929168701171875;-0.9904937744140625;-0.0011994877131655812;0.012619388289749622;0.011554124765098095
-0.01715087890625;-0.192626953125;-0.9929962158203125;-0.004598213825374842;0.007668306119740009;0.009691775776445866
-0.01715087890625;-0.192626953125;-0.9929962158203125;-0.004598213825374842;0.007668306119740009;0.009691775776445866
-0.01715087890625;-0.192626953125;-0.9929962158203125;-0.004598213825374842;0.007668306119740009;0.009691775776445866
-0.01715087890625;-0.192626953125;-0.9929962158203125;-0.004598213825374842;0.007668306119740009;0.009691775776445866
-0.01715087890625;-0.192626953125;-0.9929962158203125;-0.004598213825374842;0.007668306119740009;0.009691775776445866
-0.0188140869140625;-0.1904296875;-1.001251220703125;0.0006298375665210187;-0.006943659856915474;0.004000866785645485
-0.0188140869140625;-0.1904296875;-1.001251220703125;0.0006298375665210187;-0.006943659856915474;0.004000866785645485
-0.0188140869140625;-0.1904296875;-1.001251220703125;0.0006298375665210187;-0.006943659856915474;0.004000866785645485
-0.0188140869140625;-0.1904296875;-1.001251220703125;0.0006298375665210187;-0.006943659856915474;0.004000866785645485
-0.0188140869140625;-0.1904296875;-1.001251220703125;0.0006298375665210187;-0.006943659856915474;0.004000866785645485
-0.02099609375;-0.1891021728515625;-1.010101318359375;0.003926032222807407;-0.0253375805914402;0.0032525185961276293
-0.02099609375;-0.1891021728515625;-1.010101318359375;0.003926032222807407;-0.0253375805914402;0.0032525185961276293
-0.02099609375;-0.1891021728515625;-1.010101318359375;0.003926032222807407;-0.0253375805914402;0.0032525185961276293
-0.02099609375;-0.1891021728515625;-1.010101318359375;0.003926032222807407;-0.0253375805914402;0.0032525185961276293
-0.02099609375;-0.1891021728515625;-1.010101318359375;0.003926032222807407;-0.0253375805914402;0.0032525185961276293
-0.0205841064453125;-0.191650390625;-1.0089263916015625;-0.0023640880826860666;-0.034209102392196655;0.0019651465117931366
-0.0205841064453125;-0.191650390625;-1.0089263916015625;-0.0023640880826860666;-0.034209102392196655;0.0019651465117931366
-0.0205841064453125;-0.191650390625;-1.0089263916015625;-0.0023640880826860666;-0.034209102392196655;0.0019651465117931366
-0.0205841064453125;-0.191650390625;-1.0089263916015625;-0.0023640880826860666;-0.034209102392196655;0.0019651465117931366
-0.0205841064453125;-0.191650390625;-1.0089263916015625;-0.0023640880826860666;-0.034209102392196655;0.0019651465117931366
-0.019378662109375;-0.1941986083984375;-0.998443603515625;-0.00449727987870574;-0.036249615252017975;0.008417187258601189
-0.019378662109375;-0.1941986083984375;-0.998443603515625;-0.00449727987870574;-0.036249615252017975;0.008417187258601189
-0.019378662109375;-0.1941986083984375;-0.998443603515625;-0.00449727987870574;-0.036249615252017975;0.008417187258601189
-0.019378662109375;-0.1941986083984375;-0.998443603515625;-0.00449727987870574;-0.036249615252017975;0.008417187258601189
-0.019378662109375;-0.1941986083984375;-0.998443603515625;-0.00449727987870574;-0.036249615252017975;0.008417187258601189
-0.0202789306640625;-0.193756103515625;-0.9923095703125;-0.0108872689306736;-0.023194001987576485;0.015531289391219616
-0.0202789306640625;-0.193756103515625;-0.9923095703125;-0.0108872689306736;-0.023194001987576485;0.015531289391219616
-0.0202789306640625;-0.193756103515625;-0.9923095703125;-0.0108872689306736;-0.023194001987576485;0.015531289391219616
-0.0202789306640625;-0.193756103515625;-0.9923095703125;-0.0108872689306736;-0.023194001987576485;0.015531289391219616
-0.0202789306640625;-0.193756103515625;-0.9923095703125;-0.0108872689306736;-0.023194001987576485;0.015531289391219616
-0.023681640625;-0.193878173828125;-0.9893646240234375;-0.017651164904236794;-0.006690126843750477;0.014116884209215641
-0.023681640625;-0.193878173828125;-0.9893646240234375;-0.017651164904236794;-0.006690126843750477;0.014116884209215641
-0.023681640625;-0.193878173828125;-0.9893646240234375;-0.017651164904236794;-0.006690126843750477;0.014116884209215641
-0.023681640625;-0.193878173828125;-0.9893646240234375;-0.017651164904236794;-0.006690126843750477;0.014116884209215641
-0.023681640625;-0.193878173828125;-0.9893646240234375;-0.017651164904236794;-0.006690126843750477;0.014116884209215641
-0.0235137939453125;-0.192626953125;-0.9888763427734375;-0.0190139040350914;0.0070336745120584965;0.007978564128279686
-0.0235137939453125;-0.192626953125;-0.9888763427734375;-0.0190139040350914;0.0070336745120584965;0.007978564128279686
-0.0235137939453125;-0.192626953125;-0.9888763427734375;-0.0190139040350914;0.0070336745120584965;0.007978564128279686
-0.0235137939453125;-0.192626953125;-0.9888763427734375;-0.0190139040350914;0.0070336745120584965;0.007978564128279686
-0.0235137939453125;-0.192626953125;-0.9888763427734375;-0.0190139040350914;0.0070336745120584965;0.007978564128279686
-0.02008056640625;-0.190704345703125;-0.9906463623046875;-0.01660454273223877;0.015926769003272057;0.006042712368071079
-0.02008056640625;-0.190704345703125;-0.9906463623046875;-0.01660454273223877;0.015926769003272057;0.006042712368071079
-0.02008056640625;-0.190704345703125;-0.9906463623046875;-0.01660454273223877;0.015926769003272057;0.006042712368071079
-0.02008056640625;-0.190704345703125;-0.9906463623046875;-0.01660454273223877;0.015926769003272057;0.006042712368071079
-0.02008056640625;-0.190704345703125;-0.9906463623046875;-0.01660454273223877;0.015926769003272057;0.006042712368071079
-0.01654052734375;-0.188079833984375;-0.99615478515625;-0.004775047767907381;0.02598392963409424;0.010476343333721161
-0.01654052734375;-0.188079833984375;-0.99615478515625;-0.004775047767907381;0.02598392963409424;0.010476343333721161
-0.01654052734375;-0.188079833984375;-0.99615478515625;-0.004775047767907381;0.02598392963409424;0.010476343333721161
-0.01654052734375;-0.188079833984375;-0.99615478515625;-0.004775047767907381;0.02598392963409424;0.010476343333721161
-0.01654052734375;-0.188079833984375;-0.99615478515625;0.00768881244584918;0.03290015831589699;0.006720753386616707
-0.0147552490234375;-0.188995361328125;-1.00201416015625;0.00768881244584918;0.03290015831589699;0.006720753386616707
-0.0147552490234375;-0.188995361328125;-1.00201416015625;0.00768881244584918;0.03290015831589699;0.006720753386616707
-0.0147552490234375;-0.188995361328125;-1.00201416015625;0.00768881244584918;0.03290015831589699;0.006720753386616707
-0.0147552490234375;-0.188995361328125;-1.00201416015625;0.00768881244584918;0.03290015831589699;0.006720753386616707
-0.0147552490234375;-0.188995361328125;-1.00201416015625;0.00768881244584918;0.03290015831589699;0.006720753386616707
-0.0154876708984375;-0.1896514892578125;-1.005126953125;0.020017383620142937;0.037575870752334595;0.007923702709376812
-0.0154876708984375;-0.1896514892578125;-1.005126953125;0.020017383620142937;0.037575870752334595;0.007923702709376812
-0.0154876708984375;-0.1896514892578125;-1.005126953125;0.020017383620142937;0.037575870752334595;0.007923702709376812
-0.0154876708984375;-0.1896514892578125;-1.005126953125;0.020017383620142937;0.037575870752334595;0.007923702709376812
-0.0154876708984375;-0.1896514892578125;-1.005126953125;0.020017383620142937;0.037575870752334595;0.007923702709376812
-0.0149688720703125;-0.1924896240234375;-1.00469970703125;0.02472878247499466;0.033781398087739944;0.00034887410583905876
-0.0149688720703125;-0.1924896240234375;-1.00469970703125;0.02472878247499466;0.033781398087739944;0.00034887410583905876
-0.0149688720703125;-0.1924896240234375;-1.00469970703125;0.02472878247499466;0.033781398087739944;0.00034887410583905876
-0.0149688720703125;-0.1924896240234375;-1.00469970703125;0.02472878247499466;0.033781398087739944;0.00034887410583905876
-0.0149688720703125;-0.1924896240234375;-1.00469970703125;0.02472878247499466;0.033781398087739944;0.00034887410583905876
-0.017425537109375;-0.1926727294921875;-1.0047454833984375;0.024330373853445053;0.02484090067446232;0.002409361768513918
-0.017425537109375;-0.1926727294921875;-1.0047454833984375;0.024330373853445053;0.02484090067446232;0.002409361768513918
-0.017425537109375;-0.1926727294921875;-1.0047454833984375;0.024330373853445053;0.02484090067446232;0.002409361768513918
-0.017425537109375;-0.1926727294921875;-1.0047454833984375;0.024330373853445053;0.02484090067446232;0.002409361768513918
-0.017425537109375;-0.1926727294921875;-1.0047454833984375;0.024330373853445053;0.02484090067446232;0.002409361768513918
-0.0179290771484375;-0.1934051513671875;-1.0046844482421875;0.02389254979789257;0.018424279987812042;-0.00333134806714952
-0.0179290771484375;-0.1934051513671875;-1.0046844482421875;0.02389254979789257;0.018424279987812042;-0.00333134806714952
-0.0179290771484375;-0.1934051513671875;-1.0046844482421875;0.02389254979789257;0.018424279987812042;-0.00333134806714952
-0.0179290771484375;-0.1934051513671875;-1.0046844482421875;0.02389254979789257;0.018424279987812042;-0.00333134806714952
-0.0191497802734375;-0.19482421875;-1.0044403076171875;0.0182929877191782;0.016503077000379562;-0.007081345189362764
-0.0191497802734375;-0.19482421875;-1.0044403076171875;0.0182929877191782;0.016503077000379562;-0.007081345189362764
-0.0191497802734375;-0.19482421875;-1.0044403076171875;0.0182929877191782;0.016503077000379562;-0.007081345189362764
-0.0191497802734375;-0.19482421875;-1.0044403076171875;0.0182929877191782;0.016503077000379562;-0.007081345189362764
-0.0191497802734375;-0.19482421875;-1.0044403076171875;0.0182929877191782;0.016503077000379562;-0.007081345189362764
-0.0191497802734375;-0.19482421875;-1.0044403076171875;0.0182929877191782;0.016503077000379562;-0.007081345189362764
-0.020233154296875;-0.194793701171875;-1.0052642822265625;0.015456986613571644;0.013406353071331978;-0.005288239102810621
-0.020233154296875;-0.194793701171875;-1.0052642822265625;0.015456986613571644;0.013406353071331978;-0.005288239102810621
-0.020233154296875;-0.194793701171875;-1.0052642822265625;0.015456986613571644;0.013406353071331978;-0.005288239102810621
-0.020233154296875;-0.194793701171875;-1.0052642822265625;0.015456986613571644;0.013406353071331978;-0.005288239102810621
-0.0192108154296875;-0.1949310302734375;-1.0029296875;0.015456986613571644;0.013406353071331978;-0.005288239102810621
-0.0192108154296875;-0.1949310302734375;-1.0029296875;0.009554622694849968;0.007448328658938408;-0.00347489258274436
-0.0192108154296875;-0.1949310302734375;-1.0029296875;0.009554622694849968;0.007448328658938408;-0.00347489258274436
-0.0192108154296875;-0.1949310302734375;-1.0029296875;0.009554622694849968;0.007448328658938408;-0.00347489258274436
-0.0192108154296875;-0.1949310302734375;-1.0029296875;0.009554622694849968;0.007448328658938408;-0.00347489258274436
-0.017486572265625;-0.194976806640625;-1.000732421875;0.0023555660154670477;0.0041092573665082455;0.002624811604619026
-0.017486572265625;-0.194976806640625;-1.000732421875;0.0023555660154670477;0.0041092573665082455;0.002624811604619026
-0.017486572265625;-0.194976806640625;-1.000732421875;0.0023555660154670477;0.0041092573665082455;0.002624811604619026
-0.017486572265625;-0.194976806640625;-1.000732421875;0.0023555660154670477;0.0041092573665082455;0.002624811604619026
-0.017486572265625;-0.194976806640625;-1.000732421875;0.0023555660154670477;0.0041092573665082455;0.002624811604619026
-0.0164642333984375;-0.1939697265625;-0.999237060546875;-0.0032120386604219675;0.00037710359902121127;0.00424348097294569
-0.0164642333984375;-0.1939697265625;-0.999237060546875;-0.0032120386604219675;0.00037710359902121127;0.00424348097294569
-0.0164642333984375;-0.1939697265625;-0.999237060546875;-0.0032120386604219675;0.00037710359902121127;0.00424348097294569
-0.0164642333984375;-0.1939697265625;-0.999237060546875;-0.0032120386604219675;0.00037710359902121127;0.00424348097294569
-0.0164642333984375;-0.1939697265625;-0.999237060546875;-0.0032120386604219675;0.00037710359902121127;0.00424348097294569
-0.014129638671875;-0.1942138671875;-0.9975128173828125;8.735168376006186e-05;-6.0453756304923445e-05;0.00487198680639267
-0.014129638671875;-0.1942138671875;-0.9975128173828125;8.735168376006186e-05;-6.0453756304923445e-05;0.00487198680639267
-0.014129638671875;-0.1942138671875;-0.9975128173828125;8.735168376006186e-05;-6.0453756304923445e-05;0.00487198680639267
-0.014129638671875;-0.1942138671875;-0.9975128173828125;8.735168376006186e-05;-6.0453756304923445e-05;0.00487198680639267
-0.014129638671875;-0.1942138671875;-0.9975128173828125;8.735168376006186e-05;-6.0453756304923445e-05;0.00487198680639267
-0.0135040283203125;-0.193634033203125;-0.99761962890625;-0.0005984122981317341;0.0031180288642644882;0.0070919981226325035
-0.0135040283203125;-0.193634033203125;-0.99761962890625;-0.0005984122981317341;0.0031180288642644882;0.0070919981226325035
-0.0135040283203125;-0.193634033203125;-0.99761962890625;-0.0005984122981317341;0.0031180288642644882;0.0070919981226325035
-0.0135040283203125;-0.193634033203125;-0.99761962890625;-0.0005984122981317341;0.0031180288642644882;0.0070919981226325035
-0.0135040283203125;-0.193634033203125;-0.99761962890625;-0.0005984122981317341;0.0031180288642644882;0.0070919981226325035
-0.0129852294921875;-0.191741943359375;-0.9971466064453125;0.003065032185986638;-0.001100950757972896;0.007588943932205439
-0.0129852294921875;-0.191741943359375;-0.9971466064453125;0.003065032185986638;-0.001100950757972896;0.007588943932205439
-0.0129852294921875;-0.191741943359375;-0.9971466064453125;0.003065032185986638;-0.001100950757972896;0.007588943932205439
-0.0129852294921875;-0.191741943359375;-0.9971466064453125;0.003065032185986638;-0.001100950757972896;0.007588943932205439
-0.0129852294921875;-0.191741943359375;-0.9971466064453125;0.003065032185986638;-0.001100950757972896;0.007588943932205439
-0.014068603515625;-0.192718505859375;-0.9987945556640625;0.005022455472499132;-0.0015073491958901286;0.010235593654215336
-0.014068603515625;-0.192718505859375;-0.9987945556640625;0.005022455472499132;-0.0015073491958901286;0.010235593654215336
-0.014068603515625;-0.192718505859375;-0.9987945556640625;0.005022455472499132;-0.0015073491958901286;0.010235593654215336
-0.014068603515625;-0.192718505859375;-0.9987945556640625;0.005022455472499132;-0.0015073491958901286;0.010235593654215336
-0.014068603515625;-0.192718505859375;-0.9987945556640625;0.005022455472499132;-0.0015073491958901286;0.010235593654215336
-0.0141754150390625;-0.192352294921875;-0.998321533203125;0.007819040678441525;0.001241033081896603;0.00884781964123249
-0.0141754150390625;-0.192352294921875;-0.998321533203125;0.007819040678441525;0.001241033081896603;0.00884781964123249
-0.0141754150390625;-0.192352294921875;-0.998321533203125;0.007819040678441525;0.001241033081896603;0.00884781964123249
-0.0141754150390625;-0.192352294921875;-0.998321533203125;0.007819040678441525;0.001241033081896603;0.00884781964123249
-0.0141754150390625;-0.192352294921875;-0.998321533203125;0.007819040678441525;0.001241033081896603;0.00884781964123249
-0.013671875;-0.1923980712890625;-0.9998626708984375;0.014554974623024464;-0.0030602384358644485;0.010245447047054768
-0.013671875;-0.1923980712890625;-0.9998626708984375;0.014554974623024464;-0.0030602384358644485;0.010245447047054768
-0.013671875;-0.1923980712890625;-0.9998626708984375;0.014554974623024464;-0.0030602384358644485;0.010245447047054768
-0.013671875;-0.1923980712890625;-0.9998626708984375;0.014554974623024464;-0.0030602384358644485;0.010245447047054768
-0.013671875;-0.1923980712890625;-0.9998626708984375;0.014554974623024464;-0.0030602384358644485;0.010245447047054768
-0.01544189453125;-0.1930389404296875;-1.0028839111328125;0.016585368663072586;-0.01251978613436222;0.0082102594897151
-0.01544189453125;-0.1930389404296875;-1.0028839111328125;0.016585368663072586;-0.01251978613436222;0.0082102594897151
-0.01544189453125;-0.1930389404296875;-1.0028839111328125;0.016585368663072586;-0.01251978613436222;0.0082102594897151
-0.01544189453125;-0.1930389404296875;-1.0028839111328125;0.016585368663072586;-0.01251978613436222;0.0082102594897151
-0.01544189453125;-0.1930389404296875;-1.0028839111328125;0.016585368663072586;-0.01251978613436222;0.0082102594897151
-0.01776123046875;-0.19293212890625;-1.00482177734375;0.02347523160278797;-0.01357253361493349;0.006339921150356531
-0.01776123046875;-0.19293212890625;-1.00482177734375;0.02347523160278797;-0.01357253361493349;0.006339921150356531
-0.01776123046875;-0.19293212890625;-1.00482177734375;0.02347523160278797;-0.01357253361493349;0.006339921150356531
-0.01776123046875;-0.19293212890625;-1.00482177734375;0.02347523160278797;-0.01357253361493349;0.006339921150356531
-0.01776123046875;-0.19293212890625;-1.00482177734375;0.02347523160278797;-0.01357253361493349;0.006339921150356531
-0.0190582275390625;-0.195526123046875;-1.0001068115234375;0.019112175330519676;-0.0020671456586569548;0.007268299348652363
-0.0190582275390625;-0.195526123046875;-1.0001068115234375;0.019112175330519676;-0.0020671456586569548;0.007268299348652363
-0.0190582275390625;-0.195526123046875;-1.0001068115234375;0.019112175330519676;-0.0020671456586569548;0.007268299348652363
-0.0190582275390625;-0.195526123046875;-1.0001068115234375;0.019112175330519676;-0.0020671456586569548;0.007268299348652363
-0.0190582275390625;-0.195526123046875;-1.0001068115234375;0.019112175330519676;-0.0020671456586569548;0.007268299348652363
-0.0179443359375;-0.1973876953125;-0.9952392578125;0.016529440879821777;0.007765777874737978;0.008529306389391422
-0.0179443359375;-0.1973876953125;-0.9952392578125;0.016529440879821777;0.007765777874737978;0.008529306389391422
-0.0179443359375;-0.1973876953125;-0.9952392578125;0.016529440879821777;0.007765777874737978;0.008529306389391422
-0.0179443359375;-0.1973876953125;-0.9952392578125;0.016529440879821777;0.007765777874737978;0.008529306389391422
-0.0179443359375;-0.1973876953125;-0.9952392578125;0.016529440879821777;0.007765777874737978;0.008529306389391422
-0.0179901123046875;-0.19659423828125;-0.995208740234375;0.01278796698898077;0.0006298375665210187;0.008078699000179768
-0.0179901123046875;-0.19659423828125;-0.995208740234375;0.01278796698898077;0.0006298375665210187;0.008078699000179768
-0.0179901123046875;-0.19659423828125;-0.995208740234375;0.01278796698898077;0.0006298375665210187;0.008078699000179768
-0.0179901123046875;-0.19659423828125;-0.995208740234375;0.01278796698898077;0.0006298375665210187;0.008078699000179768
-0.0179901123046875;-0.19659423828125;-0.995208740234375;0.01278796698898077;0.0006298375665210187;0.008078699000179768
-0.0182952880859375;-0.19488525390625;-0.996978759765625;0.006286391522735357;-0.007144462317228317;0.00281948852352798
-0.0182952880859375;-0.19488525390625;-0.996978759765625;0.006286391522735357;-0.007144462317228317;0.00281948852352798
-0.0182952880859375;-0.19488525390625;-0.996978759765625;0.006286391522735357;-0.007144462317228317;0.00281948852352798
-0.0182952880859375;-0.19488525390625;-0.996978759765625;0.006286391522735357;-0.007144462317228317;0.00281948852352798
-0.0182952880859375;-0.19488525390625;-0.996978759765625;0.006286391522735357;-0.007144462317228317;0.00281948852352798
-0.0187530517578125;-0.1934661865234375;-0.9987640380859375;0.0017864484107121825;-0.015268967486917973;0.005644303746521473
-0.0187530517578125;-0.1934661865234375;-0.9987640380859375;0.0017864484107121825;-0.015268967486917973;0.005644303746521473
-0.0187530517578125;-0.1934661865234375;-0.9987640380859375;0.0017864484107121825;-0.015268967486917973;0.005644303746521473
-0.0187530517578125;-0.1934661865234375;-0.9987640380859375;0.0017864484107121825;-0.015268967486917973;0.005644303746521473
-0.0187530517578125;-0.1934661865234375;-0.9987640380859375;0.0017864484107121825;-0.015268967486917973;0.005644303746521473
-0.0187225341796875;-0.192718505859375;-0.9984588623046875;-0.0016338493442162871;-0.014398646540939808;0.003578755771741271
-0.0187225341796875;-0.192718505859375;-0.9984588623046875;-0.0016338493442162871;-0.014398646540939808;0.003578755771741271
-0.0187225341796875;-0.192718505859375;-0.9984588623046875;-0.0016338493442162871;-0.014398646540939808;0.003578755771741271
-0.0187225341796875;-0.192718505859375;-0.9984588623046875;-0.0016338493442162871;-0.014398646540939808;0.003578755771741271
-0.0187225341796875;-0.192718505859375;-0.9984588623046875;-0.0016338493442162871;-0.014398646540939808;0.003578755771741271
-0.01812744140625;-0.1930084228515625;-0.9976043701171875;-0.0012199940392747521;-0.014914766885340214;0.005377987399697304
-0.01812744140625;-0.1930084228515625;-0.9976043701171875;-0.0012199940392747521;-0.014914766885340214;0.005377987399697304
-0.01812744140625;-0.1930084228515625;-0.9976043701171875;-0.0012199940392747521;-0.014914766885340214;0.005377987399697304
-0.01812744140625;-0.1930084228515625;-0.9976043701171875;-0.0012199940392747521;-0.014914766885340214;0.005377987399697304
-0.01812744140625;-0.1930084228515625;-0.9976043701171875;-0.0012199940392747521;-0.014914766885340214;0.005377987399697304
-0.0184326171875;-0.19287109375;-0.9950714111328125;-0.005203017964959145;-0.01381168607622385;0.005862682592123747
-0.0184326171875;-0.19287109375;-0.9950714111328125;-0.005203017964959145;-0.01381168607622385;0.005862682592123747
-0.0184326171875;-0.19287109375;-0.9950714111328125;-0.005203017964959145;-0.01381168607622385;0.005862682592123747
-0.0184326171875;-0.19287109375;-0.9950714111328125;-0.005203017964959145;-0.01381168607622385;0.005862682592123747
-0.0184326171875;-0.19287109375;-0.9950714111328125;-0.005203017964959145;-0.01381168607622385;0.005862682592123747
-0.018707275390625;-0.1934814453125;-0.99420166015625;-0.006161223165690899;-0.013119264505803585;0.0062757390551269054
-0.018707275390625;-0.1934814453125;-0.99420166015625;-0.006161223165690899;-0.013119264505803585;0.0062757390551269054
-0.018707275390625;-0.1934814453125;-0.99420166015625;-0.006161223165690899;-0.013119264505803585;0.0062757390551269054
-0.018707275390625;-0.1934814453125;-0.99420166015625;-0.006161223165690899;-0.013119264505803585;0.0062757390551269054
-0.018707275390625;-0.1934814453125;-0.99420166015625;-0.006161223165690899;-0.013119264505803585;0.0062757390551269054
-0.018585205078125;-0.1937103271484375;-0.9969940185546875;-0.007893876172602177;-0.0049103363417088985;0.007381217088550329
-0.018585205078125;-0.1937103271484375;-0.9969940185546875;-0.007893876172602177;-0.0049103363417088985;0.007381217088550329
-0.018585205078125;-0.1937103271484375;-0.9969940185546875;-0.007893876172602177;-0.0049103363417088985;0.007381217088550329
-0.018585205078125;-0.1937103271484375;-0.9969940185546875;-0.007893876172602177;-0.0049103363417088985;0.007381217088550329
-0.018585205078125;-0.1937103271484375;-0.9969940185546875;-0.007893876172602177;-0.0049103363417088985;0.007381217088550329
-0.019561767578125;-0.194183349609375;-0.9999542236328125;-0.005824333056807518;-0.004824848845601082;0.006746319588273764
-0.019561767578125;-0.194183349609375;-0.9999542236328125;-0.005824333056807518;-0.004824848845601082;0.006746319588273764
