Acell X;Acell Y;Acell Z;Gyro X;Gyro Y;Gyro Z

0.1650390625;-0.164306640625;-1.028717041015625;-0.07356876134872437;0.04086141288280487;-0.0035774242132902145
0.15252685546875;-0.171051025390625;-0.9627532958984375;-0.09965868294239044;0.05752268061041832;-0.005676261615008116
0.15252685546875;-0.171051025390625;-0.9627532958984375;-0.09965868294239044;0.05752268061041832;-0.005676261615008116
0.15252685546875;-0.171051025390625;-0.9627532958984375;-0.09965868294239044;0.05752268061041832;-0.005676261615008116
0.15252685546875;-0.171051025390625;-0.9627532958984375;-0.09965868294239044;0.05752268061041832;-0.005676261615008116
0.158721923828125;-0.1680755615234375;-0.9463348388671875;-0.09954895824193954;0.037038445472717285;-0.005322061013430357
0.158721923828125;-0.1680755615234375;-0.9463348388671875;-0.09954895824193954;0.037038445472717285;-0.005322061013430357
0.158721923828125;-0.1680755615234375;-0.9463348388671875;-0.09954895824193954;0.037038445472717285;-0.005322061013430357
0.158721923828125;-0.1680755615234375;-0.9463348388671875;-0.09954895824193954;0.037038445472717285;-0.005322061013430357
0.158721923828125;-0.1680755615234375;-0.9463348388671875;-0.09954895824193954;0.037038445472717285;-0.005322061013430357
0.157135009765625;-0.16693115234375;-0.967376708984375;-0.080143041908741;-0.009726929478347301;-0.006603308022022247
0.157135009765625;-0.16693115234375;-0.967376708984375;-0.080143041908741;-0.009726929478347301;-0.006603308022022247
0.157135009765625;-0.16693115234375;-0.967376708984375;-0.080143041908741;-0.009726929478347301;-0.006603308022022247
0.157135009765625;-0.16693115234375;-0.967376708984375;-0.080143041908741;-0.009726929478347301;-0.006603308022022247
0.157135009765625;-0.16693115234375;-0.967376708984375;-0.080143041908741;-0.009726929478347301;-0.006603308022022247
0.1597137451171875;-0.166259765625;-0.9817962646484375;-0.05603131279349327;-0.04712303727865219;-0.007558850105851889
0.1597137451171875;-0.166259765625;-0.9817962646484375;-0.05603131279349327;-0.04712303727865219;-0.007558850105851889
0.1597137451171875;-0.166259765625;-0.9817962646484375;-0.05603131279349327;-0.04712303727865219;-0.007558850105851889
0.1597137451171875;-0.166259765625;-0.9817962646484375;-0.05603131279349327;-0.04712303727865219;-0.007558850105851889
0.1597137451171875;-0.166259765625;-0.9817962646484375;-0.05603131279349327;-0.04712303727865219;-0.007558850105851889
0.158966064453125;-0.1653289794921875;-0.9834747314453125;-0.036499153822660446;-0.061711832880973816;-0.009635050781071186
0.158966064453125;-0.1653289794921875;-0.9834747314453125;-0.036499153822660446;-0.061711832880973816;-0.009635050781071186
0.158966064453125;-0.1653289794921875;-0.9834747314453125;-0.036499153822660446;-0.061711832880973816;-0.009635050781071186
0.158966064453125;-0.1653289794921875;-0.9834747314453125;-0.036499153822660446;-0.061711832880973816;-0.009635050781071186
0.158966064453125;-0.1653289794921875;-0.9834747314453125;-0.036499153822660446;-0.061711832880973816;-0.009635050781071186
0.1529693603515625;-0.1647186279296875;-0.9770660400390625;-0.029387449845671654;-0.05808460712432861;-0.011867045424878597
0.1529693603515625;-0.1647186279296875;-0.9770660400390625;-0.029387449845671654;-0.05808460712432861;-0.011867045424878597
0.1529693603515625;-0.1647186279296875;-0.9770660400390625;-0.029387449845671654;-0.05808460712432861;-0.011867045424878597
0.1529693603515625;-0.1647186279296875;-0.9770660400390625;-0.029387449845671654;-0.05808460712432861;-0.011867045424878597
0.1529693603515625;-0.1647186279296875;-0.9770660400390625;-0.029387449845671654;-0.05808460712432861;-0.011867045424878597
0.149078369140625;-0.16448974609375;-0.9732513427734375;-0.03182370960712433;-0.03762274235486984;-0.012228703126311302
0.149078369140625;-0.16448974609375;-0.9732513427734375;-0.03182370960712433;-0.03762274235486984;-0.012228703126311302
0.149078369140625;-0.16448974609375;-0.9732513427734375;-0.03182370960712433;-0.03762274235486984;-0.012228703126311302
0.149078369140625;-0.16448974609375;-0.9732513427734375;-0.03182370960712433;-0.03762274235486984;-0.012228703126311302
0.149078369140625;-0.16448974609375;-0.9732513427734375;-0.03182370960712433;-0.03762274235486984;-0.012228703126311302
0.149627685546875;-0.16265869140625;-0.9761505126953125;-0.03123674914240837;-0.015568040311336517;-0.010306965559720993
0.149627685546875;-0.16265869140625;-0.9761505126953125;-0.03123674914240837;-0.015568040311336517;-0.010306965559720993
0.149627685546875;-0.16265869140625;-0.9761505126953125;-0.03123674914240837;-0.015568040311336517;-0.010306965559720993
0.149627685546875;-0.16265869140625;-0.9761505126953125;-0.03123674914240837;-0.015568040311336517;-0.010306965559720993
0.149627685546875;-0.16265869140625;-0.9761505126953125;-0.03123674914240837;-0.015568040311336517;-0.010306965559720993
0.1519927978515625;-0.1632232666015625;-0.981964111328125;-0.03286367282271385;0.003984355367720127;-0.002624012529850006
0.1519927978515625;-0.1632232666015625;-0.981964111328125;-0.03286367282271385;0.003984355367720127;-0.002624012529850006
0.1519927978515625;-0.1632232666015625;-0.981964111328125;-0.03286367282271385;0.003984355367720127;-0.002624012529850006
0.1519927978515625;-0.1632232666015625;-0.981964111328125;-0.03286367282271385;0.003984355367720127;-0.002624012529850006
0.1519927978515625;-0.1632232666015625;-0.981964111328125;-0.03286367282271385;0.003984355367720127;-0.002624012529850006
0.1547698974609375;-0.16278076171875;-0.988372802734375;-0.02755093388259411;0.016956079751253128;-0.00032144354190677404
0.1547698974609375;-0.16278076171875;-0.988372802734375;-0.02755093388259411;0.016956079751253128;-0.00032144354190677404
0.1547698974609375;-0.16278076171875;-0.988372802734375;-0.02755093388259411;0.016956079751253128;-0.00032144354190677404
0.1547698974609375;-0.16278076171875;-0.988372802734375;-0.02755093388259411;0.016956079751253128;-0.00032144354190677404
0.1547698974609375;-0.16278076171875;-0.988372802734375;-0.02755093388259411;0.016956079751253128;-0.00032144354190677404
0.15789794921875;-0.1624755859375;-0.9912261962890625;-0.020731376484036446;0.019180618226528168;0.0038895467296242714
0.15789794921875;-0.1624755859375;-0.9912261962890625;-0.020731376484036446;0.019180618226528168;0.0038895467296242714
0.15789794921875;-0.1624755859375;-0.9912261962890625;-0.020731376484036446;0.019180618226528168;0.0038895467296242714
0.15789794921875;-0.1624755859375;-0.9912261962890625;-0.020731376484036446;0.019180618226528168;0.0038895467296242714
0.15789794921875;-0.1624755859375;-0.9912261962890625;-0.020731376484036446;0.019180618226528168;0.0038895467296242714
0.1575164794921875;-0.1604766845703125;-0.99261474609375;-0.015398929826915264;0.01769164577126503;0.001677525113336742
0.1575164794921875;-0.1604766845703125;-0.99261474609375;-0.015398929826915264;0.01769164577126503;0.001677525113336742
0.1575164794921875;-0.1604766845703125;-0.99261474609375;-0.015398929826915264;0.01769164577126503;0.001677525113336742
0.1575164794921875;-0.1604766845703125;-0.99261474609375;-0.015398929826915264;0.01769164577126503;0.001677525113336742
0.1575164794921875;-0.1604766845703125;-0.99261474609375;-0.015398929826915264;0.01769164577126503;0.001677525113336742
0.1580963134765625;-0.1585235595703125;-0.993743896484375;-0.009432650171220303;0.009637979790568352;0.0018066884949803352
0.1580963134765625;-0.1585235595703125;-0.993743896484375;-0.009432650171220303;0.009637979790568352;0.0018066884949803352
0.1580963134765625;-0.1585235595703125;-0.993743896484375;-0.009432650171220303;0.009637979790568352;0.0018066884949803352
0.1580963134765625;-0.1585235595703125;-0.993743896484375;-0.009432650171220303;0.009637979790568352;0.0018066884949803352
0.1580963134765625;-0.1585235595703125;-0.993743896484375;-0.009432650171220303;0.009637979790568352;0.0018066884949803352
0.1592864990234375;-0.158203125;-0.994964599609375;-0.0076123797334730625;-0.004697815980762243;0.0025592977181077003
0.1592864990234375;-0.158203125;-0.994964599609375;-0.0076123797334730625;-0.004697815980762243;0.0025592977181077003
0.1592864990234375;-0.158203125;-0.994964599609375;-0.0076123797334730625;-0.004697815980762243;0.0025592977181077003
0.1592864990234375;-0.158203125;-0.994964599609375;-0.0076123797334730625;-0.004697815980762243;0.0025592977181077003
0.1592864990234375;-0.158203125;-0.994964599609375;-0.0076123797334730625;-0.004697815980762243;0.0025592977181077003
0.1579437255859375;-0.15704345703125;-0.9947662353515625;-0.005772401578724384;-0.007488542702049017;0.001758218975737691
0.1579437255859375;-0.15704345703125;-0.9947662353515625;-0.005772401578724384;-0.007488542702049017;0.001758218975737691
0.1579437255859375;-0.15704345703125;-0.9947662353515625;-0.005772401578724384;-0.007488542702049017;0.001758218975737691
0.1579437255859375;-0.15704345703125;-0.9947662353515625;-0.005772401578724384;-0.007488542702049017;0.001758218975737691
0.1579437255859375;-0.15704345703125;-0.9947662353515625;-0.005772401578724384;-0.007488542702049017;0.001758218975737691
0.1571807861328125;-0.1570281982421875;-0.993896484375;-0.002098304685205221;-0.013383449986577034;-0.0021694109309464693
0.1571807861328125;-0.1570281982421875;-0.993896484375;-0.002098304685205221;-0.013383449986577034;-0.0021694109309464693
0.1571807861328125;-0.1570281982421875;-0.993896484375;-0.002098304685205221;-0.013383449986577034;-0.0021694109309464693
0.1571807861328125;-0.1570281982421875;-0.993896484375;-0.002098304685205221;-0.013383449986577034;-0.0021694109309464693
0.1571807861328125;-0.1570281982421875;-0.993896484375;-0.002098304685205221;-0.013383449986577034;-0.0021694109309464693
0.158111572265625;-0.1571502685546875;-0.9944305419921875;-0.0036602485924959183;-0.014664962887763977;0.0029856697656214237
0.158111572265625;-0.1571502685546875;-0.9944305419921875;-0.0036602485924959183;-0.014664962887763977;0.0029856697656214237
0.158111572265625;-0.1571502685546875;-0.9944305419921875;-0.0036602485924959183;-0.014664962887763977;0.0029856697656214237
0.158111572265625;-0.1571502685546875;-0.9944305419921875;-0.0036602485924959183;-0.014664962887763977;0.0029856697656214237
0.158111572265625;-0.1571502685546875;-0.9944305419921875;-0.0036602485924959183;-0.014664962887763977;0.0029856697656214237
0.1584625244140625;-0.1574859619140625;-0.9937896728515625;-0.003888215171173215;-0.01133734267205;0.004442418925464153
0.1584625244140625;-0.1574859619140625;-0.9937896728515625;-0.003888215171173215;-0.01133734267205;0.004442418925464153
0.1584625244140625;-0.1574859619140625;-0.9937896728515625;-0.003888215171173215;-0.01133734267205;0.004442418925464153
0.1584625244140625;-0.1574859619140625;-0.9937896728515625;-0.003888215171173215;-0.01133734267205;0.004442418925464153
0.1584625244140625;-0.1574859619140625;-0.9937896728515625;-0.003888215171173215;-0.01133734267205;0.004442418925464153
0.1595001220703125;-0.15826416015625;-0.992645263671875;-0.007551925722509623;-0.013518738560378551;0.004060255363583565
0.1595001220703125;-0.15826416015625;-0.992645263671875;-0.007551925722509623;-0.013518738560378551;0.004060255363583565
0.1595001220703125;-0.15826416015625;-0.992645263671875;-0.007551925722509623;-0.013518738560378551;0.004060255363583565
0.1595001220703125;-0.15826416015625;-0.992645263671875;-0.007551925722509623;-0.013518738560378551;0.004060255363583565
0.1595001220703125;-0.15826416015625;-0.992645263671875;-0.007321828510612249;-0.013528325594961643;0.0038272286765277386
0.1590576171875;-0.1579742431640625;-0.9923858642578125;-0.007321828510612249;-0.013528325594961643;0.0038272286765277386
0.1590576171875;-0.1579742431640625;-0.9923858642578125;-0.007321828510612249;-0.013528325594961643;0.0038272286765277386
0.1590576171875;-0.1579742431640625;-0.9923858642578125;-0.007321828510612249;-0.013528325594961643;0.0038272286765277386
0.1590576171875;-0.1579742431640625;-0.9923858642578125;-0.007321828510612249;-0.013528325594961643;0.0038272286765277386
0.1590576171875;-0.1579742431640625;-0.9923858642578125;-0.002891926560550928;-0.020244285464286804;0.006855242885649204
0.1589508056640625;-0.158050537109375;-0.994873046875;-0.002891926560550928;-0.020244285464286804;0.006855242885649204
0.1589508056640625;-0.158050537109375;-0.994873046875;-0.002891926560550928;-0.020244285464286804;0.006855242885649204
0.1589508056640625;-0.158050537109375;-0.994873046875;-0.002891926560550928;-0.020244285464286804;0.006855242885649204
0.1589508056640625;-0.158050537109375;-0.994873046875;-0.002891926560550928;-0.020244285464286804;0.006855242885649204
0.1589508056640625;-0.158050537109375;-0.994873046875;-9.321063407696784e-05;-0.0278574638068676;0.006368417292833328
0.159454345703125;-0.1595611572265625;-0.993865966796875;-9.321063407696784e-05;-0.0278574638068676;0.006368417292833328
0.159454345703125;-0.1595611572265625;-0.993865966796875;-9.321063407696784e-05;-0.0278574638068676;0.006368417292833328
0.159454345703125;-0.1595611572265625;-0.993865966796875;-9.321063407696784e-05;-0.0278574638068676;0.006368417292833328
0.159454345703125;-0.1595611572265625;-0.993865966796875;-9.321063407696784e-05;-0.0278574638068676;0.006368417292833328
0.159454345703125;-0.1595611572265625;-0.993865966796875;0.0014495585346594453;-0.026987675577402115;0.005352953914552927
0.1587677001953125;-0.1605987548828125;-0.9932708740234375;0.0014495585346594453;-0.026987675577402115;0.005352953914552927
0.1587677001953125;-0.1605987548828125;-0.9932708740234375;0.0014495585346594453;-0.026987675577402115;0.005352953914552927
0.1587677001953125;-0.1605987548828125;-0.9932708740234375;0.0014495585346594453;-0.026987675577402115;0.005352953914552927
0.1587677001953125;-0.1605987548828125;-0.9932708740234375;0.0014495585346594453;-0.026987675577402115;0.005352953914552927
0.1577606201171875;-0.161285400390625;-0.9892425537109375;0.001856223214417696;-0.015381352975964546;0.0070826769806444645
0.1577606201171875;-0.161285400390625;-0.9892425537109375;0.001856223214417696;-0.015381352975964546;0.0070826769806444645
0.1577606201171875;-0.161285400390625;-0.9892425537109375;0.001856223214417696;-0.015381352975964546;0.0070826769806444645
0.1577606201171875;-0.161285400390625;-0.9892425537109375;0.001856223214417696;-0.015381352975964546;0.0070826769806444645
0.1577606201171875;-0.161285400390625;-0.9892425537109375;0.001856223214417696;-0.015381352975964546;0.0070826769806444645
0.158172607421875;-0.1631622314453125;-0.9875335693359375;-0.0005494101205840707;-0.003126284806057811;0.009097091853618622
0.158172607421875;-0.1631622314453125;-0.9875335693359375;-0.0005494101205840707;-0.003126284806057811;0.009097091853618622
0.158172607421875;-0.1631622314453125;-0.9875335693359375;-0.0005494101205840707;-0.003126284806057811;0.009097091853618622
0.158172607421875;-0.1631622314453125;-0.9875335693359375;-0.0005494101205840707;-0.003126284806057811;0.009097091853618622
0.158172607421875;-0.1631622314453125;-0.9875335693359375;-0.0005494101205840707;-0.003126284806057811;0.009097091853618622
0.15814208984375;-0.16326904296875;-0.98486328125;-0.008508266881108284;0.0057010287418961525;0.00589650496840477
0.15814208984375;-0.16326904296875;-0.98486328125;-0.008508266881108284;0.0057010287418961525;0.00589650496840477
0.15814208984375;-0.16326904296875;-0.98486328125;-0.008508266881108284;0.0057010287418961525;0.00589650496840477
0.15814208984375;-0.16326904296875;-0.98486328125;-0.008508266881108284;0.0057010287418961525;0.00589650496840477
0.15814208984375;-0.16326904296875;-0.98486328125;-0.008508266881108284;0.0057010287418961525;0.00589650496840477
0.15679931640625;-0.1638336181640625;-0.986785888671875;-0.011204984039068222;0.008419050835072994;-0.00010972223390126601
0.15679931640625;-0.1638336181640625;-0.986785888671875;-0.011204984039068222;0.008419050835072994;-0.00010972223390126601
0.15679931640625;-0.1638336181640625;-0.986785888671875;-0.011204984039068222;0.008419050835072994;-0.00010972223390126601
0.15679931640625;-0.1638336181640625;-0.986785888671875;-0.011204984039068222;0.008419050835072994;-0.00010972223390126601
0.15679931640625;-0.1638336181640625;-0.986785888671875;-0.011204984039068222;0.008419050835072994;-0.00010972223390126601
0.15679931640625;-0.1638336181640625;-0.986785888671875;-0.017047161236405373;0.0023012375459074974;-0.003454119898378849
0.1567840576171875;-0.164031982421875;-0.986724853515625;-0.017047161236405373;0.0023012375459074974;-0.003454119898378849
0.1567840576171875;-0.164031982421875;-0.986724853515625;-0.017047161236405373;0.0023012375459074974;-0.003454119898378849
0.1567840576171875;-0.164031982421875;-0.986724853515625;-0.017047161236405373;0.0023012375459074974;-0.003454119898378849
0.1567840576171875;-0.164031982421875;-0.986724853515625;-0.017047161236405373;0.0023012375459074974;-0.003454119898378849
0.1584930419921875;-0.163330078125;-0.987762451171875;-0.013001818209886551;0.0014980280539020896;-0.0002894856152124703
0.1584930419921875;-0.163330078125;-0.987762451171875;-0.013001818209886551;0.0014980280539020896;-0.0002894856152124703
0.1584930419921875;-0.163330078125;-0.987762451171875;-0.013001818209886551;0.0014980280539020896;-0.0002894856152124703
0.1584930419921875;-0.163330078125;-0.987762451171875;-0.013001818209886551;0.0014980280539020896;-0.0002894856152124703
0.1584930419921875;-0.163330078125;-0.987762451171875;-0.013001818209886551;0.0014980280539020896;-0.0002894856152124703
0.1587371826171875;-0.1628570556640625;-0.9881134033203125;-0.013225523754954338;-0.001630387152545154;0.00028389296494424343
0.1587371826171875;-0.1628570556640625;-0.9881134033203125;-0.013225523754954338;-0.001630387152545154;0.00028389296494424343
0.1587371826171875;-0.1628570556640625;-0.9881134033203125;-0.013225523754954338;-0.001630387152545154;0.00028389296494424343
0.1587371826171875;-0.1628570556640625;-0.9881134033203125;-0.013225523754954338;-0.001630387152545154;0.00028389296494424343
0.1587371826171875;-0.1628570556640625;-0.9881134033203125;-0.013225523754954338;-0.001630387152545154;0.00028389296494424343
0.158355712890625;-0.16162109375;-0.988189697265625;-0.006953780073672533;-0.0026644926983863115;0.0017006946727633476
0.158355712890625;-0.16162109375;-0.988189697265625;-0.006953780073672533;-0.0026644926983863115;0.0017006946727633476
0.158355712890625;-0.16162109375;-0.988189697265625;-0.006953780073672533;-0.0026644926983863115;0.0017006946727633476
0.158355712890625;-0.16162109375;-0.988189697265625;-0.006953780073672533;-0.0026644926983863115;0.0017006946727633476
0.158355712890625;-0.16162109375;-0.988189697265625;-0.006953780073672533;-0.0026644926983863115;0.0017006946727633476
0.1575775146484375;-0.1612396240234375;-0.9897308349609375;-0.008873919025063515;-0.00020719393796753138;0.0018844527658075094
0.1575775146484375;-0.1612396240234375;-0.9897308349609375;-0.008873919025063515;-0.00020719393796753138;0.0018844527658075094
0.1575775146484375;-0.1612396240234375;-0.9897308349609375;-0.008873919025063515;-0.00020719393796753138;0.0018844527658075094
0.1575775146484375;-0.1612396240234375;-0.9897308349609375;-0.008873919025063515;-0.00020719393796753138;0.0018844527658075094
0.1575775146484375;-0.1612396240234375;-0.9897308349609375;-0.008873919025063515;-0.00020719393796753138;0.0018844527658075094
0.1578826904296875;-0.162078857421875;-0.98992919921875;-0.011589543893933296;0.004962267819792032;0.0017992316279560328
0.1578826904296875;-0.162078857421875;-0.98992919921875;-0.011589543893933296;0.004962267819792032;0.0017992316279560328
0.1578826904296875;-0.162078857421875;-0.98992919921875;-0.011589543893933296;0.004962267819792032;0.0017992316279560328
0.1578826904296875;-0.162078857421875;-0.98992919921875;-0.011589543893933296;0.004962267819792032;0.0017992316279560328
0.1578826904296875;-0.162078857421875;-0.98992919921875;-0.011589543893933296;0.004962267819792032;0.0017992316279560328
0.15850830078125;-0.161834716796875;-0.98602294921875;-0.025723738595843315;0.01134187076240778;0.0037529265973716974
0.15850830078125;-0.161834716796875;-0.98602294921875;-0.025723738595843315;0.01134187076240778;0.0037529265973716974
0.15850830078125;-0.161834716796875;-0.98602294921875;-0.025723738595843315;0.01134187076240778;0.0037529265973716974
0.15850830078125;-0.161834716796875;-0.98602294921875;-0.025723738595843315;0.01134187076240778;0.0037529265973716974
0.15850830078125;-0.161834716796875;-0.98602294921875;-0.025723738595843315;0.01134187076240778;0.0037529265973716974
0.157867431640625;-0.1617889404296875;-0.9803619384765625;-0.04188166931271553;0.016708938404917717;0.00205276464112103
0.157867431640625;-0.1617889404296875;-0.9803619384765625;-0.04188166931271553;0.016708938404917717;0.00205276464112103
0.157867431640625;-0.1617889404296875;-0.9803619384765625;-0.04188166931271553;0.016708938404917717;0.00205276464112103
0.157867431640625;-0.1617889404296875;-0.9803619384765625;-0.04188166931271553;0.016708938404917717;0.00205276464112103
0.157867431640625;-0.1617889404296875;-0.9803619384765625;-0.04188166931271553;0.016708938404917717;0.00205276464112103
0.156982421875;-0.1608734130859375;-0.979339599609375;-0.04983333498239517;0.018132930621504784;-0.0016231966437771916
0.156982421875;-0.1608734130859375;-0.979339599609375;-0.04983333498239517;0.018132930621504784;-0.0016231966437771916
0.156982421875;-0.1608734130859375;-0.979339599609375;-0.04983333498239517;0.018132930621504784;-0.0016231966437771916
0.156982421875;-0.1608734130859375;-0.979339599609375;-0.04983333498239517;0.018132930621504784;-0.0016231966437771916
0.156982421875;-0.1608734130859375;-0.979339599609375;-0.04983333498239517;0.018132930621504784;-0.0016231966437771916
0.1546783447265625;-0.1555938720703125;-0.9884796142578125;-0.05230847746133804;0.0005528722540475428;-0.006401706486940384
0.1546783447265625;-0.1555938720703125;-0.9884796142578125;-0.05230847746133804;0.0005528722540475428;-0.006401706486940384
0.1546783447265625;-0.1555938720703125;-0.9884796142578125;-0.05230847746133804;0.0005528722540475428;-0.006401706486940384
0.1546783447265625;-0.1555938720703125;-0.9884796142578125;-0.05230847746133804;0.0005528722540475428;-0.006401706486940384
0.1546783447265625;-0.1555938720703125;-0.9884796142578125;-0.05230847746133804;0.0005528722540475428;-0.006401706486940384
0.156280517578125;-0.151336669921875;-0.9982147216796875;-0.04746392369270325;-0.02889423258602619;-0.010933874174952507
0.156280517578125;-0.151336669921875;-0.9982147216796875;-0.04746392369270325;-0.02889423258602619;-0.010933874174952507
0.156280517578125;-0.151336669921875;-0.9982147216796875;-0.04746392369270325;-0.02889423258602619;-0.010933874174952507
0.156280517578125;-0.151336669921875;-0.9982147216796875;-0.04746392369270325;-0.02889423258602619;-0.010933874174952507
0.156280517578125;-0.151336669921875;-0.9982147216796875;-0.04746392369270325;-0.02889423258602619;-0.010933874174952507
0.1567535400390625;-0.1529083251953125;-1.001983642578125;-0.04268088564276695;-0.05937464162707329;-0.008008924312889576
0.1567535400390625;-0.1529083251953125;-1.001983642578125;-0.04268088564276695;-0.05937464162707329;-0.008008924312889576
0.1567535400390625;-0.1529083251953125;-1.001983642578125;-0.04268088564276695;-0.05937464162707329;-0.008008924312889576
0.1567535400390625;-0.1529083251953125;-1.001983642578125;-0.04268088564276695;-0.05937464162707329;-0.008008924312889576
0.1567535400390625;-0.1529083251953125;-1.001983642578125;-0.04268088564276695;-0.05937464162707329;-0.008008924312889576
0.156036376953125;-0.15252685546875;-0.9964447021484375;-0.04494590312242508;-0.061538197100162506;-0.005382781382650137
0.156036376953125;-0.15252685546875;-0.9964447021484375;-0.04494590312242508;-0.061538197100162506;-0.005382781382650137
0.156036376953125;-0.15252685546875;-0.9964447021484375;-0.04494590312242508;-0.061538197100162506;-0.005382781382650137
0.156036376953125;-0.15252685546875;-0.9964447021484375;-0.04494590312242508;-0.061538197100162506;-0.005382781382650137
0.156036376953125;-0.15252685546875;-0.9964447021484375;-0.04494590312242508;-0.061538197100162506;-0.005382781382650137
0.1536407470703125;-0.154022216796875;-0.98760986328125;-0.04453178122639656;-0.033737991005182266;-0.003835750976577401
0.1536407470703125;-0.154022216796875;-0.98760986328125;-0.04453178122639656;-0.033737991005182266;-0.003835750976577401
0.1536407470703125;-0.154022216796875;-0.98760986328125;-0.04453178122639656;-0.033737991005182266;-0.003835750976577401
0.1536407470703125;-0.154022216796875;-0.98760986328125;-0.04453178122639656;-0.033737991005182266;-0.003835750976577401
0.1536407470703125;-0.154022216796875;-0.98760986328125;-0.04453178122639656;-0.033737991005182266;-0.003835750976577401
0.1496429443359375;-0.15460205078125;-0.9810943603515625;-0.04761146008968353;0.004258661065250635;-0.006041114684194326
0.1496429443359375;-0.15460205078125;-0.9810943603515625;-0.04761146008968353;0.004258661065250635;-0.006041114684194326
0.1496429443359375;-0.15460205078125;-0.9810943603515625;-0.04761146008968353;0.004258661065250635;-0.006041114684194326
0.1496429443359375;-0.15460205078125;-0.9810943603515625;-0.04761146008968353;0.004258661065250635;-0.006041114684194326
0.1496429443359375;-0.15460205078125;-0.9810943603515625;-0.04761146008968353;0.004258661065250635;-0.006041114684194326
0.1516571044921875;-0.153900146484375;-0.979949951171875;-0.05277799442410469;0.03837615251541138;-0.002511627273634076
0.1516571044921875;-0.153900146484375;-0.979949951171875;-0.05277799442410469;0.03837615251541138;-0.002511627273634076
0.1516571044921875;-0.153900146484375;-0.979949951171875;-0.05277799442410469;0.03837615251541138;-0.002511627273634076
0.1516571044921875;-0.153900146484375;-0.979949951171875;-0.05277799442410469;0.03837615251541138;-0.002511627273634076
0.1516571044921875;-0.153900146484375;-0.979949951171875;-0.05277799442410469;0.03837615251541138;-0.002511627273634076
0.1559295654296875;-0.1537628173828125;-0.9822540283203125;-0.05396416410803795;0.07063155621290207;0.005579588934779167
0.1559295654296875;-0.1537628173828125;-0.9822540283203125;-0.05396416410803795;0.07063155621290207;0.005579588934779167
0.1559295654296875;-0.1537628173828125;-0.9822540283203125;-0.05396416410803795;0.07063155621290207;0.005579588934779167
0.1559295654296875;-0.1537628173828125;-0.9822540283203125;-0.05396416410803795;0.07063155621290207;0.005579588934779167
0.1559295654296875;-0.1537628173828125;-0.9822540283203125;-0.05396416410803795;0.07063155621290207;0.005579588934779167
0.159759521484375;-0.15447998046875;-0.9850311279296875;-0.05927317589521408;0.0786047950387001;0.002234658459201455
0.159759521484375;-0.15447998046875;-0.9850311279296875;-0.05927317589521408;0.0786047950387001;0.002234658459201455
0.159759521484375;-0.15447998046875;-0.9850311279296875;-0.05927317589521408;0.0786047950387001;0.002234658459201455
0.159759521484375;-0.15447998046875;-0.9850311279296875;-0.05927317589521408;0.0786047950387001;0.002234658459201455
0.159759521484375;-0.15447998046875;-0.9850311279296875;-0.05927317589521408;0.0786047950387001;0.002234658459201455
0.161956787109375;-0.155120849609375;-0.9924468994140625;-0.053522348403930664;0.0686246007680893;-0.0002990729990415275
0.161956787109375;-0.155120849609375;-0.9924468994140625;-0.053522348403930664;0.0686246007680893;-0.0002990729990415275
0.161956787109375;-0.155120849609375;-0.9924468994140625;-0.053522348403930664;0.0686246007680893;-0.0002990729990415275
0.161956787109375;-0.155120849609375;-0.9924468994140625;-0.053522348403930664;0.0686246007680893;-0.0002990729990415275
0.161956787109375;-0.155120849609375;-0.9924468994140625;-0.053522348403930664;0.0686246007680893;-0.0002990729990415275
0.1640625;-0.154754638671875;-1.0009307861328125;-0.045220475643873215;0.04192508012056351;-0.00310604483820498
0.1640625;-0.154754638671875;-1.0009307861328125;-0.045220475643873215;0.04192508012056351;-0.00310604483820498
0.1640625;-0.154754638671875;-1.0009307861328125;-0.045220475643873215;0.04192508012056351;-0.00310604483820498
0.1640625;-0.154754638671875;-1.0009307861328125;-0.045220475643873215;0.04192508012056351;-0.00310604483820498
0.1640625;-0.154754638671875;-1.0009307861328125;-0.045220475643873215;0.04192508012056351;-0.00310604483820498
0.1644287109375;-0.15594482421875;-1.0042572021484375;-0.03501231223344803;0.013113937340676785;-0.003213103860616684
0.1644287109375;-0.15594482421875;-1.0042572021484375;-0.03501231223344803;0.013113937340676785;-0.003213103860616684
0.1644287109375;-0.15594482421875;-1.0042572021484375;-0.03501231223344803;0.013113937340676785;-0.003213103860616684
0.1644287109375;-0.15594482421875;-1.0042572021484375;-0.03501231223344803;0.013113937340676785;-0.003213103860616684
0.1644287109375;-0.15594482421875;-1.0042572021484375;-0.03501231223344803;0.013113937340676785;-0.003213103860616684
0.1612548828125;-0.1575164794921875;-1.000030517578125;-0.02889290079474449;-0.0070158313028514385;-0.002620816696435213
0.1612548828125;-0.1575164794921875;-1.000030517578125;-0.02889290079474449;-0.0070158313028514385;-0.002620816696435213
0.1612548828125;-0.1575164794921875;-1.000030517578125;-0.02889290079474449;-0.0070158313028514385;-0.002620816696435213
0.1612548828125;-0.1575164794921875;-1.000030517578125;-0.02889290079474449;-0.0070158313028514385;-0.002620816696435213
0.1612548828125;-0.1575164794921875;-1.000030517578125;-0.02889290079474449;-0.0070158313028514385;-0.002620816696435213
0.1571197509765625;-0.1569976806640625;-0.9924774169921875;-0.026819363236427307;-0.009037170559167862;-0.004621649626642466
0.1571197509765625;-0.1569976806640625;-0.9924774169921875;-0.026819363236427307;-0.009037170559167862;-0.004621649626642466
0.1571197509765625;-0.1569976806640625;-0.9924774169921875;-0.026819363236427307;-0.009037170559167862;-0.004621649626642466
0.1571197509765625;-0.1569976806640625;-0.9924774169921875;-0.026819363236427307;-0.009037170559167862;-0.004621649626642466
0.1571197509765625;-0.1569976806640625;-0.9924774169921875;-0.026819363236427307;-0.009037170559167862;-0.004621649626642466
0.155029296875;-0.15582275390625;-0.9868316650390625;-0.03278644382953644;-0.005153216887265444;-0.0056831855326890945
0.155029296875;-0.15582275390625;-0.9868316650390625;-0.03278644382953644;-0.005153216887265444;-0.0056831855326890945
0.155029296875;-0.15582275390625;-0.9868316650390625;-0.03278644382953644;-0.005153216887265444;-0.0056831855326890945
0.155029296875;-0.15582275390625;-0.9868316650390625;-0.03278644382953644;-0.005153216887265444;-0.0056831855326890945
0.155029296875;-0.15582275390625;-0.9868316650390625;-0.03278644382953644;-0.005153216887265444;-0.0056831855326890945
0.155242919921875;-0.154205322265625;-0.9850311279296875;-0.033309753984212875;0.005286108236759901;-0.007734352257102728
0.155242919921875;-0.154205322265625;-0.9850311279296875;-0.033309753984212875;0.005286108236759901;-0.007734352257102728
0.155242919921875;-0.154205322265625;-0.9850311279296875;-0.033309753984212875;0.005286108236759901;-0.007734352257102728
0.155242919921875;-0.154205322265625;-0.9850311279296875;-0.033309753984212875;0.005286108236759901;-0.007734352257102728
0.155242919921875;-0.154205322265625;-0.9850311279296875;-0.033309753984212875;0.005286108236759901;-0.007734352257102728
0.1569976806640625;-0.1521759033203125;-0.988037109375;-0.03213929384946823;0.009516273625195026;-0.0031278827227652073
0.1569976806640625;-0.1521759033203125;-0.988037109375;-0.03213929384946823;0.009516273625195026;-0.0031278827227652073
0.1569976806640625;-0.1521759033203125;-0.988037109375;-0.03213929384946823;0.009516273625195026;-0.0031278827227652073
0.1569976806640625;-0.1521759033203125;-0.988037109375;-0.03213929384946823;0.009516273625195026;-0.0031278827227652073
0.1569976806640625;-0.1521759033203125;-0.988037109375;-0.03213929384946823;0.009516273625195026;-0.0031278827227652073
0.1585540771484375;-0.148651123046875;-0.9896392822265625;-0.03310735151171684;0.013221795670688152;-0.00210709311068058
0.1585540771484375;-0.148651123046875;-0.9896392822265625;-0.03310735151171684;0.013221795670688152;-0.00210709311068058
0.1585540771484375;-0.148651123046875;-0.9896392822265625;-0.03310735151171684;0.013221795670688152;-0.00210709311068058
0.1585540771484375;-0.148651123046875;-0.9896392822265625;-0.03310735151171684;0.013221795670688152;-0.00210709311068058
0.1585540771484375;-0.148651123046875;-0.9896392822265625;-0.03310735151171684;0.013221795670688152;-0.00210709311068058
0.1609039306640625;-0.1467132568359375;-0.9915924072265625;-0.02593279629945755;0.012042282149195671;0.0006149238906800747
0.1609039306640625;-0.1467132568359375;-0.9915924072265625;-0.02593279629945755;0.012042282149195671;0.0006149238906800747
0.1609039306640625;-0.1467132568359375;-0.9915924072265625;-0.02593279629945755;0.012042282149195671;0.0006149238906800747
0.1609039306640625;-0.1467132568359375;-0.9915924072265625;-0.02593279629945755;0.012042282149195671;0.0006149238906800747
0.1609039306640625;-0.1467132568359375;-0.9915924072265625;-0.02593279629945755;0.012042282149195671;0.0006149238906800747
0.1617431640625;-0.1464691162109375;-0.9933929443359375;-0.024449151009321213;0.008947954513132572;0.0019371833186596632
0.1617431640625;-0.1464691162109375;-0.9933929443359375;-0.024449151009321213;0.008947954513132572;0.0019371833186596632
0.1617431640625;-0.1464691162109375;-0.9933929443359375;-0.024449151009321213;0.008947954513132572;0.0019371833186596632
0.1617431640625;-0.1464691162109375;-0.9933929443359375;-0.024449151009321213;0.008947954513132572;0.0019371833186596632
0.1617431640625;-0.1464691162109375;-0.9933929443359375;-0.024449151009321213;0.008947954513132572;0.0019371833186596632
0.1614227294921875;-0.144866943359375;-0.9934844970703125;-0.01552276685833931;-0.002198705682530999;-0.0008080030675046146
0.1614227294921875;-0.144866943359375;-0.9934844970703125;-0.01552276685833931;-0.002198705682530999;-0.0008080030675046146
0.1614227294921875;-0.144866943359375;-0.9934844970703125;-0.01552276685833931;-0.002198705682530999;-0.0008080030675046146
0.1614227294921875;-0.144866943359375;-0.9934844970703125;-0.01552276685833931;-0.002198705682530999;-0.0008080030675046146
0.1614227294921875;-0.144866943359375;-0.9934844970703125;-0.01552276685833931;-0.002198705682530999;-0.0008080030675046146
0.1611175537109375;-0.143646240234375;-0.9954986572265625;-0.005886384751647711;-0.005732986610382795;-0.0008279767935164273
0.1611175537109375;-0.143646240234375;-0.9954986572265625;-0.005886384751647711;-0.005732986610382795;-0.0008279767935164273
0.1611175537109375;-0.143646240234375;-0.9954986572265625;-0.005886384751647711;-0.005732986610382795;-0.0008279767935164273
0.1611175537109375;-0.143646240234375;-0.9954986572265625;-0.005886384751647711;-0.005732986610382795;-0.0008279767935164273
0.1611175537109375;-0.143646240234375;-0.9954986572265625;-0.005886384751647711;-0.005732986610382795;-0.0008279767935164273
0.160003662109375;-0.143798828125;-0.9967803955078125;0.007592938374727964;-0.009981527924537659;0.0005928196478635073
0.160003662109375;-0.143798828125;-0.9967803955078125;0.007592938374727964;-0.009981527924537659;0.0005928196478635073
0.160003662109375;-0.143798828125;-0.9967803955078125;0.007592938374727964;-0.009981527924537659;0.0005928196478635073
0.160003662109375;-0.143798828125;-0.9967803955078125;0.007592938374727964;-0.009981527924537659;0.0005928196478635073
0.160003662109375;-0.143798828125;-0.9967803955078125;0.007592938374727964;-0.009981527924537659;0.0005928196478635073
0.1591796875;-0.144866943359375;-0.9976806640625;0.021206218749284744;-0.015844743698835373;0.002147573046386242
0.1591796875;-0.144866943359375;-0.9976806640625;0.021206218749284744;-0.015844743698835373;0.002147573046386242
0.1591796875;-0.144866943359375;-0.9976806640625;0.021206218749284744;-0.015844743698835373;0.002147573046386242
0.1591796875;-0.144866943359375;-0.9976806640625;0.021206218749284744;-0.015844743698835373;0.002147573046386242
0.1591796875;-0.144866943359375;-0.9976806640625;0.034088727086782455;-0.016155533492565155;0.004009655211120844
0.1593475341796875;-0.1473541259765625;-0.9976348876953125;0.034088727086782455;-0.016155533492565155;0.004009655211120844
0.1593475341796875;-0.1473541259765625;-0.9976348876953125;0.034088727086782455;-0.016155533492565155;0.004009655211120844
0.1593475341796875;-0.1473541259765625;-0.9976348876953125;0.034088727086782455;-0.016155533492565155;0.004009655211120844
0.1593475341796875;-0.1473541259765625;-0.9976348876953125;0.034088727086782455;-0.016155533492565155;0.004009655211120844
0.1593475341796875;-0.1473541259765625;-0.9976348876953125;0.03858387842774391;-0.02184830792248249;0.002886600326746702
0.159149169921875;-0.14910888671875;-0.9961395263671875;0.03858387842774391;-0.02184830792248249;0.002886600326746702
0.159149169921875;-0.14910888671875;-0.9961395263671875;0.03858387842774391;-0.02184830792248249;0.002886600326746702
0.159149169921875;-0.14910888671875;-0.9961395263671875;0.03858387842774391;-0.02184830792248249;0.002886600326746702
0.159149169921875;-0.14910888671875;-0.9961395263671875;0.03858387842774391;-0.02184830792248249;0.002886600326746702
0.1562347412109375;-0.1493377685546875;-0.9941253662109375;0.043542418628931046;-0.03442242369055748;0.0028125643730163574
0.1562347412109375;-0.1493377685546875;-0.9941253662109375;0.043542418628931046;-0.03442242369055748;0.0028125643730163574
0.1562347412109375;-0.1493377685546875;-0.9941253662109375;0.043542418628931046;-0.03442242369055748;0.0028125643730163574
0.1562347412109375;-0.1493377685546875;-0.9941253662109375;0.043542418628931046;-0.03442242369055748;0.0028125643730163574
0.1562347412109375;-0.1493377685546875;-0.9941253662109375;0.043542418628931046;-0.03442242369055748;0.0028125643730163574
0.1555633544921875;-0.150787353515625;-0.99383544921875;0.04417678341269493;-0.04087020084261894;0.004434429574757814
0.1555633544921875;-0.150787353515625;-0.99383544921875;0.04417678341269493;-0.04087020084261894;0.004434429574757814
0.1555633544921875;-0.150787353515625;-0.99383544921875;0.04417678341269493;-0.04087020084261894;0.004434429574757814
0.1555633544921875;-0.150787353515625;-0.99383544921875;0.04417678341269493;-0.04087020084261894;0.004434429574757814
0.1555633544921875;-0.150787353515625;-0.99383544921875;0.04417678341269493;-0.04087020084261894;0.004434429574757814
0.15789794921875;-0.154754638671875;-0.9894256591796875;0.0355212427675724;-0.04288275167346001;0.005054679699242115
0.15789794921875;-0.154754638671875;-0.9894256591796875;0.0355212427675724;-0.04288275167346001;0.005054679699242115
0.15789794921875;-0.154754638671875;-0.9894256591796875;0.0355212427675724;-0.04288275167346001;0.005054679699242115
0.15789794921875;-0.154754638671875;-0.9894256591796875;0.0355212427675724;-0.04288275167346001;0.005054679699242115
0.15789794921875;-0.154754638671875;-0.9894256591796875;0.0355212427675724;-0.04288275167346001;0.005054679699242115
0.153961181640625;-0.1570892333984375;-0.9835968017578125;0.02564251236617565;-0.033547308295965195;0.003882356220856309
0.153961181640625;-0.1570892333984375;-0.9835968017578125;0.02564251236617565;-0.033547308295965195;0.003882356220856309
0.153961181640625;-0.1570892333984375;-0.9835968017578125;0.02564251236617565;-0.033547308295965195;0.003882356220856309
0.153961181640625;-0.1570892333984375;-0.9835968017578125;0.02564251236617565;-0.033547308295965195;0.003882356220856309
0.153961181640625;-0.1570892333984375;-0.9835968017578125;0.02564251236617565;-0.033547308295965195;0.003882356220856309
0.151092529296875;-0.15325927734375;-0.980987548828125;0.017545970156788826;-0.030610639601945877;0.005200620740652084
0.151092529296875;-0.15325927734375;-0.980987548828125;0.017545970156788826;-0.030610639601945877;0.005200620740652084
0.151092529296875;-0.15325927734375;-0.980987548828125;0.017545970156788826;-0.030610639601945877;0.005200620740652084
0.151092529296875;-0.15325927734375;-0.980987548828125;0.017545970156788826;-0.030610639601945877;0.005200620740652084
0.151092529296875;-0.15325927734375;-0.980987548828125;0.017545970156788826;-0.030610639601945877;0.005200620740652084
0.150634765625;-0.1507720947265625;-0.9846649169921875;0.016863401979207993;-0.028072115033864975;0.005022721830755472
0.150634765625;-0.1507720947265625;-0.9846649169921875;0.016863401979207993;-0.028072115033864975;0.005022721830755472
0.150634765625;-0.1507720947265625;-0.9846649169921875;0.016863401979207993;-0.028072115033864975;0.005022721830755472
0.150634765625;-0.1507720947265625;-0.9846649169921875;0.016863401979207993;-0.028072115033864975;0.005022721830755472
0.150634765625;-0.1507720947265625;-0.9846649169921875;0.016863401979207993;-0.028072115033864975;0.005022721830755472
0.1532135009765625;-0.1522674560546875;-0.98651123046875;0.020662400871515274;-0.022241922095417976;0.004962267819792032
0.1532135009765625;-0.1522674560546875;-0.98651123046875;0.020662400871515274;-0.022241922095417976;0.004962267819792032
0.1532135009765625;-0.1522674560546875;-0.98651123046875;0.020662400871515274;-0.022241922095417976;0.004962267819792032
0.1532135009765625;-0.1522674560546875;-0.98651123046875;0.020662400871515274;-0.022241922095417976;0.004962267819792032
0.1532135009765625;-0.1522674560546875;-0.98651123046875;0.020662400871515274;-0.022241922095417976;0.004962267819792032
0.154571533203125;-0.1536407470703125;-0.9843597412109375;0.026340261101722717;-0.02040593884885311;0.008327971212565899
0.154571533203125;-0.1536407470703125;-0.9843597412109375;0.026340261101722717;-0.02040593884885311;0.008327971212565899
0.154571533203125;-0.1536407470703125;-0.9843597412109375;0.026340261101722717;-0.02040593884885311;0.008327971212565899
0.154571533203125;-0.1536407470703125;-0.9843597412109375;0.026340261101722717;-0.02040593884885311;0.008327971212565899
0.154571533203125;-0.1536407470703125;-0.9843597412109375;0.026340261101722717;-0.02040593884885311;0.008327971212565899
0.1546783447265625;-0.154541015625;-0.98394775390625;0.029436985030770302;-0.013938185758888721;0.009589776396751404
0.1546783447265625;-0.154541015625;-0.98394775390625;0.029436985030770302;-0.013938185758888721;0.009589776396751404
0.1546783447265625;-0.154541015625;-0.98394775390625;0.029436985030770302;-0.013938185758888721;0.009589776396751404
0.1546783447265625;-0.154541015625;-0.98394775390625;0.029436985030770302;-0.013938185758888721;0.009589776396751404
0.1546783447265625;-0.154541015625;-0.98394775390625;0.029436985030770302;-0.013938185758888721;0.009589776396751404
0.1546783447265625;-0.152130126953125;-0.9852752685546875;0.03151318430900574;-0.010365555062890053;0.008129299618303776
0.1546783447265625;-0.152130126953125;-0.9852752685546875;0.03151318430900574;-0.010365555062890053;0.008129299618303776
0.1546783447265625;-0.152130126953125;-0.9852752685546875;0.03151318430900574;-0.010365555062890053;0.008129299618303776
0.1546783447265625;-0.152130126953125;-0.9852752685546875;0.03151318430900574;-0.010365555062890053;0.008129299618303776
0.1546783447265625;-0.152130126953125;-0.9852752685546875;0.03151318430900574;-0.010365555062890053;0.008129299618303776
0.15545654296875;-0.1523590087890625;-0.98822021484375;0.036503683775663376;-0.008526909165084362;0.00632074661552906
0.15545654296875;-0.1523590087890625;-0.98822021484375;0.036503683775663376;-0.008526909165084362;0.00632074661552906
0.15545654296875;-0.1523590087890625;-0.98822021484375;0.036503683775663376;-0.008526909165084362;0.00632074661552906
0.15545654296875;-0.1523590087890625;-0.98822021484375;0.036503683775663376;-0.008526909165084362;0.00632074661552906
0.15545654296875;-0.1523590087890625;-0.98822021484375;0.036503683775663376;-0.008526909165084362;0.00632074661552906
0.1561737060546875;-0.152099609375;-0.9893646240234375;0.03933968394994736;-0.006754841655492783;0.007006776984781027
0.1561737060546875;-0.152099609375;-0.9893646240234375;0.03933968394994736;-0.006754841655492783;0.007006776984781027
0.1561737060546875;-0.152099609375;-0.9893646240234375;0.03933968394994736;-0.006754841655492783;0.007006776984781027
0.1561737060546875;-0.152099609375;-0.9893646240234375;0.03933968394994736;-0.006754841655492783;0.007006776984781027
0.1561737060546875;-0.152099609375;-0.9893646240234375;0.03933968394994736;-0.006754841655492783;0.007006776984781027
0.1551055908203125;-0.15374755859375;-0.99151611328125;0.0400046743452549;-0.007505586836487055;0.004391286056488752
0.1551055908203125;-0.15374755859375;-0.99151611328125;0.0400046743452549;-0.007505586836487055;0.004391286056488752
0.1551055908203125;-0.15374755859375;-0.99151611328125;0.0400046743452549;-0.007505586836487055;0.004391286056488752
0.1551055908203125;-0.15374755859375;-0.99151611328125;0.0400046743452549;-0.007505586836487055;0.004391286056488752
0.1551055908203125;-0.15374755859375;-0.99151611328125;0.0400046743452549;-0.007505586836487055;0.004391286056488752
0.1554107666015625;-0.1532745361328125;-0.9947662353515625;0.04158712550997734;-0.01248276885598898;0.002749181119725108
0.1554107666015625;-0.1532745361328125;-0.9947662353515625;0.04158712550997734;-0.01248276885598898;0.002749181119725108
0.1554107666015625;-0.1532745361328125;-0.9947662353515625;0.04158712550997734;-0.01248276885598898;0.002749181119725108
0.1554107666015625;-0.1532745361328125;-0.9947662353515625;0.04158712550997734;-0.01248276885598898;0.002749181119725108
0.1554107666015625;-0.1532745361328125;-0.9947662353515625;0.04158712550997734;-0.01248276885598898;0.002749181119725108
0.1561431884765625;-0.1555328369140625;-0.9967193603515625;0.04244120046496391;-0.009317602030932903;0.0037526602391153574
0.1561431884765625;-0.1555328369140625;-0.9967193603515625;0.04244120046496391;-0.009317602030932903;0.0037526602391153574
0.1561431884765625;-0.1555328369140625;-0.9967193603515625;0.04244120046496391;-0.009317602030932903;0.0037526602391153574
0.1561431884765625;-0.1555328369140625;-0.9967193603515625;0.04244120046496391;-0.009317602030932903;0.0037526602391153574
0.1561431884765625;-0.1555328369140625;-0.9967193603515625;0.04244120046496391;-0.009317602030932903;0.0037526602391153574
0.157012939453125;-0.156036376953125;-0.9967193603515625;0.04438477382063866;-0.010241984389722347;0.006232063286006451
0.157012939453125;-0.156036376953125;-0.9967193603515625;0.04438477382063866;-0.010241984389722347;0.006232063286006451
0.157012939453125;-0.156036376953125;-0.9967193603515625;0.04438477382063866;-0.010241984389722347;0.006232063286006451
0.157012939453125;-0.156036376953125;-0.9967193603515625;0.04438477382063866;-0.010241984389722347;0.006232063286006451
0.157012939453125;-0.156036376953125;-0.9967193603515625;0.04438477382063866;-0.010241984389722347;0.006232063286006451
0.1578216552734375;-0.155242919921875;-0.99407958984375;0.04476587474346161;-0.003988882526755333;0.007287207525223494
0.1578216552734375;-0.155242919921875;-0.99407958984375;0.04476587474346161;-0.003988882526755333;0.007287207525223494
0.1578216552734375;-0.155242919921875;-0.99407958984375;0.04476587474346161;-0.003988882526755333;0.007287207525223494
0.1578216552734375;-0.155242919921875;-0.99407958984375;0.04476587474346161;-0.003988882526755333;0.007287207525223494
0.1578216552734375;-0.155242919921875;-0.99407958984375;0.04476587474346161;-0.003988882526755333;0.007287207525223494
0.1585540771484375;-0.1554412841796875;-0.992919921875;0.04454270005226135;-0.006933273747563362;0.0067870658822357655
0.1585540771484375;-0.1554412841796875;-0.992919921875;0.04454270005226135;-0.006933273747563362;0.0067870658822357655
0.1585540771484375;-0.1554412841796875;-0.992919921875;0.04454270005226135;-0.006933273747563362;0.0067870658822357655
0.1585540771484375;-0.1554412841796875;-0.992919921875;0.04454270005226135;-0.006933273747563362;0.0067870658822357655
0.1585540771484375;-0.1554412841796875;-0.992919921875;0.04454270005226135;-0.006933273747563362;0.0067870658822357655
0.15887451171875;-0.1536865234375;-0.991790771484375;0.04493551701307297;-0.0073114424012601376;0.007859254255890846
0.15887451171875;-0.1536865234375;-0.991790771484375;0.04493551701307297;-0.0073114424012601376;0.007859254255890846
0.15887451171875;-0.1536865234375;-0.991790771484375;0.04493551701307297;-0.0073114424012601376;0.007859254255890846
0.15887451171875;-0.1536865234375;-0.991790771484375;0.04493551701307297;-0.0073114424012601376;0.007859254255890846
0.15887451171875;-0.1536865234375;-0.991790771484375;0.04493551701307297;-0.0073114424012601376;0.007859254255890846
0.1588592529296875;-0.1539154052734375;-0.993194580078125;0.05433913692831993;-0.01068167295306921;0.007843541912734509
0.1588592529296875;-0.1539154052734375;-0.993194580078125;0.05433913692831993;-0.01068167295306921;0.007843541912734509
0.1588592529296875;-0.1539154052734375;-0.993194580078125;0.05433913692831993;-0.01068167295306921;0.007843541912734509
0.1588592529296875;-0.1539154052734375;-0.993194580078125;0.05433913692831993;-0.01068167295306921;0.007843541912734509
0.1588592529296875;-0.1539154052734375;-0.993194580078125;0.05433913692831993;-0.01068167295306921;0.007843541912734509
0.1585540771484375;-0.152984619140625;-0.993255615234375;0.06440748274326324;-0.015743808820843697;0.012340023182332516
0.1585540771484375;-0.152984619140625;-0.993255615234375;0.06440748274326324;-0.015743808820843697;0.012340023182332516
0.1585540771484375;-0.152984619140625;-0.993255615234375;0.06440748274326324;-0.015743808820843697;0.012340023182332516
0.1585540771484375;-0.152984619140625;-0.993255615234375;0.06440748274326324;-0.015743808820843697;0.012340023182332516
0.1585540771484375;-0.152984619140625;-0.993255615234375;0.06440748274326324;-0.015743808820843697;0.012340023182332516
0.1579437255859375;-0.1536407470703125;-0.9917755126953125;0.07231760770082474;-0.01932522840797901;0.01133654359728098
0.1579437255859375;-0.1536407470703125;-0.9917755126953125;0.07231760770082474;-0.01932522840797901;0.01133654359728098
0.1579437255859375;-0.1536407470703125;-0.9917755126953125;0.07231760770082474;-0.01932522840797901;0.01133654359728098
0.1579437255859375;-0.1536407470703125;-0.9917755126953125;0.07231760770082474;-0.01932522840797901;0.01133654359728098
0.1579437255859375;-0.1536407470703125;-0.9917755126953125;0.07231760770082474;-0.01932522840797901;0.01133654359728098
0.157440185546875;-0.155914306640625;-0.9895477294921875;0.07957711815834045;-0.017610419541597366;0.009701629169285297
0.157440185546875;-0.155914306640625;-0.9895477294921875;0.07957711815834045;-0.017610419541597366;0.009701629169285297
0.157440185546875;-0.155914306640625;-0.9895477294921875;0.07957711815834045;-0.017610419541597366;0.009701629169285297
0.157440185546875;-0.155914306640625;-0.9895477294921875;0.07957711815834045;-0.017610419541597366;0.009701629169285297
0.157440185546875;-0.155914306640625;-0.9895477294921875;0.07957711815834045;-0.017610419541597366;0.009701629169285297
0.1566619873046875;-0.156829833984375;-0.9866790771484375;0.08792772144079208;-0.015578160993754864;0.012547217309474945
0.1566619873046875;-0.156829833984375;-0.9866790771484375;0.08792772144079208;-0.015578160993754864;0.012547217309474945
0.1566619873046875;-0.156829833984375;-0.9866790771484375;0.08792772144079208;-0.015578160993754864;0.012547217309474945
0.1566619873046875;-0.156829833984375;-0.9866790771484375;0.08792772144079208;-0.015578160993754864;0.012547217309474945
0.1566619873046875;-0.156829833984375;-0.9866790771484375;0.08792772144079208;-0.015578160993754864;0.012547217309474945
0.15643310546875;-0.1584930419921875;-0.9857025146484375;0.08750800788402557;-0.008830509148538113;0.012945359572768211
0.15643310546875;-0.1584930419921875;-0.9857025146484375;0.08750800788402557;-0.008830509148538113;0.012945359572768211
0.15643310546875;-0.1584930419921875;-0.9857025146484375;0.08750800788402557;-0.008830509148538113;0.012945359572768211
0.15643310546875;-0.1584930419921875;-0.9857025146484375;0.08750800788402557;-0.008830509148538113;0.012945359572768211
0.15643310546875;-0.1584930419921875;-0.9857025146484375;0.08750800788402557;-0.008830509148538113;0.012945359572768211
0.1568603515625;-0.160858154296875;-0.9851531982421875;0.09639790654182434;-0.008943960070610046;0.01239302009344101
0.1568603515625;-0.160858154296875;-0.9851531982421875;0.09639790654182434;-0.008943960070610046;0.01239302009344101
0.1568603515625;-0.160858154296875;-0.9851531982421875;0.09639790654182434;-0.008943960070610046;0.01239302009344101
0.1568603515625;-0.160858154296875;-0.9851531982421875;0.09639790654182434;-0.008943960070610046;0.01239302009344101
0.1568603515625;-0.160858154296875;-0.9851531982421875;0.09639790654182434;-0.008943960070610046;0.01239302009344101
0.1569061279296875;-0.1609649658203125;-0.9848785400390625;0.10040836036205292;-0.005087703000754118;0.013530722819268703
0.1569061279296875;-0.1609649658203125;-0.9848785400390625;0.10040836036205292;-0.005087703000754118;0.013530722819268703
0.1569061279296875;-0.1609649658203125;-0.9848785400390625;0.10040836036205292;-0.005087703000754118;0.013530722819268703
0.1569061279296875;-0.1609649658203125;-0.9848785400390625;0.10040836036205292;-0.005087703000754118;0.013530722819268703
0.1569061279296875;-0.1609649658203125;-0.9848785400390625;0.10040836036205292;-0.005087703000754118;0.013530722819268703
0.156005859375;-0.162567138671875;-0.9846954345703125;0.09946853667497635;-0.010789263993501663;0.01696460321545601
0.156005859375;-0.162567138671875;-0.9846954345703125;0.09946853667497635;-0.010789263993501663;0.01696460321545601
0.156005859375;-0.162567138671875;-0.9846954345703125;0.09946853667497635;-0.010789263993501663;0.01696460321545601
0.156005859375;-0.162567138671875;-0.9846954345703125;0.09946853667497635;-0.010789263993501663;0.01696460321545601
0.156005859375;-0.162567138671875;-0.9846954345703125;0.09946853667497635;-0.010789263993501663;0.01696460321545601
0.15606689453125;-0.1646728515625;-0.9835662841796875;0.10031595081090927;-0.010839864611625671;0.016019180417060852
0.15606689453125;-0.1646728515625;-0.9835662841796875;0.10031595081090927;-0.010839864611625671;0.016019180417060852
0.15606689453125;-0.1646728515625;-0.9835662841796875;0.10031595081090927;-0.010839864611625671;0.016019180417060852
0.15606689453125;-0.1646728515625;-0.9835662841796875;0.10031595081090927;-0.010839864611625671;0.016019180417060852
0.15606689453125;-0.1646728515625;-0.9835662841796875;0.10031595081090927;-0.010839864611625671;0.016019180417060852
0.1568450927734375;-0.16607666015625;-0.9846649169921875;0.10138281434774399;-0.012228703126311302;0.01908261515200138
0.1568450927734375;-0.16607666015625;-0.9846649169921875;0.10138281434774399;-0.012228703126311302;0.01908261515200138
0.1568450927734375;-0.16607666015625;-0.9846649169921875;0.10138281434774399;-0.012228703126311302;0.01908261515200138
0.1568450927734375;-0.16607666015625;-0.9846649169921875;0.10138281434774399;-0.012228703126311302;0.01908261515200138
0.1568450927734375;-0.16607666015625;-0.9846649169921875;0.10138281434774399;-0.012228703126311302;0.01908261515200138
0.15594482421875;-0.167205810546875;-0.986358642578125;0.0957060158252716;-0.013529923744499683;0.015617309138178825
0.15594482421875;-0.167205810546875;-0.986358642578125;0.0957060158252716;-0.013529923744499683;0.015617309138178825
0.15594482421875;-0.167205810546875;-0.986358642578125;0.0957060158252716;-0.013529923744499683;0.015617309138178825
0.15594482421875;-0.167205810546875;-0.986358642578125;0.0957060158252716;-0.013529923744499683;0.015617309138178825
0.15594482421875;-0.167205810546875;-0.986358642578125;0.0957060158252716;-0.013529923744499683;0.015617309138178825
0.1545257568359375;-0.1688232421875;-0.9873199462890625;0.0894039124250412;-0.016287093982100487;0.014785869978368282
0.1545257568359375;-0.1688232421875;-0.9873199462890625;0.0894039124250412;-0.016287093982100487;0.014785869978368282
0.1545257568359375;-0.1688232421875;-0.9873199462890625;0.0894039124250412;-0.016287093982100487;0.014785869978368282
0.1545257568359375;-0.1688232421875;-0.9873199462890625;0.0894039124250412;-0.016287093982100487;0.014785869978368282
0.1545257568359375;-0.1688232421875;-0.9873199462890625;0.0894039124250412;-0.016287093982100487;0.014785869978368282
0.1550445556640625;-0.1720428466796875;-0.9875946044921875;0.07675576210021973;-0.005501558072865009;0.018545720726251602
0.1550445556640625;-0.1720428466796875;-0.9875946044921875;0.07675576210021973;-0.005501558072865009;0.018545720726251602
0.1550445556640625;-0.1720428466796875;-0.9875946044921875;0.07675576210021973;-0.005501558072865009;0.018545720726251602
0.1550445556640625;-0.1720428466796875;-0.9875946044921875;0.07675576210021973;-0.005501558072865009;0.018545720726251602
0.1550445556640625;-0.1720428466796875;-0.9875946044921875;0.07675576210021973;-0.005501558072865009;0.018545720726251602
0.1539154052734375;-0.1757965087890625;-0.9843292236328125;0.06348416954278946;0.008708003908395767;0.014269216917455196
0.1539154052734375;-0.1757965087890625;-0.9843292236328125;0.06348416954278946;0.008708003908395767;0.014269216917455196
0.1539154052734375;-0.1757965087890625;-0.9843292236328125;0.06348416954278946;0.008708003908395767;0.014269216917455196
0.1539154052734375;-0.1757965087890625;-0.9843292236328125;0.06348416954278946;0.008708003908395767;0.014269216917455196
0.1539154052734375;-0.1757965087890625;-0.9843292236328125;0.06348416954278946;0.008708003908395767;0.014269216917455196
0.1523590087890625;-0.176361083984375;-0.9812164306640625;0.04459942504763603;0.016020245850086212;0.010878480039536953
0.1523590087890625;-0.176361083984375;-0.9812164306640625;0.04459942504763603;0.016020245850086212;0.010878480039536953
0.1523590087890625;-0.176361083984375;-0.9812164306640625;0.04459942504763603;0.016020245850086212;0.010878480039536953
0.1523590087890625;-0.176361083984375;-0.9812164306640625;0.04459942504763603;0.016020245850086212;0.010878480039536953
0.1523590087890625;-0.176361083984375;-0.9812164306640625;0.04459942504763603;0.016020245850086212;0.010878480039536953
0.1518402099609375;-0.1750030517578125;-0.9859161376953125;0.040657948702573776;0.004336957819759846;0.0059777311980724335
0.1518402099609375;-0.1750030517578125;-0.9859161376953125;0.040657948702573776;0.004336957819759846;0.0059777311980724335
0.1518402099609375;-0.1750030517578125;-0.9859161376953125;0.040657948702573776;0.004336957819759846;0.0059777311980724335
0.1518402099609375;-0.1750030517578125;-0.9859161376953125;0.040657948702573776;0.004336957819759846;0.0059777311980724335
0.1518402099609375;-0.1750030517578125;-0.9859161376953125;0.040657948702573776;0.004336957819759846;0.0059777311980724335
0.1526947021484375;-0.1711578369140625;-0.998077392578125;0.04382311552762985;-0.01859099417924881;0.004719654098153114
0.1526947021484375;-0.1711578369140625;-0.998077392578125;0.04382311552762985;-0.01859099417924881;0.004719654098153114
0.1526947021484375;-0.1711578369140625;-0.998077392578125;0.04382311552762985;-0.01859099417924881;0.004719654098153114
0.1526947021484375;-0.1711578369140625;-0.998077392578125;0.04382311552762985;-0.01859099417924881;0.004719654098153114
0.152679443359375;-0.1715087890625;-1.0027313232421875;0.04669453576207161;-0.05042029544711113;0.000800279900431633
0.152679443359375;-0.1715087890625;-1.0027313232421875;0.04669453576207161;-0.05042029544711113;0.000800279900431633
0.152679443359375;-0.1715087890625;-1.0027313232421875;0.04669453576207161;-0.05042029544711113;0.000800279900431633
0.152679443359375;-0.1715087890625;-1.0027313232421875;0.04669453576207161;-0.05042029544711113;0.000800279900431633
0.152679443359375;-0.1715087890625;-1.0027313232421875;0.04669453576207161;-0.05042029544711113;0.000800279900431633
0.150909423828125;-0.173126220703125;-0.998443603515625;0.05089620500802994;-0.06980331242084503;0.0008050735923461616
0.150909423828125;-0.173126220703125;-0.998443603515625;0.05089620500802994;-0.06980331242084503;0.0008050735923461616
0.150909423828125;-0.173126220703125;-0.998443603515625;0.05089620500802994;-0.06980331242084503;0.0008050735923461616
0.150909423828125;-0.173126220703125;-0.998443603515625;0.05089620500802994;-0.06980331242084503;0.0008050735923461616
0.150909423828125;-0.173126220703125;-0.998443603515625;0.05089620500802994;-0.06980331242084503;0.0008050735923461616
0.150909423828125;-0.173126220703125;-0.998443603515625;0.05089620500802994;-0.06980331242084503;0.0008050735923461616
0.149993896484375;-0.171875;-0.98944091796875;0.04977208375930786;-0.06210917606949806;0.004779841285198927
0.149993896484375;-0.171875;-0.98944091796875;0.04977208375930786;-0.06210917606949806;0.004779841285198927
0.149993896484375;-0.171875;-0.98944091796875;0.04977208375930786;-0.06210917606949806;0.004779841285198927
0.149993896484375;-0.171875;-0.98944091796875;0.04977208375930786;-0.06210917606949806;0.004779841285198927
0.149993896484375;-0.171875;-0.98944091796875;0.04977208375930786;-0.06210917606949806;0.004779841285198927
0.1476898193359375;-0.1708984375;-0.980010986328125;0.05275668948888779;-0.03434359282255173;0.00917672086507082
0.1476898193359375;-0.1708984375;-0.980010986328125;0.05275668948888779;-0.03434359282255173;0.00917672086507082
0.1476898193359375;-0.1708984375;-0.980010986328125;0.05275668948888779;-0.03434359282255173;0.00917672086507082
0.1476898193359375;-0.1708984375;-0.980010986328125;0.05275668948888779;-0.03434359282255173;0.00917672086507082
0.1476898193359375;-0.1708984375;-0.980010986328125;0.05275668948888779;-0.03434359282255173;0.00917672086507082
0.146514892578125;-0.1705322265625;-0.9749603271484375;0.04532833397388458;0.0103756757453084;0.009199623949825764
0.146514892578125;-0.1705322265625;-0.9749603271484375;0.04532833397388458;0.0103756757453084;0.009199623949825764
0.146514892578125;-0.1705322265625;-0.9749603271484375;0.04532833397388458;0.0103756757453084;0.009199623949825764
0.146514892578125;-0.1705322265625;-0.9749603271484375;0.04532833397388458;0.0103756757453084;0.009199623949825764
0.146514892578125;-0.1705322265625;-0.9749603271484375;0.040716271847486496;0.04575017839670181;0.013343235477805138
0.14739990234375;-0.1704254150390625;-0.974639892578125;0.040716271847486496;0.04575017839670181;0.013343235477805138
0.14739990234375;-0.1704254150390625;-0.974639892578125;0.040716271847486496;0.04575017839670181;0.013343235477805138
0.14739990234375;-0.1704254150390625;-0.974639892578125;0.040716271847486496;0.04575017839670181;0.013343235477805138
0.14739990234375;-0.1704254150390625;-0.974639892578125;0.040716271847486496;0.04575017839670181;0.013343235477805138
0.1536712646484375;-0.1700592041015625;-0.97747802734375;0.03419738635420799;0.07174582779407501;0.015325160697102547
0.1536712646484375;-0.1700592041015625;-0.97747802734375;0.03419738635420799;0.07174582779407501;0.015325160697102547
0.1536712646484375;-0.1700592041015625;-0.97747802734375;0.03419738635420799;0.07174582779407501;0.015325160697102547
0.1536712646484375;-0.1700592041015625;-0.97747802734375;0.03419738635420799;0.07174582779407501;0.015325160697102547
0.1536712646484375;-0.1700592041015625;-0.97747802734375;0.03419738635420799;0.07174582779407501;0.015325160697102547
0.1600341796875;-0.1710968017578125;-0.9847869873046875;0.030313163995742798;0.07426171749830246;0.01613582670688629
0.1600341796875;-0.1710968017578125;-0.9847869873046875;0.030313163995742798;0.07426171749830246;0.01613582670688629
0.1600341796875;-0.1710968017578125;-0.9847869873046875;0.030313163995742798;0.07426171749830246;0.01613582670688629
0.1600341796875;-0.1710968017578125;-0.9847869873046875;0.030313163995742798;0.07426171749830246;0.01613582670688629
0.1600341796875;-0.1710968017578125;-0.9847869873046875;0.030313163995742798;0.07426171749830246;0.01613582670688629
0.162628173828125;-0.1744232177734375;-0.9950408935546875;0.035348404198884964;0.061169348657131195;0.01461782492697239
0.162628173828125;-0.1744232177734375;-0.9950408935546875;0.035348404198884964;0.061169348657131195;0.01461782492697239
0.162628173828125;-0.1744232177734375;-0.9950408935546875;0.035348404198884964;0.061169348657131195;0.01461782492697239
0.162628173828125;-0.1744232177734375;-0.9950408935546875;0.035348404198884964;0.061169348657131195;0.01461782492697239
0.162628173828125;-0.1744232177734375;-0.9950408935546875;0.035348404198884964;0.061169348657131195;0.01461782492697239
0.1625518798828125;-0.1766510009765625;-1.00152587890625;0.03765683248639107;0.035887692123651505;0.00845367182046175
0.1625518798828125;-0.1766510009765625;-1.00152587890625;0.03765683248639107;0.035887692123651505;0.00845367182046175
0.1625518798828125;-0.1766510009765625;-1.00152587890625;0.03765683248639107;0.035887692123651505;0.00845367182046175
0.1625518798828125;-0.1766510009765625;-1.00152587890625;0.03765683248639107;0.035887692123651505;0.00845367182046175
0.1625518798828125;-0.1766510009765625;-1.00152587890625;0.03765683248639107;0.035887692123651505;0.00845367182046175
0.1603240966796875;-0.1798858642578125;-0.9999847412109375;0.04373602941632271;0.014432202093303204;0.00836578756570816
0.1603240966796875;-0.1798858642578125;-0.9999847412109375;0.04373602941632271;0.014432202093303204;0.00836578756570816
0.1603240966796875;-0.1798858642578125;-0.9999847412109375;0.04373602941632271;0.014432202093303204;0.00836578756570816
0.1603240966796875;-0.1798858642578125;-0.9999847412109375;0.04373602941632271;0.014432202093303204;0.00836578756570816
0.1603240966796875;-0.1798858642578125;-0.9999847412109375;0.04373602941632271;0.014432202093303204;0.00836578756570816
0.1571197509765625;-0.18084716796875;-0.9951934814453125;0.040399353951215744;-0.006925550289452076;0.004510329570621252
0.1571197509765625;-0.18084716796875;-0.9951934814453125;0.040399353951215744;-0.006925550289452076;0.004510329570621252
0.1571197509765625;-0.18084716796875;-0.9951934814453125;0.040399353951215744;-0.006925550289452076;0.004510329570621252
0.1571197509765625;-0.18084716796875;-0.9951934814453125;0.040399353951215744;-0.006925550289452076;0.004510329570621252
0.1571197509765625;-0.18084716796875;-0.9951934814453125;0.040399353951215744;-0.006925550289452076;0.004510329570621252
0.1547698974609375;-0.18121337890625;-0.98968505859375;0.03506797179579735;-0.013039901852607727;0.0010788465151563287
0.1547698974609375;-0.18121337890625;-0.98968505859375;0.03506797179579735;-0.013039901852607727;0.0010788465151563287
0.1547698974609375;-0.18121337890625;-0.98968505859375;0.03506797179579735;-0.013039901852607727;0.0010788465151563287
0.1547698974609375;-0.18121337890625;-0.98968505859375;0.03506797179579735;-0.013039901852607727;0.0010788465151563287
0.1547698974609375;-0.18121337890625;-0.98968505859375;0.03506797179579735;-0.013039901852607727;0.0010788465151563287
0.15350341796875;-0.1820068359375;-0.9851531982421875;0.02930648997426033;-0.017551563680171967;-0.002493251347914338
0.15350341796875;-0.1820068359375;-0.9851531982421875;0.02930648997426033;-0.017551563680171967;-0.002493251347914338
0.15350341796875;-0.1820068359375;-0.9851531982421875;0.02930648997426033;-0.017551563680171967;-0.002493251347914338
0.15350341796875;-0.1820068359375;-0.9851531982421875;0.02930648997426033;-0.017551563680171967;-0.002493251347914338
0.15350341796875;-0.1820068359375;-0.9851531982421875;0.02930648997426033;-0.017551563680171967;-0.002493251347914338
0.1539764404296875;-0.1814422607421875;-0.9834747314453125;0.025672873482108116;-0.012838833034038544;-0.0003664509567897767
0.1539764404296875;-0.1814422607421875;-0.9834747314453125;0.025672873482108116;-0.012838833034038544;-0.0003664509567897767
0.1539764404296875;-0.1814422607421875;-0.9834747314453125;0.025672873482108116;-0.012838833034038544;-0.0003664509567897767
0.1539764404296875;-0.1814422607421875;-0.9834747314453125;0.025672873482108116;-0.012838833034038544;-0.0003664509567897767
0.1539764404296875;-0.1814422607421875;-0.9834747314453125;0.025672873482108116;-0.012838833034038544;-0.0003664509567897767
0.15533447265625;-0.1795196533203125;-0.9842071533203125;0.019769176840782166;-0.011018296703696251;0.00267674308270216
0.15533447265625;-0.1795196533203125;-0.9842071533203125;0.019769176840782166;-0.011018296703696251;0.00267674308270216
0.15533447265625;-0.1795196533203125;-0.9842071533203125;0.019769176840782166;-0.011018296703696251;0.00267674308270216
0.15533447265625;-0.1795196533203125;-0.9842071533203125;0.019769176840782166;-0.011018296703696251;0.00267674308270216
0.15533447265625;-0.1795196533203125;-0.9842071533203125;0.019769176840782166;-0.011018296703696251;0.00267674308270216
0.1569976806640625;-0.176849365234375;-0.9863128662109375;0.019479159265756607;-0.006898652296513319;0.0036131106317043304
0.1569976806640625;-0.176849365234375;-0.9863128662109375;0.019479159265756607;-0.006898652296513319;0.0036131106317043304
0.1569976806640625;-0.176849365234375;-0.9863128662109375;0.019479159265756607;-0.006898652296513319;0.0036131106317043304
0.1569976806640625;-0.176849365234375;-0.9863128662109375;0.019479159265756607;-0.006898652296513319;0.0036131106317043304
0.1569976806640625;-0.176849365234375;-0.9863128662109375;0.019479159265756607;-0.006898652296513319;0.0036131106317043304
0.158203125;-0.1742401123046875;-0.987091064453125;0.02111780270934105;-0.004539890680462122;0.007699997629970312
0.158203125;-0.1742401123046875;-0.987091064453125;0.02111780270934105;-0.004539890680462122;0.007699997629970312
0.158203125;-0.1742401123046875;-0.987091064453125;0.02111780270934105;-0.004539890680462122;0.007699997629970312
0.158203125;-0.1742401123046875;-0.987091064453125;0.02111780270934105;-0.004539890680462122;0.007699997629970312
0.158203125;-0.1742401123046875;-0.987091064453125;0.02111780270934105;-0.004539890680462122;0.007699997629970312
0.15826416015625;-0.172576904296875;-0.9900054931640625;0.0255743358284235;-0.0073412698693573475;0.011396464891731739
0.15826416015625;-0.172576904296875;-0.9900054931640625;0.0255743358284235;-0.0073412698693573475;0.011396464891731739
0.15826416015625;-0.172576904296875;-0.9900054931640625;0.0255743358284235;-0.0073412698693573475;0.011396464891731739
0.15826416015625;-0.172576904296875;-0.9900054931640625;0.0255743358284235;-0.0073412698693573475;0.011396464891731739
0.15826416015625;-0.172576904296875;-0.9900054931640625;0.0255743358284235;-0.0073412698693573475;0.011396464891731739
0.1575469970703125;-0.17181396484375;-0.9915313720703125;0.033179257065057755;-0.010900584980845451;0.008946890011429787
0.1575469970703125;-0.17181396484375;-0.9915313720703125;0.033179257065057755;-0.010900584980845451;0.008946890011429787
0.1575469970703125;-0.17181396484375;-0.9915313720703125;0.033179257065057755;-0.010900584980845451;0.008946890011429787
0.1575469970703125;-0.17181396484375;-0.9915313720703125;0.033179257065057755;-0.010900584980845451;0.008946890011429787
0.1575469970703125;-0.17181396484375;-0.9915313720703125;0.033179257065057755;-0.010900584980845451;0.008946890011429787
0.1571807861328125;-0.1721343994140625;-0.9927215576171875;0.04189232364296913;-0.017903899773955345;0.00734260119497776
0.1571807861328125;-0.1721343994140625;-0.9927215576171875;0.04189232364296913;-0.017903899773955345;0.00734260119497776
0.1571807861328125;-0.1721343994140625;-0.9927215576171875;0.04189232364296913;-0.017903899773955345;0.00734260119497776
0.1571807861328125;-0.1721343994140625;-0.9927215576171875;0.04189232364296913;-0.017903899773955345;0.00734260119497776
0.1571807861328125;-0.1721343994140625;-0.9927215576171875;0.04189232364296913;-0.017903899773955345;0.00734260119497776
0.1550445556640625;-0.174102783203125;-0.9925384521484375;0.050518833100795746;-0.018995795398950577;0.007068828213959932
0.1550445556640625;-0.174102783203125;-0.9925384521484375;0.050518833100795746;-0.018995795398950577;0.007068828213959932
0.1550445556640625;-0.174102783203125;-0.9925384521484375;0.050518833100795746;-0.018995795398950577;0.007068828213959932
0.1550445556640625;-0.174102783203125;-0.9925384521484375;0.050518833100795746;-0.018995795398950577;0.007068828213959932
0.1550445556640625;-0.174102783203125;-0.9925384521484375;0.050518833100795746;-0.018995795398950577;0.007068828213959932
0.154541015625;-0.1767120361328125;-0.9922637939453125;0.05505739152431488;-0.01962217129766941;0.0062280683778226376
0.154541015625;-0.1767120361328125;-0.9922637939453125;0.05505739152431488;-0.01962217129766941;0.0062280683778226376
0.154541015625;-0.1767120361328125;-0.9922637939453125;0.05505739152431488;-0.01962217129766941;0.0062280683778226376
0.154541015625;-0.1767120361328125;-0.9922637939453125;0.05505739152431488;-0.01962217129766941;0.0062280683778226376
0.154541015625;-0.1767120361328125;-0.9922637939453125;0.05505739152431488;-0.01962217129766941;0.0062280683778226376
0.1551971435546875;-0.17889404296875;-0.9925384521484375;0.06046121194958687;-0.01655500754714012;0.009695503860712051
0.1551971435546875;-0.17889404296875;-0.9925384521484375;0.06046121194958687;-0.01655500754714012;0.009695503860712051
0.1551971435546875;-0.17889404296875;-0.9925384521484375;0.06046121194958687;-0.01655500754714012;0.009695503860712051
0.1551971435546875;-0.17889404296875;-0.9925384521484375;0.06046121194958687;-0.01655500754714012;0.009695503860712051
0.1551971435546875;-0.17889404296875;-0.9925384521484375;0.06046121194958687;-0.01655500754714012;0.009695503860712051
0.154327392578125;-0.1820068359375;-0.9917755126953125;0.06075655668973923;-0.016207732260227203;0.007156446576118469
0.154327392578125;-0.1820068359375;-0.9917755126953125;0.06075655668973923;-0.016207732260227203;0.007156446576118469
0.154327392578125;-0.1820068359375;-0.9917755126953125;0.06075655668973923;-0.016207732260227203;0.007156446576118469
0.154327392578125;-0.1820068359375;-0.9917755126953125;0.06075655668973923;-0.016207732260227203;0.007156446576118469
0.154327392578125;-0.1820068359375;-0.9917755126953125;0.06075655668973923;-0.016207732260227203;0.007156446576118469
0.151702880859375;-0.183837890625;-0.9913330078125;0.058705657720565796;-0.02695012465119362;0.006682403851300478
0.151702880859375;-0.183837890625;-0.9913330078125;0.058705657720565796;-0.02695012465119362;0.006682403851300478
0.151702880859375;-0.183837890625;-0.9913330078125;0.058705657720565796;-0.02695012465119362;0.006682403851300478
0.151702880859375;-0.183837890625;-0.9913330078125;0.058705657720565796;-0.02695012465119362;0.006682403851300478
0.151702880859375;-0.183837890625;-0.9913330078125;0.058705657720565796;-0.02695012465119362;0.006682403851300478
0.152374267578125;-0.18499755859375;-0.9915771484375;0.05408107861876488;-0.03664163500070572;0.006525010801851749
0.152374267578125;-0.18499755859375;-0.9915771484375;0.05408107861876488;-0.03664163500070572;0.006525010801851749
0.152374267578125;-0.18499755859375;-0.9915771484375;0.05408107861876488;-0.03664163500070572;0.006525010801851749
0.152374267578125;-0.18499755859375;-0.9915771484375;0.05408107861876488;-0.03664163500070572;0.006525010801851749
0.152374267578125;-0.18499755859375;-0.9915771484375;0.05408107861876488;-0.03664163500070572;0.006525010801851749
0.1549072265625;-0.189208984375;-0.9857177734375;0.0428614467382431;-0.03845711052417755;0.009177785366773605
0.1549072265625;-0.189208984375;-0.9857177734375;0.0428614467382431;-0.03845711052417755;0.009177785366773605
0.1549072265625;-0.189208984375;-0.9857177734375;0.0428614467382431;-0.03845711052417755;0.009177785366773605
0.1549072265625;-0.189208984375;-0.9857177734375;0.0428614467382431;-0.03845711052417755;0.009177785366773605
0.1549072265625;-0.189208984375;-0.9857177734375;0.0428614467382431;-0.03845711052417755;0.009177785366773605
0.1516876220703125;-0.1925201416015625;-0.9810943603515625;0.028669195249676704;-0.02917732670903206;0.005560147576034069
0.1516876220703125;-0.1925201416015625;-0.9810943603515625;0.028669195249676704;-0.02917732670903206;0.005560147576034069
0.1516876220703125;-0.1925201416015625;-0.9810943603515625;0.028669195249676704;-0.02917732670903206;0.005560147576034069
0.1516876220703125;-0.1925201416015625;-0.9810943603515625;0.028669195249676704;-0.02917732670903206;0.005560147576034069
0.1516876220703125;-0.1925201416015625;-0.9810943603515625;0.028669195249676704;-0.02917732670903206;0.005560147576034069
0.1484222412109375;-0.189971923828125;-0.979949951171875;0.017070861533284187;-0.025531992316246033;0.002121740486472845
0.1484222412109375;-0.189971923828125;-0.979949951171875;0.017070861533284187;-0.025531992316246033;0.002121740486472845
0.1484222412109375;-0.189971923828125;-0.979949951171875;0.017070861533284187;-0.025531992316246033;0.002121740486472845
0.1484222412109375;-0.189971923828125;-0.979949951171875;0.017070861533284187;-0.025531992316246033;0.002121740486472845
0.1484222412109375;-0.189971923828125;-0.979949951171875;0.017070861533284187;-0.025531992316246033;0.002121740486472845
0.1474609375;-0.186981201171875;-0.9822998046875;0.010012154467403889;-0.019293537363409996;-0.0005768407136201859
0.1474609375;-0.186981201171875;-0.9822998046875;0.010012154467403889;-0.019293537363409996;-0.0005768407136201859
0.1474609375;-0.186981201171875;-0.9822998046875;0.010012154467403889;-0.019293537363409996;-0.0005768407136201859
0.1474609375;-0.186981201171875;-0.9822998046875;0.010012154467403889;-0.019293537363409996;-0.0005768407136201859
0.1474609375;-0.186981201171875;-0.9822998046875;0.010012154467403889;-0.019293537363409996;-0.0005768407136201859
0.1494140625;-0.1861419677734375;-0.9835205078125;0.01161804050207138;-0.012676380574703217;0.002373675350099802
0.1494140625;-0.1861419677734375;-0.9835205078125;0.01161804050207138;-0.012676380574703217;0.002373675350099802
0.1494140625;-0.1861419677734375;-0.9835205078125;0.01161804050207138;-0.012676380574703217;0.002373675350099802
0.1494140625;-0.1861419677734375;-0.9835205078125;0.01161804050207138;-0.012676380574703217;0.002373675350099802
0.1494140625;-0.1861419677734375;-0.9835205078125;0.01161804050207138;-0.012676380574703217;0.002373675350099802
0.15069580078125;-0.18560791015625;-0.984039306640625;0.014534467831254005;-0.012346148490905762;0.003611512714996934
0.15069580078125;-0.18560791015625;-0.984039306640625;0.014534467831254005;-0.012346148490905762;0.003611512714996934
0.15069580078125;-0.18560791015625;-0.984039306640625;0.014534467831254005;-0.012346148490905762;0.003611512714996934
0.15069580078125;-0.18560791015625;-0.984039306640625;0.014534467831254005;-0.012346148490905762;0.003611512714996934
0.15069580078125;-0.18560791015625;-0.984039306640625;0.014534467831254005;-0.012346148490905762;0.003611512714996934
0.1517486572265625;-0.1843414306640625;-0.985595703125;0.021100224927067757;-0.007714378647506237;0.0037760960403829813
0.1517486572265625;-0.1843414306640625;-0.985595703125;0.021100224927067757;-0.007714378647506237;0.0037760960403829813
0.1517486572265625;-0.1843414306640625;-0.985595703125;0.021100224927067757;-0.007714378647506237;0.0037760960403829813
0.1517486572265625;-0.1843414306640625;-0.985595703125;0.021100224927067757;-0.007714378647506237;0.0037760960403829813
0.1517486572265625;-0.1843414306640625;-0.985595703125;0.021100224927067757;-0.007714378647506237;0.0037760960403829813
0.1526947021484375;-0.182464599609375;-0.986663818359375;0.030407706275582314;-0.006024336442351341;0.006179865449666977
0.1526947021484375;-0.182464599609375;-0.986663818359375;0.030407706275582314;-0.006024336442351341;0.006179865449666977
0.1526947021484375;-0.182464599609375;-0.986663818359375;0.030407706275582314;-0.006024336442351341;0.006179865449666977
0.1526947021484375;-0.182464599609375;-0.986663818359375;0.030407706275582314;-0.006024336442351341;0.006179865449666977
0.1526947021484375;-0.182464599609375;-0.986663818359375;0.030407706275582314;-0.006024336442351341;0.006179865449666977
0.152801513671875;-0.182647705078125;-0.9884185791015625;0.041728805750608444;-0.006250971462577581;0.008858206681907177
0.152801513671875;-0.182647705078125;-0.9884185791015625;0.041728805750608444;-0.006250971462577581;0.008858206681907177
0.152801513671875;-0.182647705078125;-0.9884185791015625;0.041728805750608444;-0.006250971462577581;0.008858206681907177
0.152801513671875;-0.182647705078125;-0.9884185791015625;0.041728805750608444;-0.006250971462577581;0.008858206681907177
0.152801513671875;-0.182647705078125;-0.9884185791015625;0.041728805750608444;-0.006250971462577581;0.008858206681907177
0.152557373046875;-0.1822052001953125;-0.9880523681640625;0.05054333433508873;-0.004288222175091505;0.008112254552543163
0.152557373046875;-0.1822052001953125;-0.9880523681640625;0.05054333433508873;-0.004288222175091505;0.008112254552543163
0.152557373046875;-0.1822052001953125;-0.9880523681640625;0.05054333433508873;-0.004288222175091505;0.008112254552543163
0.152557373046875;-0.1822052001953125;-0.9880523681640625;0.05054333433508873;-0.004288222175091505;0.008112254552543163
0.152557373046875;-0.1822052001953125;-0.9880523681640625;0.05054333433508873;-0.004288222175091505;0.008112254552543163
0.1527099609375;-0.1816253662109375;-0.9876861572265625;0.059786900877952576;-0.003995274193584919;0.009041697718203068
0.1527099609375;-0.1816253662109375;-0.9876861572265625;0.059786900877952576;-0.003995274193584919;0.009041697718203068
0.1527099609375;-0.1816253662109375;-0.9876861572265625;0.059786900877952576;-0.003995274193584919;0.009041697718203068
0.1527099609375;-0.1816253662109375;-0.9876861572265625;0.059786900877952576;-0.003995274193584919;0.009041697718203068
0.1527099609375;-0.1816253662109375;-0.9876861572265625;0.059786900877952576;-0.003995274193584919;0.009041697718203068
0.15252685546875;-0.182647705078125;-0.9893951416015625;0.06383490562438965;-0.014152304269373417;0.010837467387318611
0.15252685546875;-0.182647705078125;-0.9893951416015625;0.06383490562438965;-0.014152304269373417;0.010837467387318611
0.15252685546875;-0.182647705078125;-0.9893951416015625;0.06383490562438965;-0.014152304269373417;0.010837467387318611
0.15252685546875;-0.182647705078125;-0.9893951416015625;0.06383490562438965;-0.014152304269373417;0.010837467387318611
0.15252685546875;-0.182647705078125;-0.9893951416015625;0.06383490562438965;-0.014152304269373417;0.010837467387318611
0.152099609375;-0.1826934814453125;-0.990570068359375;0.06428151577711105;-0.018216287717223167;0.011232946999371052
0.152099609375;-0.1826934814453125;-0.990570068359375;0.06428151577711105;-0.018216287717223167;0.011232946999371052
0.152099609375;-0.1826934814453125;-0.990570068359375;0.06428151577711105;-0.018216287717223167;0.011232946999371052
0.152099609375;-0.1826934814453125;-0.990570068359375;0.06428151577711105;-0.018216287717223167;0.011232946999371052
0.152099609375;-0.1826934814453125;-0.990570068359375;0.06428151577711105;-0.018216287717223167;0.011232946999371052
0.1524200439453125;-0.184600830078125;-0.9911346435546875;0.05813600867986679;-0.01997796818614006;0.010901116766035557
0.1524200439453125;-0.184600830078125;-0.9911346435546875;0.05813600867986679;-0.01997796818614006;0.010901116766035557
0.1524200439453125;-0.184600830078125;-0.9911346435546875;0.05813600867986679;-0.01997796818614006;0.010901116766035557
0.1524200439453125;-0.184600830078125;-0.9911346435546875;0.05813600867986679;-0.01997796818614006;0.010901116766035557
0.1524200439453125;-0.184600830078125;-0.9911346435546875;0.05813600867986679;-0.01997796818614006;0.010901116766035557
0.1523284912109375;-0.1872100830078125;-0.990264892578125;0.048292163759469986;-0.01750602386891842;0.006798517424613237
0.1523284912109375;-0.1872100830078125;-0.990264892578125;0.048292163759469986;-0.01750602386891842;0.006798517424613237
0.1523284912109375;-0.1872100830078125;-0.990264892578125;0.048292163759469986;-0.01750602386891842;0.006798517424613237
0.1523284912109375;-0.1872100830078125;-0.990264892578125;0.048292163759469986;-0.01750602386891842;0.006798517424613237
0.1523284912109375;-0.1872100830078125;-0.990264892578125;0.048292163759469986;-0.01750602386891842;0.006798517424613237
0.1530609130859375;-0.1889801025390625;-0.98638916015625;0.03585227206349373;-0.013176788575947285;0.0075756278820335865
0.1530609130859375;-0.1889801025390625;-0.98638916015625;0.03585227206349373;-0.013176788575947285;0.0075756278820335865
0.1530609130859375;-0.1889801025390625;-0.98638916015625;0.03585227206349373;-0.013176788575947285;0.0075756278820335865
0.1530609130859375;-0.1889801025390625;-0.98638916015625;0.03585227206349373;-0.013176788575947285;0.0075756278820335865
0.1530609130859375;-0.1889801025390625;-0.98638916015625;0.025019599124789238;-0.00899615790694952;0.005922071170061827
0.152618408203125;-0.18975830078125;-0.9848785400390625;0.025019599124789238;-0.00899615790694952;0.005922071170061827
0.152618408203125;-0.18975830078125;-0.9848785400390625;0.025019599124789238;-0.00899615790694952;0.005922071170061827
0.152618408203125;-0.18975830078125;-0.9848785400390625;0.025019599124789238;-0.00899615790694952;0.005922071170061827
0.152618408203125;-0.18975830078125;-0.9848785400390625;0.025019599124789238;-0.00899615790694952;0.005922071170061827
0.1527862548828125;-0.1916046142578125;-0.9837646484375;0.016463927924633026;-0.0037406759802252054;0.004205664154142141
0.1527862548828125;-0.1916046142578125;-0.9837646484375;0.016463927924633026;-0.0037406759802252054;0.004205664154142141
0.1527862548828125;-0.1916046142578125;-0.9837646484375;0.016463927924633026;-0.0037406759802252054;0.004205664154142141
0.1527862548828125;-0.1916046142578125;-0.9837646484375;0.016463927924633026;-0.0037406759802252054;0.004205664154142141
0.1527862548828125;-0.1916046142578125;-0.9837646484375;0.016463927924633026;-0.0037406759802252054;0.004205664154142141
0.1542816162109375;-0.191131591796875;-0.984649658203125;0.011334147304296494;-0.004503937903791666;0.003996339626610279
0.1542816162109375;-0.191131591796875;-0.984649658203125;0.011334147304296494;-0.004503937903791666;0.003996339626610279
0.1542816162109375;-0.191131591796875;-0.984649658203125;0.011334147304296494;-0.004503937903791666;0.003996339626610279
0.1542816162109375;-0.191131591796875;-0.984649658203125;0.011334147304296494;-0.004503937903791666;0.003996339626610279
0.1542816162109375;-0.191131591796875;-0.984649658203125;0.011334147304296494;-0.004503937903791666;0.003996339626610279
0.1540679931640625;-0.1900482177734375;-0.9869537353515625;0.017127322033047676;-0.0059598879888653755;0.001660480978898704
0.1540679931640625;-0.1900482177734375;-0.9869537353515625;0.017127322033047676;-0.0059598879888653755;0.001660480978898704
0.1540679931640625;-0.1900482177734375;-0.9869537353515625;0.017127322033047676;-0.0059598879888653755;0.001660480978898704
0.1540679931640625;-0.1900482177734375;-0.9869537353515625;0.017127322033047676;-0.0059598879888653755;0.001660480978898704
0.1540679931640625;-0.1900482177734375;-0.9869537353515625;0.017127322033047676;-0.0059598879888653755;0.001660480978898704
0.1544036865234375;-0.190185546875;-0.9891815185546875;0.02311171032488346;-0.008409996517002583;0.0041161817498505116
0.1544036865234375;-0.190185546875;-0.9891815185546875;0.02311171032488346;-0.008409996517002583;0.0041161817498505116
0.1544036865234375;-0.190185546875;-0.9891815185546875;0.02311171032488346;-0.008409996517002583;0.0041161817498505116
0.1544036865234375;-0.190185546875;-0.9891815185546875;0.02311171032488346;-0.008409996517002583;0.0041161817498505116
0.1544036865234375;-0.190185546875;-0.9891815185546875;0.02311171032488346;-0.008409996517002583;0.0041161817498505116
0.1551361083984375;-0.190093994140625;-0.98944091796875;0.03310921788215637;-0.01004810631275177;0.006140716839581728
0.1551361083984375;-0.190093994140625;-0.98944091796875;0.03310921788215637;-0.01004810631275177;0.006140716839581728
0.1551361083984375;-0.190093994140625;-0.98944091796875;0.03310921788215637;-0.01004810631275177;0.006140716839581728
0.1551361083984375;-0.190093994140625;-0.98944091796875;0.03310921788215637;-0.01004810631275177;0.006140716839581728
0.1551361083984375;-0.190093994140625;-0.98944091796875;0.03310921788215637;-0.01004810631275177;0.006140716839581728
0.153839111328125;-0.19110107421875;-0.98883056640625;0.04374934360384941;-0.01173362135887146;0.007142597809433937
0.153839111328125;-0.19110107421875;-0.98883056640625;0.04374934360384941;-0.01173362135887146;0.007142597809433937
0.153839111328125;-0.19110107421875;-0.98883056640625;0.04374934360384941;-0.01173362135887146;0.007142597809433937
0.153839111328125;-0.19110107421875;-0.98883056640625;0.04374934360384941;-0.01173362135887146;0.007142597809433937
0.153839111328125;-0.19110107421875;-0.98883056640625;0.04374934360384941;-0.01173362135887146;0.007142597809433937
0.1536102294921875;-0.1908111572265625;-0.9888763427734375;0.0587429404258728;-0.011697668582201004;0.009180448949337006
0.1536102294921875;-0.1908111572265625;-0.9888763427734375;0.0587429404258728;-0.011697668582201004;0.009180448949337006
0.1536102294921875;-0.1908111572265625;-0.9888763427734375;0.0587429404258728;-0.011697668582201004;0.009180448949337006
0.1536102294921875;-0.1908111572265625;-0.9888763427734375;0.0587429404258728;-0.011697668582201004;0.009180448949337006
0.1536102294921875;-0.1908111572265625;-0.9888763427734375;0.0587429404258728;-0.011697668582201004;0.009180448949337006
0.15380859375;-0.1909637451171875;-0.98919677734375;0.06697903573513031;-0.014721155166625977;0.009445167146623135
0.15380859375;-0.1909637451171875;-0.98919677734375;0.06697903573513031;-0.014721155166625977;0.009445167146623135
0.15380859375;-0.1909637451171875;-0.98919677734375;0.06697903573513031;-0.014721155166625977;0.009445167146623135
0.15380859375;-0.1909637451171875;-0.98919677734375;0.06697903573513031;-0.014721155166625977;0.009445167146623135
0.15380859375;-0.1909637451171875;-0.98919677734375;0.06697903573513031;-0.014721155166625977;0.009445167146623135
0.152923583984375;-0.1909027099609375;-0.9887542724609375;0.07506173104047775;-0.019353192299604416;0.0117312241345644
0.152923583984375;-0.1909027099609375;-0.9887542724609375;0.07506173104047775;-0.019353192299604416;0.0117312241345644
0.152923583984375;-0.1909027099609375;-0.9887542724609375;0.07506173104047775;-0.019353192299604416;0.0117312241345644
0.152923583984375;-0.1909027099609375;-0.9887542724609375;0.07506173104047775;-0.019353192299604416;0.0117312241345644
0.152923583984375;-0.1909027099609375;-0.9887542724609375;0.07506173104047775;-0.019353192299604416;0.0117312241345644
0.15185546875;-0.1906280517578125;-0.9868011474609375;0.07509847730398178;-0.02015240676701069;0.011425759643316269
0.15185546875;-0.1906280517578125;-0.9868011474609375;0.07509847730398178;-0.02015240676701069;0.011425759643316269
0.15185546875;-0.1906280517578125;-0.9868011474609375;0.07509847730398178;-0.02015240676701069;0.011425759643316269
0.15185546875;-0.1906280517578125;-0.9868011474609375;0.07509847730398178;-0.02015240676701069;0.011425759643316269
0.15185546875;-0.1906280517578125;-0.9868011474609375;0.07509847730398178;-0.02015240676701069;0.011425759643316269
0.1511993408203125;-0.1920013427734375;-0.9822845458984375;0.06983953714370728;-0.019052520394325256;0.011775699444115162
0.1511993408203125;-0.1920013427734375;-0.9822845458984375;0.06983953714370728;-0.019052520394325256;0.011775699444115162
0.1511993408203125;-0.1920013427734375;-0.9822845458984375;0.06983953714370728;-0.019052520394325256;0.011775699444115162
0.1511993408203125;-0.1920013427734375;-0.9822845458984375;0.06983953714370728;-0.019052520394325256;0.011775699444115162
0.1511993408203125;-0.1920013427734375;-0.9822845458984375;0.06983953714370728;-0.019052520394325256;0.011775699444115162
0.1511077880859375;-0.1933441162109375;-0.9790191650390625;0.055933307856321335;-0.01642078533768654;0.01067900937050581
0.1511077880859375;-0.1933441162109375;-0.9790191650390625;0.055933307856321335;-0.01642078533768654;0.01067900937050581
0.1511077880859375;-0.1933441162109375;-0.9790191650390625;0.055933307856321335;-0.01642078533768654;0.01067900937050581
0.1511077880859375;-0.1933441162109375;-0.9790191650390625;0.055933307856321335;-0.01642078533768654;0.01067900937050581
0.1511077880859375;-0.1933441162109375;-0.9790191650390625;0.055933307856321335;-0.01642078533768654;0.01067900937050581
0.1504364013671875;-0.193511962890625;-0.97613525390625;0.04272722452878952;-0.004471180960536003;0.008219846524298191
0.1504364013671875;-0.193511962890625;-0.97613525390625;0.04272722452878952;-0.004471180960536003;0.008219846524298191
0.1504364013671875;-0.193511962890625;-0.97613525390625;0.04272722452878952;-0.004471180960536003;0.008219846524298191
0.1504364013671875;-0.193511962890625;-0.97613525390625;0.04272722452878952;-0.004471180960536003;0.008219846524298191
0.1504364013671875;-0.193511962890625;-0.97613525390625;0.04272722452878952;-0.004471180960536003;0.008219846524298191
0.1501922607421875;-0.1936187744140625;-0.9766082763671875;0.03375157341361046;0.0026847326662391424;0.00957006961107254
0.1501922607421875;-0.1936187744140625;-0.9766082763671875;0.03375157341361046;0.0026847326662391424;0.00957006961107254
0.1501922607421875;-0.1936187744140625;-0.9766082763671875;0.03375157341361046;0.0026847326662391424;0.00957006961107254
0.1501922607421875;-0.1936187744140625;-0.9766082763671875;0.03375157341361046;0.0026847326662391424;0.00957006961107254
0.1501922607421875;-0.1936187744140625;-0.9766082763671875;0.03375157341361046;0.0026847326662391424;0.00957006961107254
0.1508636474609375;-0.194427490234375;-0.9792938232421875;0.020789701491594315;-0.00011904330312972888;0.00705711031332612
0.1508636474609375;-0.194427490234375;-0.9792938232421875;0.020789701491594315;-0.00011904330312972888;0.00705711031332612
0.1508636474609375;-0.194427490234375;-0.9792938232421875;0.020789701491594315;-0.00011904330312972888;0.00705711031332612
0.1508636474609375;-0.194427490234375;-0.9792938232421875;0.020789701491594315;-0.00011904330312972888;0.00705711031332612
0.1508636474609375;-0.194427490234375;-0.9792938232421875;0.020789701491594315;-0.00011904330312972888;0.00705711031332612
0.1511993408203125;-0.1945953369140625;-0.9852447509765625;0.017610685899853706;-0.002154231071472168;0.005109540652483702
0.1511993408203125;-0.1945953369140625;-0.9852447509765625;0.017610685899853706;-0.002154231071472168;0.005109540652483702
0.1511993408203125;-0.1945953369140625;-0.9852447509765625;0.017610685899853706;-0.002154231071472168;0.005109540652483702
0.1511993408203125;-0.1945953369140625;-0.9852447509765625;0.017610685899853706;-0.002154231071472168;0.005109540652483702
0.1511993408203125;-0.1945953369140625;-0.9852447509765625;0.017610685899853706;-0.002154231071472168;0.005109540652483702
0.15087890625;-0.1955413818359375;-0.987884521484375;0.013513412326574326;-0.008334895595908165;0.001580319833010435
0.15087890625;-0.1955413818359375;-0.987884521484375;0.013513412326574326;-0.008334895595908165;0.001580319833010435
0.15087890625;-0.1955413818359375;-0.987884521484375;0.013513412326574326;-0.008334895595908165;0.001580319833010435
0.15087890625;-0.1955413818359375;-0.987884521484375;0.013513412326574326;-0.008334895595908165;0.001580319833010435
0.15087890625;-0.1955413818359375;-0.987884521484375;0.013513412326574326;-0.008334895595908165;0.001580319833010435
0.150146484375;-0.1971893310546875;-0.9898529052734375;0.01737845689058304;-0.009837983176112175;0.0013345100451260805
0.150146484375;-0.1971893310546875;-0.9898529052734375;0.01737845689058304;-0.009837983176112175;0.0013345100451260805
0.150146484375;-0.1971893310546875;-0.9898529052734375;0.01737845689058304;-0.009837983176112175;0.0013345100451260805
0.150146484375;-0.1971893310546875;-0.9898529052734375;0.01737845689058304;-0.009837983176112175;0.0013345100451260805
0.150146484375;-0.1971893310546875;-0.9898529052734375;0.01737845689058304;-0.009837983176112175;0.0013345100451260805
0.1497344970703125;-0.1980438232421875;-0.9911651611328125;0.023428093641996384;-0.014478541910648346;0.0036277580074965954
0.1497344970703125;-0.1980438232421875;-0.9911651611328125;0.023428093641996384;-0.014478541910648346;0.0036277580074965954
0.1497344970703125;-0.1980438232421875;-0.9911651611328125;0.023428093641996384;-0.014478541910648346;0.0036277580074965954
0.1497344970703125;-0.1980438232421875;-0.9911651611328125;0.023428093641996384;-0.014478541910648346;0.0036277580074965954
0.1497344970703125;-0.1980438232421875;-0.9911651611328125;0.023428093641996384;-0.014478541910648346;0.0036277580074965954
0.1495361328125;-0.199859619140625;-0.991973876953125;0.025300828740000725;-0.012810870073735714;0.004924184642732143
0.1495361328125;-0.199859619140625;-0.991973876953125;0.025300828740000725;-0.012810870073735714;0.004924184642732143
0.1495361328125;-0.199859619140625;-0.991973876953125;0.025300828740000725;-0.012810870073735714;0.004924184642732143
0.1495361328125;-0.199859619140625;-0.991973876953125;0.025300828740000725;-0.012810870073735714;0.004924184642732143
0.1495361328125;-0.199859619140625;-0.991973876953125;0.025300828740000725;-0.012810870073735714;0.004924184642732143
0.1497802734375;-0.2017822265625;-0.9887542724609375;0.025775404646992683;-0.0031995216850191355;0.00839481595903635
0.1497802734375;-0.2017822265625;-0.9887542724609375;0.025775404646992683;-0.0031995216850191355;0.00839481595903635
0.1497802734375;-0.2017822265625;-0.9887542724609375;0.025775404646992683;-0.0031995216850191355;0.00839481595903635
0.1497802734375;-0.2017822265625;-0.9887542724609375;0.025775404646992683;-0.0031995216850191355;0.00839481595903635
0.1497802734375;-0.2017822265625;-0.9887542724609375;0.025775404646992683;-0.0031995216850191355;0.00839481595903635
0.1476593017578125;-0.201568603515625;-0.9818572998046875;0.017292970791459084;0.00923317950218916;0.008094144985079765
0.1476593017578125;-0.201568603515625;-0.9818572998046875;0.017292970791459084;0.00923317950218916;0.008094144985079765
0.1476593017578125;-0.201568603515625;-0.9818572998046875;0.017292970791459084;0.00923317950218916;0.008094144985079765
0.1476593017578125;-0.201568603515625;-0.9818572998046875;0.017292970791459084;0.00923317950218916;0.008094144985079765
0.1476593017578125;-0.201568603515625;-0.9818572998046875;0.017292970791459084;0.00923317950218916;0.008094144985079765
0.1478424072265625;-0.2020111083984375;-0.9762420654296875;0.012240687385201454;0.01643223688006401;0.005637379363179207
0.1478424072265625;-0.2020111083984375;-0.9762420654296875;0.012240687385201454;0.01643223688006401;0.005637379363179207
0.1478424072265625;-0.2020111083984375;-0.9762420654296875;0.012240687385201454;0.01643223688006401;0.005637379363179207
0.1478424072265625;-0.2020111083984375;-0.9762420654296875;0.012240687385201454;0.01643223688006401;0.005637379363179207
0.1478424072265625;-0.2020111083984375;-0.9762420654296875;0.012240687385201454;0.01643223688006401;0.005637379363179207
0.1480865478515625;-0.197296142578125;-0.97882080078125;0.009183910675346851;0.006724481470882893;0.0026229473296552896
0.1480865478515625;-0.197296142578125;-0.97882080078125;0.009183910675346851;0.006724481470882893;0.0026229473296552896
0.1480865478515625;-0.197296142578125;-0.97882080078125;0.009183910675346851;0.006724481470882893;0.0026229473296552896
0.1480865478515625;-0.197296142578125;-0.97882080078125;0.009183910675346851;0.006724481470882893;0.0026229473296552896
0.1480865478515625;-0.197296142578125;-0.97882080078125;0.009183910675346851;0.006724481470882893;0.0026229473296552896
0.14874267578125;-0.1926422119140625;-0.9906768798828125;0.017968880012631416;-0.013704360462725163;0.003498861100524664
0.14874267578125;-0.1926422119140625;-0.9906768798828125;0.017968880012631416;-0.013704360462725163;0.003498861100524664
0.14874267578125;-0.1926422119140625;-0.9906768798828125;0.017968880012631416;-0.013704360462725163;0.003498861100524664
0.14874267578125;-0.1926422119140625;-0.9906768798828125;0.017968880012631416;-0.013704360462725163;0.003498861100524664
0.14874267578125;-0.1926422119140625;-0.9906768798828125;0.017968880012631416;-0.013704360462725163;0.003498861100524664
0.1488800048828125;-0.1926727294921875;-0.9984283447265625;0.021571604534983635;-0.041856370866298676;-0.0024810009635984898
0.1488800048828125;-0.1926727294921875;-0.9984283447265625;0.021571604534983635;-0.041856370866298676;-0.0024810009635984898
0.1488800048828125;-0.1926727294921875;-0.9984283447265625;0.021571604534983635;-0.041856370866298676;-0.0024810009635984898
0.1488800048828125;-0.1926727294921875;-0.9984283447265625;0.021571604534983635;-0.041856370866298676;-0.0024810009635984898
0.1488800048828125;-0.1926727294921875;-0.9984283447265625;0.021571604534983635;-0.041856370866298676;-0.0024810009635984898
0.149810791015625;-0.1959381103515625;-0.993255615234375;0.018252506852149963;-0.0543346107006073;-0.0001280980504816398
0.149810791015625;-0.1959381103515625;-0.993255615234375;0.018252506852149963;-0.0543346107006073;-0.0001280980504816398
0.149810791015625;-0.1959381103515625;-0.993255615234375;0.018252506852149963;-0.0543346107006073;-0.0001280980504816398
0.149810791015625;-0.1959381103515625;-0.993255615234375;0.018252506852149963;-0.0543346107006073;-0.0001280980504816398
0.149810791015625;-0.1959381103515625;-0.993255615234375;0.018252506852149963;-0.0543346107006073;-0.0001280980504816398
0.1475982666015625;-0.1965484619140625;-0.9811553955078125;0.008094944059848785;-0.03855351731181145;0.0005795038305222988
0.1475982666015625;-0.1965484619140625;-0.9811553955078125;0.008094944059848785;-0.03855351731181145;0.0005795038305222988
0.1475982666015625;-0.1965484619140625;-0.9811553955078125;0.008094944059848785;-0.03855351731181145;0.0005795038305222988
0.1475982666015625;-0.1965484619140625;-0.9811553955078125;0.008094944059848785;-0.03855351731181145;0.0005795038305222988
0.1475982666015625;-0.1965484619140625;-0.9811553955078125;0.008094944059848785;-0.03855351731181145;0.0005795038305222988
0.14544677734375;-0.195526123046875;-0.9746856689453125;0.0007400924805551767;-0.012436163611710072;0.0017148094484582543
0.14544677734375;-0.195526123046875;-0.9746856689453125;0.0007400924805551767;-0.012436163611710072;0.0017148094484582543
0.14544677734375;-0.195526123046875;-0.9746856689453125;0.0007400924805551767;-0.012436163611710072;0.0017148094484582543
0.14544677734375;-0.195526123046875;-0.9746856689453125;0.0007400924805551767;-0.012436163611710072;0.0017148094484582543
0.14544677734375;-0.195526123046875;-0.9746856689453125;0.0007400924805551767;-0.012436163611710072;0.0017148094484582543
0.1451263427734375;-0.1963653564453125;-0.975616455078125;-0.00881186779588461;0.01500877644866705;0.0011576761025935411
0.1451263427734375;-0.1963653564453125;-0.975616455078125;-0.00881186779588461;0.01500877644866705;0.0011576761025935411
0.1451263427734375;-0.1963653564453125;-0.975616455078125;-0.00881186779588461;0.01500877644866705;0.0011576761025935411
0.1451263427734375;-0.1963653564453125;-0.975616455078125;-0.00881186779588461;0.01500877644866705;0.0011576761025935411
0.1451263427734375;-0.1963653564453125;-0.975616455078125;-0.00881186779588461;0.01500877644866705;0.0011576761025935411
0.1467742919921875;-0.197296142578125;-0.9763031005859375;-0.01613582670688629;0.04374295473098755;0.0018125474452972412
0.1467742919921875;-0.197296142578125;-0.9763031005859375;-0.01613582670688629;0.04374295473098755;0.0018125474452972412
0.1467742919921875;-0.197296142578125;-0.9763031005859375;-0.01613582670688629;0.04374295473098755;0.0018125474452972412
0.1467742919921875;-0.197296142578125;-0.9763031005859375;-0.01613582670688629;0.04374295473098755;0.0018125474452972412
0.1467742919921875;-0.197296142578125;-0.9763031005859375;-0.01613582670688629;0.04374295473098755;0.0018125474452972412
0.150787353515625;-0.195220947265625;-0.9805450439453125;-0.011949869804084301;0.04983573406934738;0.0007813714328221977
0.150787353515625;-0.195220947265625;-0.9805450439453125;-0.011949869804084301;0.04983573406934738;0.0007813714328221977
0.150787353515625;-0.195220947265625;-0.9805450439453125;-0.011949869804084301;0.04983573406934738;0.0007813714328221977
0.150787353515625;-0.195220947265625;-0.9805450439453125;-0.011949869804084301;0.04983573406934738;0.0007813714328221977
0.150787353515625;-0.195220947265625;-0.9805450439453125;-0.011949869804084301;0.04983573406934738;0.0007813714328221977
0.155853271484375;-0.1956634521484375;-0.986724853515625;-0.0018767296569421887;0.05198357254266739;0.0022530341520905495
0.155853271484375;-0.1956634521484375;-0.986724853515625;-0.0018767296569421887;0.05198357254266739;0.0022530341520905495
0.155853271484375;-0.1956634521484375;-0.986724853515625;-0.0018767296569421887;0.05198357254266739;0.0022530341520905495
0.155853271484375;-0.1956634521484375;-0.986724853515625;-0.0018767296569421887;0.05198357254266739;0.0022530341520905495
0.155853271484375;-0.1956634521484375;-0.986724853515625;-0.0018767296569421887;0.05198357254266739;0.0022530341520905495
0.158447265625;-0.1987457275390625;-0.9908294677734375;0.012179700657725334;0.0400848351418972;0.005046423990279436
0.158447265625;-0.1987457275390625;-0.9908294677734375;0.012179700657725334;0.0400848351418972;0.005046423990279436
0.158447265625;-0.1987457275390625;-0.9908294677734375;0.012179700657725334;0.0400848351418972;0.005046423990279436
0.158447265625;-0.1987457275390625;-0.9908294677734375;0.012179700657725334;0.0400848351418972;0.005046423990279436
0.158447265625;-0.1987457275390625;-0.9908294677734375;0.012179700657725334;0.0400848351418972;0.005046423990279436
0.158477783203125;-0.2003936767578125;-0.9939727783203125;0.02899729646742344;0.02545289508998394;0.004593153949826956
0.158477783203125;-0.2003936767578125;-0.9939727783203125;0.02899729646742344;0.02545289508998394;0.004593153949826956
0.158477783203125;-0.2003936767578125;-0.9939727783203125;0.02899729646742344;0.02545289508998394;0.004593153949826956
0.158477783203125;-0.2003936767578125;-0.9939727783203125;0.02899729646742344;0.02545289508998394;0.004593153949826956
0.158477783203125;-0.2003936767578125;-0.9939727783203125;0.02899729646742344;0.02545289508998394;0.004593153949826956
0.156890869140625;-0.199127197265625;-0.9937896728515625;0.0386778861284256;0.00839934404939413;0.006794256623834372
0.156890869140625;-0.199127197265625;-0.9937896728515625;0.0386778861284256;0.00839934404939413;0.006794256623834372
0.156890869140625;-0.199127197265625;-0.9937896728515625;0.0386778861284256;0.00839934404939413;0.006794256623834372
0.156890869140625;-0.199127197265625;-0.9937896728515625;0.0386778861284256;0.00839934404939413;0.006794256623834372
0.156890869140625;-0.199127197265625;-0.9937896728515625;0.0386778861284256;0.00839934404939413;0.006794256623834372
0.153900146484375;-0.1986236572265625;-0.99072265625;0.04354854300618172;-0.0034618431236594915;0.006603041663765907
0.153900146484375;-0.1986236572265625;-0.99072265625;0.04354854300618172;-0.0034618431236594915;0.006603041663765907
0.153900146484375;-0.1986236572265625;-0.99072265625;0.04354854300618172;-0.0034618431236594915;0.006603041663765907
0.153900146484375;-0.1986236572265625;-0.99072265625;0.04354854300618172;-0.0034618431236594915;0.006603041663765907
0.153900146484375;-0.1986236572265625;-0.99072265625;0.04354854300618172;-0.0034618431236594915;0.006603041663765907
0.1520233154296875;-0.1988067626953125;-0.988067626953125;0.04783862829208374;-0.013138971291482449;0.004252003040164709
0.1520233154296875;-0.1988067626953125;-0.988067626953125;0.04783862829208374;-0.013138971291482449;0.004252003040164709
0.1520233154296875;-0.1988067626953125;-0.988067626953125;0.04783862829208374;-0.013138971291482449;0.004252003040164709
0.1520233154296875;-0.1988067626953125;-0.988067626953125;0.04783862829208374;-0.013138971291482449;0.004252003040164709
0.1520233154296875;-0.1988067626953125;-0.988067626953125;0.04783862829208374;-0.013138971291482449;0.004252003040164709
0.15081787109375;-0.198760986328125;-0.9864349365234375;0.0477006770670414;-0.01708684116601944;0.004025634378194809
0.15081787109375;-0.198760986328125;-0.9864349365234375;0.0477006770670414;-0.01708684116601944;0.004025634378194809
0.15081787109375;-0.198760986328125;-0.9864349365234375;0.0477006770670414;-0.01708684116601944;0.004025634378194809
0.15081787109375;-0.198760986328125;-0.9864349365234375;0.0477006770670414;-0.01708684116601944;0.004025634378194809
0.15081787109375;-0.198760986328125;-0.9864349365234375;0.0477006770670414;-0.01708684116601944;0.004025634378194809
0.151336669921875;-0.1967620849609375;-0.985137939453125;0.03792661055922508;-0.01818193309009075;0.006101301871240139
0.151336669921875;-0.1967620849609375;-0.985137939453125;0.03792661055922508;-0.01818193309009075;0.006101301871240139
0.151336669921875;-0.1967620849609375;-0.985137939453125;0.03792661055922508;-0.01818193309009075;0.006101301871240139
0.151336669921875;-0.1967620849609375;-0.985137939453125;0.03792661055922508;-0.01818193309009075;0.006101301871240139
0.151336669921875;-0.1967620849609375;-0.985137939453125;0.03557823225855827;-0.01666739396750927;0.00541367381811142
0.151092529296875;-0.1968994140625;-0.983673095703125;0.03557823225855827;-0.01666739396750927;0.00541367381811142
0.151092529296875;-0.1968994140625;-0.983673095703125;0.03557823225855827;-0.01666739396750927;0.00541367381811142
0.151092529296875;-0.1968994140625;-0.983673095703125;0.03557823225855827;-0.01666739396750927;0.00541367381811142
0.151092529296875;-0.1968994140625;-0.983673095703125;0.03557823225855827;-0.01666739396750927;0.00541367381811142
0.151092529296875;-0.1968994140625;-0.983673095703125;0.03500991687178612;-0.013778130523860455;0.00800226628780365
0.1526947021484375;-0.1978759765625;-0.984222412109375;0.03500991687178612;-0.013778130523860455;0.00800226628780365
0.1526947021484375;-0.1978759765625;-0.984222412109375;0.03500991687178612;-0.013778130523860455;0.00800226628780365
0.1526947021484375;-0.1978759765625;-0.984222412109375;0.03500991687178612;-0.013778130523860455;0.00800226628780365
0.1526947021484375;-0.1978759765625;-0.984222412109375;0.03500991687178612;-0.013778130523860455;0.00800226628780365
0.1526947021484375;-0.1978759765625;-0.984222412109375;0.03230041638016701;-0.013652428984642029;0.005697567015886307
0.15289306640625;-0.196807861328125;-0.9852142333984375;0.03230041638016701;-0.013652428984642029;0.005697567015886307
0.15289306640625;-0.196807861328125;-0.9852142333984375;0.03230041638016701;-0.013652428984642029;0.005697567015886307
0.15289306640625;-0.196807861328125;-0.9852142333984375;0.03230041638016701;-0.013652428984642029;0.005697567015886307
0.15289306640625;-0.196807861328125;-0.9852142333984375;0.03230041638016701;-0.013652428984642029;0.005697567015886307
0.152679443359375;-0.1967315673828125;-0.9857177734375;0.03299470245838165;-0.010974886827170849;0.010676080361008644
0.152679443359375;-0.1967315673828125;-0.9857177734375;0.03299470245838165;-0.010974886827170849;0.010676080361008644
0.152679443359375;-0.1967315673828125;-0.9857177734375;0.03299470245838165;-0.010974886827170849;0.010676080361008644
0.152679443359375;-0.1967315673828125;-0.9857177734375;0.03299470245838165;-0.010974886827170849;0.010676080361008644
0.152679443359375;-0.1967315673828125;-0.9857177734375;0.03299470245838165;-0.010974886827170849;0.010676080361008644
0.15093994140625;-0.19805908203125;-0.9859619140625;0.03527916222810745;-0.010866762138903141;0.00833835732191801
0.15093994140625;-0.19805908203125;-0.9859619140625;0.03527916222810745;-0.010866762138903141;0.00833835732191801
0.15093994140625;-0.19805908203125;-0.9859619140625;0.03527916222810745;-0.010866762138903141;0.00833835732191801
0.15093994140625;-0.19805908203125;-0.9859619140625;0.03527916222810745;-0.010866762138903141;0.00833835732191801
0.15093994140625;-0.19805908203125;-0.9859619140625;0.03527916222810745;-0.010866762138903141;0.00833835732191801
0.15081787109375;-0.1999664306640625;-0.986724853515625;0.03707493096590042;-0.016772588714957237;0.009738381020724773
0.15081787109375;-0.1999664306640625;-0.986724853515625;0.03707493096590042;-0.016772588714957237;0.009738381020724773
0.15081787109375;-0.1999664306640625;-0.986724853515625;0.03707493096590042;-0.016772588714957237;0.009738381020724773
0.15081787109375;-0.1999664306640625;-0.986724853515625;0.03707493096590042;-0.016772588714957237;0.009738381020724773
0.15081787109375;-0.1999664306640625;-0.986724853515625;0.03707493096590042;-0.016772588714957237;0.009738381020724773
0.1493988037109375;-0.201385498046875;-0.98822021484375;0.04433071240782738;-0.013728595338761806;0.007023022044450045
0.1493988037109375;-0.201385498046875;-0.98822021484375;0.04433071240782738;-0.013728595338761806;0.007023022044450045
0.1493988037109375;-0.201385498046875;-0.98822021484375;0.04433071240782738;-0.013728595338761806;0.007023022044450045
0.1493988037109375;-0.201385498046875;-0.98822021484375;0.04433071240782738;-0.013728595338761806;0.007023022044450045
0.1493988037109375;-0.201385498046875;-0.98822021484375;0.04433071240782738;-0.013728595338761806;0.007023022044450045
0.149444580078125;-0.2033843994140625;-0.9869384765625;0.04771985113620758;-0.014209828339517117;0.00947898905724287
0.149444580078125;-0.2033843994140625;-0.9869384765625;0.04771985113620758;-0.014209828339517117;0.00947898905724287
0.149444580078125;-0.2033843994140625;-0.9869384765625;0.04771985113620758;-0.014209828339517117;0.00947898905724287
0.149444580078125;-0.2033843994140625;-0.9869384765625;0.04771985113620758;-0.014209828339517117;0.00947898905724287
0.149444580078125;-0.2033843994140625;-0.9869384765625;0.04771985113620758;-0.014209828339517117;0.00947898905724287
0.1495361328125;-0.2058868408203125;-0.987091064453125;0.049900446087121964;-0.01353471726179123;0.006376406643539667
0.1495361328125;-0.2058868408203125;-0.987091064453125;0.049900446087121964;-0.01353471726179123;0.006376406643539667
0.1495361328125;-0.2058868408203125;-0.987091064453125;0.049900446087121964;-0.01353471726179123;0.006376406643539667
0.1495361328125;-0.2058868408203125;-0.987091064453125;0.049900446087121964;-0.01353471726179123;0.006376406643539667
0.1495361328125;-0.2058868408203125;-0.987091064453125;0.049900446087121964;-0.01353471726179123;0.006376406643539667
0.148101806640625;-0.207275390625;-0.98876953125;0.05381369590759277;-0.019154785200953484;0.0071095749735832214
0.148101806640625;-0.207275390625;-0.98876953125;0.05381369590759277;-0.019154785200953484;0.0071095749735832214
0.148101806640625;-0.207275390625;-0.98876953125;0.05381369590759277;-0.019154785200953484;0.0071095749735832214
0.148101806640625;-0.207275390625;-0.98876953125;0.05381369590759277;-0.019154785200953484;0.0071095749735832214
0.148101806640625;-0.207275390625;-0.98876953125;0.05381369590759277;-0.019154785200953484;0.0071095749735832214
0.1479034423828125;-0.2073211669921875;-0.990692138671875;0.05607312172651291;-0.028908081352710724;0.007532484829425812
0.1479034423828125;-0.2073211669921875;-0.990692138671875;0.05607312172651291;-0.028908081352710724;0.007532484829425812
0.1479034423828125;-0.2073211669921875;-0.990692138671875;0.05607312172651291;-0.028908081352710724;0.007532484829425812
0.1479034423828125;-0.2073211669921875;-0.990692138671875;0.05607312172651291;-0.028908081352710724;0.007532484829425812
0.1479034423828125;-0.2073211669921875;-0.990692138671875;0.05607312172651291;-0.028908081352710724;0.007532484829425812
0.14959716796875;-0.2098541259765625;-0.9892730712890625;0.05004425719380379;-0.028862807899713516;0.01091762911528349
0.14959716796875;-0.2098541259765625;-0.9892730712890625;0.05004425719380379;-0.028862807899713516;0.01091762911528349
0.14959716796875;-0.2098541259765625;-0.9892730712890625;0.05004425719380379;-0.028862807899713516;0.01091762911528349
0.14959716796875;-0.2098541259765625;-0.9892730712890625;0.05004425719380379;-0.028862807899713516;0.01091762911528349
0.14959716796875;-0.2098541259765625;-0.9892730712890625;0.05004425719380379;-0.028862807899713516;0.01091762911528349
0.1495361328125;-0.212493896484375;-0.98248291015625;0.040896832942962646;-0.023628896102309227;0.008529040031135082
0.1495361328125;-0.212493896484375;-0.98248291015625;0.040896832942962646;-0.023628896102309227;0.008529040031135082
0.1495361328125;-0.212493896484375;-0.98248291015625;0.040896832942962646;-0.023628896102309227;0.008529040031135082
0.1495361328125;-0.212493896484375;-0.98248291015625;0.040896832942962646;-0.023628896102309227;0.008529040031135082
0.1495361328125;-0.212493896484375;-0.98248291015625;0.040896832942962646;-0.023628896102309227;0.008529040031135082
0.1470184326171875;-0.21209716796875;-0.9787445068359375;0.028664933517575264;-0.015479090623557568;0.010211625136435032
0.1470184326171875;-0.21209716796875;-0.9787445068359375;0.028664933517575264;-0.015479090623557568;0.010211625136435032
0.1470184326171875;-0.21209716796875;-0.9787445068359375;0.028664933517575264;-0.015479090623557568;0.010211625136435032
0.1470184326171875;-0.21209716796875;-0.9787445068359375;0.028664933517575264;-0.015479090623557568;0.010211625136435032
0.1470184326171875;-0.21209716796875;-0.9787445068359375;0.028664933517575264;-0.015479090623557568;0.010211625136435032
0.146026611328125;-0.209014892578125;-0.9753875732421875;0.017014402896165848;-0.009373794309794903;0.0035390746779739857
0.146026611328125;-0.209014892578125;-0.9753875732421875;0.017014402896165848;-0.009373794309794903;0.0035390746779739857
0.146026611328125;-0.209014892578125;-0.9753875732421875;0.017014402896165848;-0.009373794309794903;0.0035390746779739857
0.146026611328125;-0.209014892578125;-0.9753875732421875;0.017014402896165848;-0.009373794309794903;0.0035390746779739857
0.146026611328125;-0.209014892578125;-0.9753875732421875;0.017014402896165848;-0.009373794309794903;0.0035390746779739857
0.1460418701171875;-0.2076873779296875;-0.9769439697265625;0.0087218526750803;-0.01031602080911398;0.0029726203065365553
0.1460418701171875;-0.2076873779296875;-0.9769439697265625;0.0087218526750803;-0.01031602080911398;0.0029726203065365553
0.1460418701171875;-0.2076873779296875;-0.9769439697265625;0.0087218526750803;-0.01031602080911398;0.0029726203065365553
0.1460418701171875;-0.2076873779296875;-0.9769439697265625;0.0087218526750803;-0.01031602080911398;0.0029726203065365553
0.1460418701171875;-0.2076873779296875;-0.9769439697265625;0.0087218526750803;-0.01031602080911398;0.0029726203065365553
0.1470794677734375;-0.206024169921875;-0.9779052734375;0.0048855687491595745;-0.004682902246713638;0.0025001754984259605
0.1470794677734375;-0.206024169921875;-0.9779052734375;0.0048855687491595745;-0.004682902246713638;0.0025001754984259605
0.1470794677734375;-0.206024169921875;-0.9779052734375;0.0048855687491595745;-0.004682902246713638;0.0025001754984259605
0.1470794677734375;-0.206024169921875;-0.9779052734375;0.0048855687491595745;-0.004682902246713638;0.0025001754984259605
0.1470794677734375;-0.206024169921875;-0.9779052734375;0.0048855687491595745;-0.004682902246713638;0.0025001754984259605
0.1479034423828125;-0.2042694091796875;-0.978668212890625;0.0042131207883358;-0.002889263443648815;-0.0007036071619950235
0.1479034423828125;-0.2042694091796875;-0.978668212890625;0.0042131207883358;-0.002889263443648815;-0.0007036071619950235
0.1479034423828125;-0.2042694091796875;-0.978668212890625;0.0042131207883358;-0.002889263443648815;-0.0007036071619950235
0.1479034423828125;-0.2042694091796875;-0.978668212890625;0.0042131207883358;-0.002889263443648815;-0.0007036071619950235
0.1479034423828125;-0.2042694091796875;-0.978668212890625;0.0042131207883358;-0.002889263443648815;-0.0007036071619950235
0.14825439453125;-0.204345703125;-0.980194091796875;0.012112589552998543;0.0022149509750306606;0.0029582392890006304
0.14825439453125;-0.204345703125;-0.980194091796875;0.012112589552998543;0.0022149509750306606;0.0029582392890006304
