Acell X;Acell Y;Acell Z;Gyro X;Gyro Y;Gyro Z

0.023895263671875;0.0403289794921875;-1.0055999755859375;0.0052951630204916;-0.029261749237775803;0.0037052559200674295
0.023895263671875;0.0403289794921875;-1.0055999755859375;0.0052951630204916;-0.029261749237775803;0.0037052559200674295
0.0237274169921875;0.0419921875;-1.035400390625;0.0052951630204916;-0.029261749237775803;0.0037052559200674295
0.0237274169921875;0.0419921875;-1.035400390625;0.0052951630204916;-0.029261749237775803;0.0037052559200674295
0.0237274169921875;0.0419921875;-1.035400390625;0.0052951630204916;-0.029261749237775803;0.0037052559200674295
0.0237274169921875;0.0419921875;-1.035400390625;0.011292868293821812;-0.047439154237508774;0.003132676472887397
0.0237274169921875;0.0419921875;-1.035400390625;0.011292868293821812;-0.047439154237508774;0.003132676472887397
0.02398681640625;0.0427093505859375;-1.04071044921875;0.011292868293821812;-0.047439154237508774;0.003132676472887397
0.02398681640625;0.0427093505859375;-1.04071044921875;0.011292868293821812;-0.047439154237508774;0.003132676472887397
0.02398681640625;0.0427093505859375;-1.04071044921875;0.011292868293821812;-0.047439154237508774;0.003132676472887397
0.02398681640625;0.0427093505859375;-1.04071044921875;-0.004991828929632902;-0.041781533509492874;0.0026964505668729544
0.02398681640625;0.0427093505859375;-1.04071044921875;-0.004991828929632902;-0.041781533509492874;0.0026964505668729544
0.0259246826171875;0.0428619384765625;-1.0091400146484375;-0.004991828929632902;-0.041781533509492874;0.0026964505668729544
0.0259246826171875;0.0428619384765625;-1.0091400146484375;-0.004991828929632902;-0.041781533509492874;0.0026964505668729544
0.0259246826171875;0.0428619384765625;-1.0091400146484375;-0.004991828929632902;-0.041781533509492874;0.0026964505668729544
0.0259246826171875;0.0428619384765625;-1.0091400146484375;-0.021748438477516174;-0.02503983862698078;0.006137787364423275
0.0259246826171875;0.0428619384765625;-1.0091400146484375;-0.021748438477516174;-0.02503983862698078;0.006137787364423275
0.0286407470703125;0.0440216064453125;-0.9992828369140625;-0.021748438477516174;-0.02503983862698078;0.006137787364423275
0.0286407470703125;0.0440216064453125;-0.9992828369140625;-0.021748438477516174;-0.02503983862698078;0.006137787364423275
0.0286407470703125;0.0440216064453125;-0.9992828369140625;-0.021748438477516174;-0.02503983862698078;0.006137787364423275
0.0286407470703125;0.0440216064453125;-0.9992828369140625;-0.03187137842178345;-0.01206838060170412;0.007219829596579075
0.0286407470703125;0.0440216064453125;-0.9992828369140625;-0.03187137842178345;-0.01206838060170412;0.007219829596579075
0.02789306640625;0.044647216796875;-1.0029754638671875;-0.03187137842178345;-0.01206838060170412;0.007219829596579075
0.02789306640625;0.044647216796875;-1.0029754638671875;-0.03187137842178345;-0.01206838060170412;0.007219829596579075
0.02789306640625;0.044647216796875;-1.0029754638671875;-0.028869198635220528;-0.010698983445763588;0.010839331895112991
0.02789306640625;0.044647216796875;-1.0029754638671875;-0.028869198635220528;-0.010698983445763588;0.010839331895112991
0.0268096923828125;0.0424652099609375;-1.0000457763671875;-0.028869198635220528;-0.010698983445763588;0.010839331895112991
0.0268096923828125;0.0424652099609375;-1.0000457763671875;-0.028869198635220528;-0.010698983445763588;0.010839331895112991
0.0268096923828125;0.0424652099609375;-1.0000457763671875;-0.028869198635220528;-0.010698983445763588;0.010839331895112991
0.0268096923828125;0.0424652099609375;-1.0000457763671875;-0.028869198635220528;-0.010698983445763588;0.010839331895112991
0.0268096923828125;0.0424652099609375;-1.0000457763671875;-0.004776911810040474;-0.015454323962330818;0.009735452011227608
0.0268096923828125;0.0424652099609375;-1.0000457763671875;-0.004776911810040474;-0.015454323962330818;0.009735452011227608
0.024688720703125;0.0393218994140625;-1.01251220703125;-0.004776911810040474;-0.015454323962330818;0.009735452011227608
0.024688720703125;0.0393218994140625;-1.01251220703125;-0.004776911810040474;-0.015454323962330818;0.009735452011227608
0.024688720703125;0.0393218994140625;-1.01251220703125;-0.004776911810040474;-0.015454323962330818;0.009735452011227608
0.024688720703125;0.0393218994140625;-1.01251220703125;0.03205060958862305;-0.026321884244680405;0.005354018881917
0.024688720703125;0.0393218994140625;-1.01251220703125;0.03205060958862305;-0.026321884244680405;0.005354018881917
0.023468017578125;0.040740966796875;-1.0361785888671875;0.03205060958862305;-0.026321884244680405;0.005354018881917
0.023468017578125;0.040740966796875;-1.0361785888671875;0.03205060958862305;-0.026321884244680405;0.005354018881917
0.023468017578125;0.040740966796875;-1.0361785888671875;0.03205060958862305;-0.026321884244680405;0.005354018881917
0.023468017578125;0.040740966796875;-1.0361785888671875;0.04803410544991493;-0.029895314946770668;0.00618199585005641
0.023468017578125;0.040740966796875;-1.0361785888671875;0.04803410544991493;-0.029895314946770668;0.00618199585005641
0.024688720703125;0.041168212890625;-1.040435791015625;0.04803410544991493;-0.029895314946770668;0.00618199585005641
0.024688720703125;0.041168212890625;-1.040435791015625;0.04803410544991493;-0.029895314946770668;0.00618199585005641
0.024688720703125;0.041168212890625;-1.040435791015625;0.04803410544991493;-0.029895314946770668;0.00618199585005641
0.024688720703125;0.041168212890625;-1.040435791015625;0.047382429242134094;-0.03099280409514904;0.004717523697763681
0.024688720703125;0.041168212890625;-1.040435791015625;0.047382429242134094;-0.03099280409514904;0.004717523697763681
0.0242767333984375;0.04095458984375;-1.0313720703125;0.047382429242134094;-0.03099280409514904;0.004717523697763681
0.0242767333984375;0.04095458984375;-1.0313720703125;0.047382429242134094;-0.03099280409514904;0.004717523697763681
0.0242767333984375;0.04095458984375;-1.0313720703125;0.025661421939730644;-0.021920744329690933;0.0009843043517321348
0.0242767333984375;0.04095458984375;-1.0313720703125;0.025661421939730644;-0.021920744329690933;0.0009843043517321348
0.0242767333984375;0.04095458984375;-1.0313720703125;0.025661421939730644;-0.021920744329690933;0.0009843043517321348
0.023895263671875;0.0401458740234375;-1.020782470703125;0.025661421939730644;-0.021920744329690933;0.0009843043517321348
0.023895263671875;0.0401458740234375;-1.020782470703125;0.025661421939730644;-0.021920744329690933;0.0009843043517321348
0.023895263671875;0.0401458740234375;-1.020782470703125;-0.0037204360123723745;-0.011108044534921646;-0.003581685246899724
0.023895263671875;0.0401458740234375;-1.020782470703125;-0.0037204360123723745;-0.011108044534921646;-0.003581685246899724
0.023895263671875;0.0401458740234375;-1.020782470703125;-0.0037204360123723745;-0.011108044534921646;-0.003581685246899724
0.023040771484375;0.03857421875;-1.0130767822265625;-0.0037204360123723745;-0.011108044534921646;-0.003581685246899724
0.023040771484375;0.03857421875;-1.0130767822265625;-0.0037204360123723745;-0.011108044534921646;-0.003581685246899724
0.023040771484375;0.03857421875;-1.0130767822265625;-0.03693591430783272;-0.00577772781252861;-0.0019891150295734406
0.023040771484375;0.03857421875;-1.0130767822265625;-0.03693591430783272;-0.00577772781252861;-0.0019891150295734406
0.023040771484375;0.03857421875;-1.0130767822265625;-0.03693591430783272;-0.00577772781252861;-0.0019891150295734406
0.0222930908203125;0.037139892578125;-1.0099639892578125;-0.03693591430783272;-0.00577772781252861;-0.0019891150295734406
0.0222930908203125;0.037139892578125;-1.0099639892578125;-0.03693591430783272;-0.00577772781252861;-0.0019891150295734406
0.0222930908203125;0.037139892578125;-1.0099639892578125;-0.06545890122652054;0.0016468988033011556;-0.0035273567773401737
0.0222930908203125;0.037139892578125;-1.0099639892578125;-0.06545890122652054;0.0016468988033011556;-0.0035273567773401737
0.023956298828125;0.03765869140625;-1.0064697265625;-0.06545890122652054;0.0016468988033011556;-0.0035273567773401737
0.023956298828125;0.03765869140625;-1.0064697265625;-0.06545890122652054;0.0016468988033011556;-0.0035273567773401737
0.023956298828125;0.03765869140625;-1.0064697265625;-0.06545890122652054;0.0016468988033011556;-0.0035273567773401737
0.023956298828125;0.03765869140625;-1.0064697265625;-0.08273828774690628;0.008006793446838856;-0.006232596002519131
0.023956298828125;0.03765869140625;-1.0064697265625;-0.08273828774690628;0.008006793446838856;-0.006232596002519131
0.025146484375;0.0421142578125;-1.0023345947265625;-0.08273828774690628;0.008006793446838856;-0.006232596002519131
0.025146484375;0.0421142578125;-1.0023345947265625;-0.08273828774690628;0.008006793446838856;-0.006232596002519131
0.025146484375;0.0421142578125;-1.0023345947265625;-0.08273828774690628;0.008006793446838856;-0.006232596002519131
0.025146484375;0.0421142578125;-1.0023345947265625;-0.08816421031951904;0.01107262447476387;-0.00410526292398572
0.025146484375;0.0421142578125;-1.0023345947265625;-0.08816421031951904;0.01107262447476387;-0.00410526292398572
0.024566650390625;0.0476226806640625;-1.0030975341796875;-0.08816421031951904;0.01107262447476387;-0.00410526292398572
0.024566650390625;0.0476226806640625;-1.0030975341796875;-0.08816421031951904;0.01107262447476387;-0.00410526292398572
0.024566650390625;0.0476226806640625;-1.0030975341796875;-0.08816421031951904;0.01107262447476387;-0.00410526292398572
0.024566650390625;0.0476226806640625;-1.0030975341796875;-0.08330554515123367;0.007437409833073616;-0.0036828855518251657
0.024566650390625;0.0476226806640625;-1.0030975341796875;-0.08330554515123367;0.007437409833073616;-0.0036828855518251657
0.024505615234375;0.0526123046875;-1.004974365234375;-0.08330554515123367;0.007437409833073616;-0.0036828855518251657
0.024505615234375;0.0526123046875;-1.004974365234375;-0.08330554515123367;0.007437409833073616;-0.0036828855518251657
0.024505615234375;0.0526123046875;-1.004974365234375;-0.08330554515123367;0.007437409833073616;-0.0036828855518251657
0.024505615234375;0.0526123046875;-1.004974365234375;-0.06462959200143814;0.007094128523021936;-0.0016972325975075364
0.024505615234375;0.0526123046875;-1.004974365234375;-0.06462959200143814;0.007094128523021936;-0.0016972325975075364
0.0245361328125;0.056304931640625;-1.00390625;-0.06462959200143814;0.007094128523021936;-0.0016972325975075364
0.0245361328125;0.056304931640625;-1.00390625;-0.06462959200143814;0.007094128523021936;-0.0016972325975075364
0.0245361328125;0.056304931640625;-1.00390625;-0.06462959200143814;0.007094128523021936;-0.0016972325975075364
0.0245361328125;0.056304931640625;-1.00390625;-0.04494590312242508;0.0019536949694156647;-0.0024056334514170885
0.0245361328125;0.056304931640625;-1.00390625;-0.04494590312242508;0.0019536949694156647;-0.0024056334514170885
0.0252227783203125;0.0580902099609375;-1.0075531005859375;-0.04494590312242508;0.0019536949694156647;-0.0024056334514170885
0.0252227783203125;0.0580902099609375;-1.0075531005859375;-0.04494590312242508;0.0019536949694156647;-0.0024056334514170885
0.0252227783203125;0.0580902099609375;-1.0075531005859375;-0.04494590312242508;0.0019536949694156647;-0.0024056334514170885
0.0252227783203125;0.0580902099609375;-1.0075531005859375;-0.02245311066508293;-0.0002980077115353197;0.0025542378425598145
0.0252227783203125;0.0580902099609375;-1.0075531005859375;-0.02245311066508293;-0.0002980077115353197;0.0025542378425598145
0.0254364013671875;0.0589752197265625;-1.0112152099609375;-0.02245311066508293;-0.0002980077115353197;0.0025542378425598145
0.0254364013671875;0.0589752197265625;-1.0112152099609375;-0.02245311066508293;-0.0002980077115353197;0.0025542378425598145
0.0254364013671875;0.0589752197265625;-1.0112152099609375;-0.02245311066508293;-0.0002980077115353197;0.0025542378425598145
0.0254364013671875;0.0589752197265625;-1.0112152099609375;-0.01014051865786314;-0.003025883575901389;0.0008633967954665422
0.0254364013671875;0.0589752197265625;-1.0112152099609375;-0.01014051865786314;-0.003025883575901389;0.0008633967954665422
0.0247955322265625;0.0572052001953125;-1.0096588134765625;-0.01014051865786314;-0.003025883575901389;0.0008633967954665422
0.0247955322265625;0.0572052001953125;-1.0096588134765625;-0.01014051865786314;-0.003025883575901389;0.0008633967954665422
0.0247955322265625;0.0572052001953125;-1.0096588134765625;-0.01014051865786314;-0.003025883575901389;0.0008633967954665422
0.0247955322265625;0.0572052001953125;-1.0096588134765625;-0.00515854312106967;-0.0047260457649827;0.004157194402068853
0.0247955322265625;0.0572052001953125;-1.0096588134765625;-0.00515854312106967;-0.0047260457649827;0.004157194402068853
0.024017333984375;0.0552520751953125;-1.00970458984375;-0.00515854312106967;-0.0047260457649827;0.004157194402068853
0.024017333984375;0.0552520751953125;-1.00970458984375;-0.00515854312106967;-0.0047260457649827;0.004157194402068853
0.024017333984375;0.0552520751953125;-1.00970458984375;-0.00515854312106967;-0.0047260457649827;0.004157194402068853
0.024017333984375;0.0552520751953125;-1.00970458984375;-0.004240285139530897;-0.0015060176374390721;0.004595284350216389
0.024017333984375;0.0552520751953125;-1.00970458984375;-0.004240285139530897;-0.0015060176374390721;0.004595284350216389
0.0225677490234375;0.0534210205078125;-1.009857177734375;-0.004240285139530897;-0.0015060176374390721;0.004595284350216389
0.0225677490234375;0.0534210205078125;-1.009857177734375;-0.004240285139530897;-0.0015060176374390721;0.004595284350216389
0.0225677490234375;0.0534210205078125;-1.009857177734375;-0.004240285139530897;-0.0015060176374390721;0.004595284350216389
0.0225677490234375;0.0534210205078125;-1.009857177734375;-0.008383364416658878;0.0006242449744604528;0.0060144830495119095
0.0225677490234375;0.0534210205078125;-1.009857177734375;-0.008383364416658878;0.0006242449744604528;0.0060144830495119095
0.0225372314453125;0.049224853515625;-1.0085296630859375;-0.008383364416658878;0.0006242449744604528;0.0060144830495119095
0.0225372314453125;0.049224853515625;-1.0085296630859375;-0.008383364416658878;0.0006242449744604528;0.0060144830495119095
0.0225372314453125;0.049224853515625;-1.0085296630859375;-0.008383364416658878;0.0006242449744604528;0.0060144830495119095
0.0225372314453125;0.049224853515625;-1.0085296630859375;-0.0186447910964489;-0.0004487426485866308;0.006154831498861313
0.0225372314453125;0.049224853515625;-1.0085296630859375;-0.0186447910964489;-0.0004487426485866308;0.006154831498861313
0.022308349609375;0.0476837158203125;-1.0077362060546875;-0.0186447910964489;-0.0004487426485866308;0.006154831498861313
0.022308349609375;0.0476837158203125;-1.0077362060546875;-0.0186447910964489;-0.0004487426485866308;0.006154831498861313
0.022308349609375;0.0476837158203125;-1.0077362060546875;-0.0186447910964489;-0.0004487426485866308;0.006154831498861313
0.022308349609375;0.0476837158203125;-1.0077362060546875;-0.02828649990260601;0.002704173792153597;0.007286408916115761
0.022308349609375;0.0476837158203125;-1.0077362060546875;-0.02828649990260601;0.002704173792153597;0.007286408916115761
0.0223236083984375;0.0458984375;-1.005828857421875;-0.02828649990260601;0.002704173792153597;0.007286408916115761
0.0223236083984375;0.0458984375;-1.005828857421875;-0.02828649990260601;0.002704173792153597;0.007286408916115761
0.0223236083984375;0.0458984375;-1.005828857421875;-0.02828649990260601;0.002704173792153597;0.007286408916115761
0.0223236083984375;0.0458984375;-1.005828857421875;-0.028390895575284958;0.0034077810123562813;0.0077458037994802
0.0223236083984375;0.0458984375;-1.005828857421875;-0.028390895575284958;0.0034077810123562813;0.0077458037994802
0.023406982421875;0.0456085205078125;-1.01019287109375;-0.028390895575284958;0.0034077810123562813;0.0077458037994802
0.023406982421875;0.0456085205078125;-1.01019287109375;-0.028390895575284958;0.0034077810123562813;0.0077458037994802
0.023406982421875;0.0456085205078125;-1.01019287109375;-0.028390895575284958;0.0034077810123562813;0.0077458037994802
0.023406982421875;0.0456085205078125;-1.01019287109375;-0.030649522319436073;-0.0009571401169523597;0.004219512455165386
0.023406982421875;0.0456085205078125;-1.01019287109375;-0.030649522319436073;-0.0009571401169523597;0.004219512455165386
0.023590087890625;0.0473175048828125;-1.012451171875;-0.030649522319436073;-0.0009571401169523597;0.004219512455165386
0.023590087890625;0.0473175048828125;-1.012451171875;-0.030649522319436073;-0.0009571401169523597;0.004219512455165386
0.023590087890625;0.0473175048828125;-1.012451171875;-0.030649522319436073;-0.0009571401169523597;0.004219512455165386
0.023590087890625;0.0473175048828125;-1.012451171875;-0.029388515278697014;-0.0031702269334346056;0.006160157732665539
0.023590087890625;0.0473175048828125;-1.012451171875;-0.029388515278697014;-0.0031702269334346056;0.006160157732665539
0.023651123046875;0.0485992431640625;-1.012054443359375;-0.029388515278697014;-0.0031702269334346056;0.006160157732665539
0.023651123046875;0.0485992431640625;-1.012054443359375;-0.029388515278697014;-0.0031702269334346056;0.006160157732665539
0.023651123046875;0.0485992431640625;-1.012054443359375;-0.029388515278697014;-0.0031702269334346056;0.006160157732665539
0.023651123046875;0.0485992431640625;-1.012054443359375;-0.027880366891622543;-0.003129746997728944;0.0003478088474366814
0.023651123046875;0.0485992431640625;-1.012054443359375;-0.027880366891622543;-0.003129746997728944;0.0003478088474366814
0.022735595703125;0.0488433837890625;-1.011199951171875;-0.027880366891622543;-0.003129746997728944;0.0003478088474366814
0.022735595703125;0.0488433837890625;-1.011199951171875;-0.027880366891622543;-0.003129746997728944;0.0003478088474366814
0.022735595703125;0.0488433837890625;-1.011199951171875;-0.027880366891622543;-0.003129746997728944;0.0003478088474366814
0.022735595703125;0.0488433837890625;-1.011199951171875;-0.021702365949749947;-0.00848669558763504;0.002520415699109435
0.022735595703125;0.0488433837890625;-1.011199951171875;-0.021702365949749947;-0.00848669558763504;0.002520415699109435
0.0225677490234375;0.04925537109375;-1.0135955810546875;-0.021702365949749947;-0.00848669558763504;0.002520415699109435
0.0225677490234375;0.04925537109375;-1.0135955810546875;-0.021702365949749947;-0.00848669558763504;0.002520415699109435
0.0225677490234375;0.04925537109375;-1.0135955810546875;-0.021702365949749947;-0.00848669558763504;0.002520415699109435
0.0225677490234375;0.04925537109375;-1.0135955810546875;-0.01492328941822052;-0.01324070431292057;0.0005190501105971634
0.0225677490234375;0.04925537109375;-1.0135955810546875;-0.01492328941822052;-0.01324070431292057;0.0005190501105971634
0.023284912109375;0.050384521484375;-1.019622802734375;-0.01492328941822052;-0.01324070431292057;0.0005190501105971634
0.023284912109375;0.050384521484375;-1.019622802734375;-0.01492328941822052;-0.01324070431292057;0.0005190501105971634
0.023284912109375;0.050384521484375;-1.019622802734375;-0.01492328941822052;-0.01324070431292057;0.0005190501105971634
0.023284912109375;0.050384521484375;-1.019622802734375;-0.02310638502240181;-0.009429188445210457;-0.00044341632747091353
0.023284912109375;0.050384521484375;-1.019622802734375;-0.02310638502240181;-0.009429188445210457;-0.00044341632747091353
0.025146484375;0.0502166748046875;-1.0183868408203125;-0.02310638502240181;-0.009429188445210457;-0.00044341632747091353
0.025146484375;0.0502166748046875;-1.0183868408203125;-0.02310638502240181;-0.009429188445210457;-0.00044341632747091353
0.025146484375;0.0502166748046875;-1.0183868408203125;-0.02310638502240181;-0.009429188445210457;-0.00044341632747091353
0.025146484375;0.0502166748046875;-1.0183868408203125;-0.04139857366681099;-0.00993092730641365;0.00224877311848104
0.025146484375;0.0502166748046875;-1.0183868408203125;-0.04139857366681099;-0.00993092730641365;0.00224877311848104
0.0232391357421875;0.049072265625;-1.0072021484375;-0.04139857366681099;-0.00993092730641365;0.00224877311848104
0.0232391357421875;0.049072265625;-1.0072021484375;-0.04139857366681099;-0.00993092730641365;0.00224877311848104
0.0232391357421875;0.049072265625;-1.0072021484375;-0.04139857366681099;-0.00993092730641365;0.00224877311848104
0.0232391357421875;0.049072265625;-1.0072021484375;-0.05826463922858238;-0.0030565098859369755;0.002269545802846551
0.0232391357421875;0.049072265625;-1.0072021484375;-0.05826463922858238;-0.0030565098859369755;0.002269545802846551
0.0201568603515625;0.050994873046875;-1.0019683837890625;-0.05826463922858238;-0.0030565098859369755;0.002269545802846551
0.0201568603515625;0.050994873046875;-1.0019683837890625;-0.05826463922858238;-0.0030565098859369755;0.002269545802846551
0.0201568603515625;0.050994873046875;-1.0019683837890625;-0.05826463922858238;-0.0030565098859369755;0.002269545802846551
0.0201568603515625;0.050994873046875;-1.0019683837890625;-0.061229534447193146;-0.0011672634864225984;0.006461361423134804
0.0201568603515625;0.050994873046875;-1.0019683837890625;-0.061229534447193146;-0.0011672634864225984;0.006461361423134804
0.021820068359375;0.05010986328125;-1.00457763671875;-0.061229534447193146;-0.0011672634864225984;0.006461361423134804
0.021820068359375;0.05010986328125;-1.00457763671875;-0.061229534447193146;-0.0011672634864225984;0.006461361423134804
0.021820068359375;0.05010986328125;-1.00457763671875;-0.061229534447193146;-0.0011672634864225984;0.006461361423134804
0.021820068359375;0.05010986328125;-1.00457763671875;-0.059775449335575104;-0.0002801645314320922;0.0070706927217543125
0.021820068359375;0.05010986328125;-1.00457763671875;-0.059775449335575104;-0.0002801645314320922;0.0070706927217543125
0.0245208740234375;0.0515594482421875;-1.0093841552734375;-0.059775449335575104;-0.0002801645314320922;0.0070706927217543125
0.0245208740234375;0.0515594482421875;-1.0093841552734375;-0.059775449335575104;-0.0002801645314320922;0.0070706927217543125
0.0245208740234375;0.0515594482421875;-1.0093841552734375;-0.059775449335575104;-0.0002801645314320922;0.0070706927217543125
0.0245208740234375;0.0515594482421875;-1.0093841552734375;-0.056588444858789444;-0.0009643306257203221;0.006767891347408295
0.0245208740234375;0.0515594482421875;-1.0093841552734375;-0.056588444858789444;-0.0009643306257203221;0.006767891347408295
0.023895263671875;0.0516510009765625;-1.0126953125;-0.056588444858789444;-0.0009643306257203221;0.006767891347408295
0.023895263671875;0.0516510009765625;-1.0126953125;-0.056588444858789444;-0.0009643306257203221;0.006767891347408295
0.023895263671875;0.0516510009765625;-1.0126953125;-0.056588444858789444;-0.0009643306257203221;0.006767891347408295
0.023895263671875;0.0516510009765625;-1.0126953125;-0.05144881084561348;-0.003905259305611253;0.00785818975418806
0.023895263671875;0.0516510009765625;-1.0126953125;-0.05144881084561348;-0.003905259305611253;0.00785818975418806
0.0234832763671875;0.052947998046875;-1.0166778564453125;-0.05144881084561348;-0.003905259305611253;0.00785818975418806
0.0234832763671875;0.052947998046875;-1.0166778564453125;-0.05144881084561348;-0.003905259305611253;0.00785818975418806
0.0234832763671875;0.052947998046875;-1.0166778564453125;-0.05144881084561348;-0.003905259305611253;0.00785818975418806
0.0234832763671875;0.052947998046875;-1.0166778564453125;-0.05387281998991966;-0.0009270463488064706;0.006959639023989439
0.0234832763671875;0.052947998046875;-1.0166778564453125;-0.05387281998991966;-0.0009270463488064706;0.006959639023989439
0.02252197265625;0.05255126953125;-1.01763916015625;-0.05387281998991966;-0.0009270463488064706;0.006959639023989439
0.02252197265625;0.05255126953125;-1.01763916015625;-0.05387281998991966;-0.0009270463488064706;0.006959639023989439
0.02252197265625;0.05255126953125;-1.01763916015625;-0.05387281998991966;-0.0009270463488064706;0.006959639023989439
0.02252197265625;0.05255126953125;-1.01763916015625;-0.0671372264623642;-0.0011230550007894635;0.007732754573225975
0.02252197265625;0.05255126953125;-1.01763916015625;-0.0671372264623642;-0.0011230550007894635;0.007732754573225975
0.020050048828125;0.0503082275390625;-1.0186614990234375;-0.0671372264623642;-0.0011230550007894635;0.007732754573225975
0.020050048828125;0.0503082275390625;-1.0186614990234375;-0.0671372264623642;-0.0011230550007894635;0.007732754573225975
0.020050048828125;0.0503082275390625;-1.0186614990234375;-0.0671372264623642;-0.0011230550007894635;0.007732754573225975
0.020050048828125;0.0503082275390625;-1.0186614990234375;-0.08075530081987381;-0.001719869440421462;0.007209975738078356
0.020050048828125;0.0503082275390625;-1.0186614990234375;-0.08075530081987381;-0.001719869440421462;0.007209975738078356
0.0195465087890625;0.048828125;-1.0200653076171875;-0.08075530081987381;-0.001719869440421462;0.007209975738078356
0.0195465087890625;0.048828125;-1.0200653076171875;-0.08075530081987381;-0.001719869440421462;0.007209975738078356
0.0195465087890625;0.048828125;-1.0200653076171875;-0.08075530081987381;-0.001719869440421462;0.007209975738078356
0.0195465087890625;0.048828125;-1.0200653076171875;-0.10081103444099426;0.0001270327775273472;0.008076568134129047
0.0195465087890625;0.048828125;-1.0200653076171875;-0.10081103444099426;0.0001270327775273472;0.008076568134129047
0.0197906494140625;0.0482177734375;-1.0181884765625;-0.10081103444099426;0.0001270327775273472;0.008076568134129047
0.0197906494140625;0.0482177734375;-1.0181884765625;-0.10081103444099426;0.0001270327775273472;0.008076568134129047
0.0197906494140625;0.0482177734375;-1.0181884765625;-0.10081103444099426;0.0001270327775273472;0.008076568134129047
0.0197906494140625;0.0482177734375;-1.0181884765625;-0.12108967453241348;-0.0012210593558847904;0.004159857518970966
0.0197906494140625;0.0482177734375;-1.0181884765625;-0.12108967453241348;-0.0012210593558847904;0.004159857518970966
0.021392822265625;0.048614501953125;-1.0146942138671875;-0.12108967453241348;-0.0012210593558847904;0.004159857518970966
0.021392822265625;0.048614501953125;-1.0146942138671875;-0.12108967453241348;-0.0012210593558847904;0.004159857518970966
0.021392822265625;0.048614501953125;-1.0146942138671875;-0.12108967453241348;-0.0012210593558847904;0.004159857518970966
0.021392822265625;0.048614501953125;-1.0146942138671875;-0.13377191126346588;0.0021166803780943155;0.004770786967128515
0.021392822265625;0.048614501953125;-1.0146942138671875;-0.13377191126346588;0.0021166803780943155;0.004770786967128515
0.0229034423828125;0.051361083984375;-1.013824462890625;-0.13377191126346588;0.0021166803780943155;0.004770786967128515
0.0229034423828125;0.051361083984375;-1.013824462890625;-0.13377191126346588;0.0021166803780943155;0.004770786967128515
0.0229034423828125;0.051361083984375;-1.013824462890625;-0.13377191126346588;0.0021166803780943155;0.004770786967128515
0.0229034423828125;0.051361083984375;-1.013824462890625;-0.1401352733373642;0.002956907730549574;0.006108492612838745
0.0229034423828125;0.051361083984375;-1.013824462890625;-0.1401352733373642;0.002956907730549574;0.006108492612838745
0.0245513916015625;0.0561981201171875;-1.01141357421875;-0.1401352733373642;0.002956907730549574;0.006108492612838745
0.0245513916015625;0.0561981201171875;-1.01141357421875;-0.1401352733373642;0.002956907730549574;0.006108492612838745
0.0245513916015625;0.0561981201171875;-1.01141357421875;-0.1401352733373642;0.002956907730549574;0.006108492612838745
0.0245513916015625;0.0561981201171875;-1.01141357421875;-0.13931608200073242;0.0011526161106303334;0.001960885478183627
0.0245513916015625;0.0561981201171875;-1.01141357421875;-0.13931608200073242;0.0011526161106303334;0.001960885478183627
0.026153564453125;0.0602264404296875;-1.011016845703125;-0.13931608200073242;0.0011526161106303334;0.001960885478183627
0.026153564453125;0.0602264404296875;-1.011016845703125;-0.13931608200073242;0.0011526161106303334;0.001960885478183627
0.026153564453125;0.0602264404296875;-1.011016845703125;-0.13931608200073242;0.0011526161106303334;0.001960885478183627
0.026153564453125;0.0602264404296875;-1.011016845703125;-0.13203100860118866;7.669904152862728e-05;0.004381965380162001
0.026153564453125;0.0602264404296875;-1.011016845703125;-0.13203100860118866;7.669904152862728e-05;0.004381965380162001
0.0272979736328125;0.0662994384765625;-1.0094451904296875;-0.13203100860118866;7.669904152862728e-05;0.004381965380162001
0.0272979736328125;0.0662994384765625;-1.0094451904296875;-0.13203100860118866;7.669904152862728e-05;0.004381965380162001
0.0272979736328125;0.0662994384765625;-1.0094451904296875;-0.13203100860118866;7.669904152862728e-05;0.004381965380162001
0.0272979736328125;0.0662994384765625;-1.0094451904296875;-0.12118634581565857;-0.0005169195355847478;0.007022755686193705
0.0272979736328125;0.0662994384765625;-1.0094451904296875;-0.12118634581565857;-0.0005169195355847478;0.007022755686193705
0.027496337890625;0.07171630859375;-1.0067291259765625;-0.12118634581565857;-0.0005169195355847478;0.007022755686193705
0.027496337890625;0.07171630859375;-1.0067291259765625;-0.12118634581565857;-0.0005169195355847478;0.007022755686193705
0.027496337890625;0.07171630859375;-1.0067291259765625;-0.10581085085868835;-0.003531617810949683;0.0028309402987360954
0.027496337890625;0.07171630859375;-1.0067291259765625;-0.10581085085868835;-0.003531617810949683;0.0028309402987360954
0.027496337890625;0.07171630859375;-1.0067291259765625;-0.10581085085868835;-0.003531617810949683;0.0028309402987360954
0.0267791748046875;0.0738525390625;-1.00640869140625;-0.10581085085868835;-0.003531617810949683;0.0028309402987360954
0.0267791748046875;0.0738525390625;-1.00640869140625;-0.10581085085868835;-0.003531617810949683;0.0028309402987360954
0.0267791748046875;0.0738525390625;-1.00640869140625;-0.10581085085868835;-0.003531617810949683;0.0028309402987360954
0.0267791748046875;0.0738525390625;-1.00640869140625;-0.08567468822002411;-0.0031041805632412434;0.004415254574269056
0.0267791748046875;0.0738525390625;-1.00640869140625;-0.08567468822002411;-0.0031041805632412434;0.004415254574269056
0.025421142578125;0.075897216796875;-1.008026123046875;-0.08567468822002411;-0.0031041805632412434;0.004415254574269056
0.025421142578125;0.075897216796875;-1.008026123046875;-0.08567468822002411;-0.0031041805632412434;0.004415254574269056
0.025421142578125;0.075897216796875;-1.008026123046875;-0.06336965411901474;-0.007470166776329279;0.0011563445441424847
0.025421142578125;0.075897216796875;-1.008026123046875;-0.06336965411901474;-0.007470166776329279;0.0011563445441424847
0.025421142578125;0.075897216796875;-1.008026123046875;-0.06336965411901474;-0.007470166776329279;0.0011563445441424847
0.0243988037109375;0.0760498046875;-1.0092926025390625;-0.06336965411901474;-0.007470166776329279;0.0011563445441424847
0.0243988037109375;0.0760498046875;-1.0092926025390625;-0.06336965411901474;-0.007470166776329279;0.0011563445441424847
0.0243988037109375;0.0760498046875;-1.0092926025390625;-0.044737644493579865;-0.006563360337167978;0.005079447291791439
0.0243988037109375;0.0760498046875;-1.0092926025390625;-0.044737644493579865;-0.006563360337167978;0.005079447291791439
0.0243988037109375;0.0760498046875;-1.0092926025390625;-0.044737644493579865;-0.006563360337167978;0.005079447291791439
0.0235595703125;0.07403564453125;-1.0111083984375;-0.044737644493579865;-0.006563360337167978;0.005079447291791439
0.0235595703125;0.07403564453125;-1.0111083984375;-0.044737644493579865;-0.006563360337167978;0.005079447291791439
0.0235595703125;0.07403564453125;-1.0111083984375;-0.035657864063978195;-0.00749173853546381;0.0038573225028812885
0.0235595703125;0.07403564453125;-1.0111083984375;-0.035657864063978195;-0.00749173853546381;0.0038573225028812885
0.0235595703125;0.07403564453125;-1.0111083984375;-0.035657864063978195;-0.00749173853546381;0.0038573225028812885
0.0225067138671875;0.072601318359375;-1.0115203857421875;-0.035657864063978195;-0.00749173853546381;0.0038573225028812885
0.0225067138671875;0.072601318359375;-1.0115203857421875;-0.035657864063978195;-0.00749173853546381;0.0038573225028812885
0.0225067138671875;0.072601318359375;-1.0115203857421875;-0.029471339657902718;-0.011173292063176632;0.005846970248967409
0.0225067138671875;0.072601318359375;-1.0115203857421875;-0.029471339657902718;-0.011173292063176632;0.005846970248967409
0.0222930908203125;0.07049560546875;-1.0117340087890625;-0.029471339657902718;-0.011173292063176632;0.005846970248967409
0.0222930908203125;0.07049560546875;-1.0117340087890625;-0.029471339657902718;-0.011173292063176632;0.005846970248967409
0.0222930908203125;0.07049560546875;-1.0117340087890625;-0.029471339657902718;-0.011173292063176632;0.005846970248967409
0.0222930908203125;0.07049560546875;-1.0117340087890625;-0.030491862446069717;-0.004656270612031221;0.005428853910416365
0.0222930908203125;0.07049560546875;-1.0117340087890625;-0.030491862446069717;-0.004656270612031221;0.005428853910416365
0.0219573974609375;0.068939208984375;-1.0098876953125;-0.030491862446069717;-0.004656270612031221;0.005428853910416365
0.0219573974609375;0.068939208984375;-1.0098876953125;-0.030491862446069717;-0.004656270612031221;0.005428853910416365
0.0219573974609375;0.068939208984375;-1.0098876953125;-0.030491862446069717;-0.004656270612031221;0.005428853910416365
0.0219573974609375;0.068939208984375;-1.0098876953125;-0.0275003332644701;0.0005928196478635073;0.009918676689267159
0.0219573974609375;0.068939208984375;-1.0098876953125;-0.0275003332644701;0.0005928196478635073;0.009918676689267159
0.0231475830078125;0.0665740966796875;-1.0095672607421875;-0.0275003332644701;0.0005928196478635073;0.009918676689267159
0.0231475830078125;0.0665740966796875;-1.0095672607421875;-0.0275003332644701;0.0005928196478635073;0.009918676689267159
0.0231475830078125;0.0665740966796875;-1.0095672607421875;-0.0275003332644701;0.0005928196478635073;0.009918676689267159
0.0231475830078125;0.0665740966796875;-1.0095672607421875;-0.03314623609185219;-0.001719603082165122;0.009247294627130032
0.0231475830078125;0.0665740966796875;-1.0095672607421875;-0.03314623609185219;-0.001719603082165122;0.009247294627130032
0.023681640625;0.066162109375;-1.0099334716796875;-0.03314623609185219;-0.001719603082165122;0.009247294627130032
0.023681640625;0.066162109375;-1.0099334716796875;-0.03314623609185219;-0.001719603082165122;0.009247294627130032
0.023681640625;0.066162109375;-1.0099334716796875;-0.03314623609185219;-0.001719603082165122;0.009247294627130032
0.023681640625;0.066162109375;-1.0099334716796875;-0.03858094662427902;0.004501008428633213;0.007556186988949776
0.023681640625;0.066162109375;-1.0099334716796875;-0.03858094662427902;0.004501008428633213;0.007556186988949776
0.023590087890625;0.0659332275390625;-1.008941650390625;-0.03858094662427902;0.004501008428633213;0.007556186988949776
0.023590087890625;0.0659332275390625;-1.008941650390625;-0.03858094662427902;0.004501008428633213;0.007556186988949776
0.023590087890625;0.0659332275390625;-1.008941650390625;-0.03858094662427902;0.004501008428633213;0.007556186988949776
0.023590087890625;0.0659332275390625;-1.008941650390625;-0.04790946841239929;0.0017590179340913892;0.007248591631650925
0.023590087890625;0.0659332275390625;-1.008941650390625;-0.04790946841239929;0.0017590179340913892;0.007248591631650925
0.02294921875;0.0653228759765625;-1.0087127685546875;-0.04790946841239929;0.0017590179340913892;0.007248591631650925
0.02294921875;0.0653228759765625;-1.0087127685546875;-0.04790946841239929;0.0017590179340913892;0.007248591631650925
0.02294921875;0.0653228759765625;-1.0087127685546875;-0.04790946841239929;0.0017590179340913892;0.007248591631650925
0.02294921875;0.0653228759765625;-1.0087127685546875;-0.05465046316385269;0.005708752200007439;0.0038008634001016617
0.02294921875;0.0653228759765625;-1.0087127685546875;-0.05465046316385269;0.005708752200007439;0.0038008634001016617
0.0237579345703125;0.06463623046875;-1.0079498291015625;-0.05465046316385269;0.005708752200007439;0.0038008634001016617
0.0237579345703125;0.06463623046875;-1.0079498291015625;-0.05465046316385269;0.005708752200007439;0.0038008634001016617
0.0237579345703125;0.06463623046875;-1.0079498291015625;-0.05465046316385269;0.005708752200007439;0.0038008634001016617
0.0237579345703125;0.06463623046875;-1.0079498291015625;-0.05980181321501732;0.0020623519085347652;0.0057132793590426445
0.0237579345703125;0.06463623046875;-1.0079498291015625;-0.05980181321501732;0.0020623519085347652;0.0057132793590426445
0.0239715576171875;0.0653228759765625;-1.0089111328125;-0.05980181321501732;0.0020623519085347652;0.0057132793590426445
0.0239715576171875;0.0653228759765625;-1.0089111328125;-0.05980181321501732;0.0020623519085347652;0.0057132793590426445
0.0239715576171875;0.0653228759765625;-1.0089111328125;-0.05980181321501732;0.0020623519085347652;0.0057132793590426445
0.0239715576171875;0.0653228759765625;-1.0089111328125;-0.06904537975788116;0.0041121868416666985;0.004720186814665794
0.0239715576171875;0.0653228759765625;-1.0089111328125;-0.06904537975788116;0.0041121868416666985;0.004720186814665794
0.025115966796875;0.0661773681640625;-1.00750732421875;-0.06904537975788116;0.0041121868416666985;0.004720186814665794
0.025115966796875;0.0661773681640625;-1.00750732421875;-0.06904537975788116;0.0041121868416666985;0.004720186814665794
0.025115966796875;0.0661773681640625;-1.00750732421875;-0.06904537975788116;0.0041121868416666985;0.004720186814665794
0.025115966796875;0.0661773681640625;-1.00750732421875;-0.06434303522109985;0.005086104851216078;0.007174289785325527
0.025115966796875;0.0661773681640625;-1.00750732421875;-0.06434303522109985;0.005086104851216078;0.007174289785325527
0.025604248046875;0.0679779052734375;-1.0086212158203125;-0.06434303522109985;0.005086104851216078;0.007174289785325527
0.025604248046875;0.0679779052734375;-1.0086212158203125;-0.06434303522109985;0.005086104851216078;0.007174289785325527
0.025604248046875;0.0679779052734375;-1.0086212158203125;-0.06434303522109985;0.005086104851216078;0.007174289785325527
0.025604248046875;0.0679779052734375;-1.0086212158203125;-0.05896478146314621;0.003239735495299101;0.00749093946069479
0.025604248046875;0.0679779052734375;-1.0086212158203125;-0.05896478146314621;0.003239735495299101;0.00749093946069479
0.0252838134765625;0.06915283203125;-1.0117034912109375;-0.05896478146314621;0.003239735495299101;0.00749093946069479
0.0252838134765625;0.06915283203125;-1.0117034912109375;-0.05896478146314621;0.003239735495299101;0.00749093946069479
0.0252838134765625;0.06915283203125;-1.0117034912109375;-0.05896478146314621;0.003239735495299101;0.00749093946069479
0.0252838134765625;0.06915283203125;-1.0117034912109375;-0.048467665910720825;-0.001996838254854083;0.005828594323247671
0.0252838134765625;0.06915283203125;-1.0117034912109375;-0.048467665910720825;-0.001996838254854083;0.005828594323247671
0.0255126953125;0.070648193359375;-1.013275146484375;-0.048467665910720825;-0.001996838254854083;0.005828594323247671
0.0255126953125;0.070648193359375;-1.013275146484375;-0.048467665910720825;-0.001996838254854083;0.005828594323247671
0.0255126953125;0.070648193359375;-1.013275146484375;-0.048467665910720825;-0.001996838254854083;0.005828594323247671
0.0255126953125;0.070648193359375;-1.013275146484375;-0.04366918280720711;-0.0005249090609140694;0.006470416206866503
0.0255126953125;0.070648193359375;-1.013275146484375;-0.04366918280720711;-0.0005249090609140694;0.006470416206866503
0.0258636474609375;0.0705718994140625;-1.0133819580078125;-0.04366918280720711;-0.0005249090609140694;0.006470416206866503
0.0258636474609375;0.0705718994140625;-1.0133819580078125;-0.04366918280720711;-0.0005249090609140694;0.006470416206866503
0.0258636474609375;0.0705718994140625;-1.0133819580078125;-0.04366918280720711;-0.0005249090609140694;0.006470416206866503
0.0258636474609375;0.0705718994140625;-1.0133819580078125;-0.03887336328625679;0.0019049590919166803;0.0065010422840714455
0.0258636474609375;0.0705718994140625;-1.0133819580078125;-0.03887336328625679;0.0019049590919166803;0.0065010422840714455
0.024810791015625;0.07086181640625;-1.0139007568359375;-0.03887336328625679;0.0019049590919166803;0.0065010422840714455
0.024810791015625;0.07086181640625;-1.0139007568359375;-0.03887336328625679;0.0019049590919166803;0.0065010422840714455
0.024810791015625;0.07086181640625;-1.0139007568359375;-0.03887336328625679;0.0019049590919166803;0.0065010422840714455
0.024810791015625;0.07086181640625;-1.0139007568359375;-0.03707493096590042;0.003948668949306011;0.0013574132462963462
0.024810791015625;0.07086181640625;-1.0139007568359375;-0.03707493096590042;0.003948668949306011;0.0013574132462963462
0.0260162353515625;0.0723876953125;-1.0142822265625;-0.03707493096590042;0.003948668949306011;0.0013574132462963462
0.0260162353515625;0.0723876953125;-1.0142822265625;-0.03707493096590042;0.003948668949306011;0.0013574132462963462
0.0260162353515625;0.0723876953125;-1.0142822265625;-0.03707493096590042;0.003948668949306011;0.0013574132462963462
0.0260162353515625;0.0723876953125;-1.0142822265625;-0.039455264806747437;0.006611830089241266;0.0017662084428593516
0.0260162353515625;0.0723876953125;-1.0142822265625;-0.039455264806747437;0.006611830089241266;0.0017662084428593516
0.026214599609375;0.07318115234375;-1.013275146484375;-0.039455264806747437;0.006611830089241266;0.0017662084428593516
0.026214599609375;0.07318115234375;-1.013275146484375;-0.039455264806747437;0.006611830089241266;0.0017662084428593516
0.026214599609375;0.07318115234375;-1.013275146484375;-0.039455264806747437;0.006611830089241266;0.0017662084428593516
0.026214599609375;0.07318115234375;-1.013275146484375;-0.046719834208488464;0.004959871061146259;-0.0012319782981649041
0.026214599609375;0.07318115234375;-1.013275146484375;-0.046719834208488464;0.004959871061146259;-0.0012319782981649041
0.0262298583984375;0.073974609375;-1.014739990234375;-0.046719834208488464;0.004959871061146259;-0.0012319782981649041
0.0262298583984375;0.073974609375;-1.014739990234375;-0.046719834208488464;0.004959871061146259;-0.0012319782981649041
0.0262298583984375;0.073974609375;-1.014739990234375;-0.046719834208488464;0.004959871061146259;-0.0012319782981649041
0.0262298583984375;0.073974609375;-1.014739990234375;-0.045531533658504486;0.005733785685151815;0.00040266994619742036
0.0262298583984375;0.073974609375;-1.014739990234375;-0.045531533658504486;0.005733785685151815;0.00040266994619742036
0.0240478515625;0.0740203857421875;-1.0142822265625;-0.045531533658504486;0.005733785685151815;0.00040266994619742036
0.0240478515625;0.0740203857421875;-1.0142822265625;-0.045531533658504486;0.005733785685151815;0.00040266994619742036
0.0240478515625;0.0740203857421875;-1.0142822265625;-0.045531533658504486;0.005733785685151815;0.00040266994619742036
0.0240478515625;0.0740203857421875;-1.0142822265625;-0.0490487702190876;0.0036096484400331974;0.0012271846644580364
0.0240478515625;0.0740203857421875;-1.0142822265625;-0.0490487702190876;0.0036096484400331974;0.0012271846644580364
0.0235748291015625;0.07421875;-1.01312255859375;-0.0490487702190876;0.0036096484400331974;0.0012271846644580364
0.0235748291015625;0.07421875;-1.01312255859375;-0.0490487702190876;0.0036096484400331974;0.0012271846644580364
0.0235748291015625;0.07421875;-1.01312255859375;-0.0490487702190876;0.0036096484400331974;0.0012271846644580364
0.0235748291015625;0.07421875;-1.01312255859375;-0.047084689140319824;0.002397643867880106;-0.0011494202772155404
0.0235748291015625;0.07421875;-1.01312255859375;-0.047084689140319824;0.002397643867880106;-0.0011494202772155404
0.022918701171875;0.076568603515625;-1.013763427734375;-0.047084689140319824;0.002397643867880106;-0.0011494202772155404
0.022918701171875;0.076568603515625;-1.013763427734375;-0.047084689140319824;0.002397643867880106;-0.0011494202772155404
0.022918701171875;0.076568603515625;-1.013763427734375;-0.047084689140319824;0.002397643867880106;-0.0011494202772155404
0.022918701171875;0.076568603515625;-1.013763427734375;-0.05145786330103874;-0.0015219965716823936;0.0022767363116145134
0.022918701171875;0.076568603515625;-1.013763427734375;-0.05145786330103874;-0.0015219965716823936;0.0022767363116145134
0.0228424072265625;0.0759124755859375;-1.013397216796875;-0.05145786330103874;-0.0015219965716823936;0.0022767363116145134
0.0228424072265625;0.0759124755859375;-1.013397216796875;-0.05145786330103874;-0.0015219965716823936;0.0022767363116145134
0.0228424072265625;0.0759124755859375;-1.013397216796875;-0.05145786330103874;-0.0015219965716823936;0.0022767363116145134
0.0228424072265625;0.0759124755859375;-1.013397216796875;-0.05727873742580414;-0.005086903925985098;0.0013025520602241158
0.0228424072265625;0.0759124755859375;-1.013397216796875;-0.05727873742580414;-0.005086903925985098;0.0013025520602241158
0.023651123046875;0.075927734375;-1.01251220703125;-0.05727873742580414;-0.005086903925985098;0.0013025520602241158
0.023651123046875;0.075927734375;-1.01251220703125;-0.05727873742580414;-0.005086903925985098;0.0013025520602241158
0.023651123046875;0.075927734375;-1.01251220703125;-0.05727873742580414;-0.005086903925985098;0.0013025520602241158
0.023651123046875;0.075927734375;-1.01251220703125;-0.06531642377376556;-0.0065713501535356045;0.004116448108106852
0.023651123046875;0.075927734375;-1.01251220703125;-0.06531642377376556;-0.0065713501535356045;0.004116448108106852
0.02447509765625;0.077850341796875;-1.0123138427734375;-0.06531642377376556;-0.0065713501535356045;0.004116448108106852
0.02447509765625;0.077850341796875;-1.0123138427734375;-0.06531642377376556;-0.0065713501535356045;0.004116448108106852
0.02447509765625;0.077850341796875;-1.0123138427734375;-0.06531642377376556;-0.0065713501535356045;0.004116448108106852
0.02447509765625;0.077850341796875;-1.0123138427734375;-0.0747607871890068;-0.0015699334908276796;-0.0010186590952798724
0.02447509765625;0.077850341796875;-1.0123138427734375;-0.0747607871890068;-0.0015699334908276796;-0.0010186590952798724
0.0239410400390625;0.07989501953125;-1.00775146484375;-0.0747607871890068;-0.0015699334908276796;-0.0010186590952798724
0.0239410400390625;0.07989501953125;-1.00775146484375;-0.0747607871890068;-0.0015699334908276796;-0.0010186590952798724
0.0239410400390625;0.07989501953125;-1.00775146484375;-0.0747607871890068;-0.0015699334908276796;-0.0010186590952798724
0.0239410400390625;0.07989501953125;-1.00775146484375;-0.08756367117166519;0.0022029669489711523;0.0011622034944593906
0.0239410400390625;0.07989501953125;-1.00775146484375;-0.08756367117166519;0.0022029669489711523;0.0011622034944593906
0.02288818359375;0.080841064453125;-1.006072998046875;-0.08756367117166519;0.0022029669489711523;0.0011622034944593906
0.02288818359375;0.080841064453125;-1.006072998046875;-0.08756367117166519;0.0022029669489711523;0.0011622034944593906
0.02288818359375;0.080841064453125;-1.006072998046875;-0.08756367117166519;0.0022029669489711523;0.0011622034944593906
0.02288818359375;0.080841064453125;-1.006072998046875;-0.09204284101724625;-0.0003278351214248687;-0.00047857005847617984
0.02288818359375;0.080841064453125;-1.006072998046875;-0.09204284101724625;-0.0003278351214248687;-0.00047857005847617984
0.0238800048828125;0.08294677734375;-1.0077362060546875;-0.09204284101724625;-0.0003278351214248687;-0.00047857005847617984
0.0238800048828125;0.08294677734375;-1.0077362060546875;-0.09204284101724625;-0.0003278351214248687;-0.00047857005847617984
0.0238800048828125;0.08294677734375;-1.0077362060546875;-0.09204284101724625;-0.0003278351214248687;-0.00047857005847617984
0.0238800048828125;0.08294677734375;-1.0077362060546875;-0.09144096821546555;0.0010426276130601764;0.000853809411637485
0.0238800048828125;0.08294677734375;-1.0077362060546875;-0.09144096821546555;0.0010426276130601764;0.000853809411637485
0.025115966796875;0.0847625732421875;-1.008270263671875;-0.09144096821546555;0.0010426276130601764;0.000853809411637485
0.025115966796875;0.0847625732421875;-1.008270263671875;-0.09144096821546555;0.0010426276130601764;0.000853809411637485
0.025115966796875;0.0847625732421875;-1.008270263671875;-0.09144096821546555;0.0010426276130601764;0.000853809411637485
0.025115966796875;0.0847625732421875;-1.008270263671875;-0.08032733201980591;0.004822452086955309;0.0034762241411954165
0.025115966796875;0.0847625732421875;-1.008270263671875;-0.08032733201980591;0.004822452086955309;0.0034762241411954165
0.0264434814453125;0.0861053466796875;-1.0085296630859375;-0.08032733201980591;0.004822452086955309;0.0034762241411954165
0.0264434814453125;0.0861053466796875;-1.0085296630859375;-0.08032733201980591;0.004822452086955309;0.0034762241411954165
0.0264434814453125;0.0861053466796875;-1.0085296630859375;-0.08032733201980591;0.004822452086955309;0.0034762241411954165
0.0264434814453125;0.0861053466796875;-1.0085296630859375;-0.06896841526031494;0.005063201766461134;0.005400091875344515
0.0264434814453125;0.0861053466796875;-1.0085296630859375;-0.06896841526031494;0.005063201766461134;0.005400091875344515
0.025665283203125;0.0885772705078125;-1.0098419189453125;-0.06896841526031494;0.005063201766461134;0.005400091875344515
0.025665283203125;0.0885772705078125;-1.0098419189453125;-0.06896841526031494;0.005063201766461134;0.005400091875344515
0.025665283203125;0.0885772705078125;-1.0098419189453125;-0.06896841526031494;0.005063201766461134;0.005400091875344515
0.025665283203125;0.0885772705078125;-1.0098419189453125;-0.05892163887619972;0.006783603690564632;0.004505003336817026
0.025665283203125;0.0885772705078125;-1.0098419189453125;-0.05892163887619972;0.006783603690564632;0.004505003336817026
0.0245819091796875;0.088409423828125;-1.0054168701171875;-0.05892163887619972;0.006783603690564632;0.004505003336817026
0.0245819091796875;0.088409423828125;-1.0054168701171875;-0.05892163887619972;0.006783603690564632;0.004505003336817026
0.0245819091796875;0.088409423828125;-1.0054168701171875;-0.05892163887619972;0.006783603690564632;0.004505003336817026
0.0245819091796875;0.088409423828125;-1.0054168701171875;-0.04981709271669388;0.003090598387643695;0.0033574472181499004
0.0245819091796875;0.088409423828125;-1.0054168701171875;-0.04981709271669388;0.003090598387643695;0.0033574472181499004
0.02313232421875;0.0874176025390625;-1.0021209716796875;-0.04981709271669388;0.003090598387643695;0.0033574472181499004
0.02313232421875;0.0874176025390625;-1.0021209716796875;-0.04981709271669388;0.003090598387643695;0.0033574472181499004
0.02313232421875;0.0874176025390625;-1.0021209716796875;-0.04981709271669388;0.003090598387643695;0.0033574472181499004
0.02313232421875;0.0874176025390625;-1.0021209716796875;-0.03376462310552597;-0.006392118986696005;0.005441637244075537
0.02313232421875;0.0874176025390625;-1.0021209716796875;-0.03376462310552597;-0.006392118986696005;0.005441637244075537
0.0211334228515625;0.087890625;-1.0078887939453125;-0.03376462310552597;-0.006392118986696005;0.005441637244075537
0.0211334228515625;0.087890625;-1.0078887939453125;-0.03376462310552597;-0.006392118986696005;0.005441637244075537
0.0211334228515625;0.087890625;-1.0078887939453125;-0.03376462310552597;-0.006392118986696005;0.005441637244075537
0.0211334228515625;0.087890625;-1.0078887939453125;-0.02394501306116581;-0.0038336203433573246;0.0057620154693722725
0.0211334228515625;0.087890625;-1.0078887939453125;-0.02394501306116581;-0.0038336203433573246;0.0057620154693722725
0.0211181640625;0.0880279541015625;-1.0103759765625;-0.02394501306116581;-0.0038336203433573246;0.0057620154693722725
0.0211181640625;0.0880279541015625;-1.0103759765625;-0.02394501306116581;-0.0038336203433573246;0.0057620154693722725
0.0211181640625;0.0880279541015625;-1.0103759765625;-0.02100461721420288;-0.005160140804946423;0.006755907088518143
0.0211181640625;0.0880279541015625;-1.0103759765625;-0.02100461721420288;-0.005160140804946423;0.006755907088518143
0.0211181640625;0.0880279541015625;-1.0103759765625;-0.02100461721420288;-0.005160140804946423;0.006755907088518143
0.023651123046875;0.0868377685546875;-1.0062255859375;-0.02100461721420288;-0.005160140804946423;0.006755907088518143
0.023651123046875;0.0868377685546875;-1.0062255859375;-0.02100461721420288;-0.005160140804946423;0.006755907088518143
0.023651123046875;0.0868377685546875;-1.0062255859375;-0.02100461721420288;-0.005160140804946423;0.006755907088518143
0.023651123046875;0.0868377685546875;-1.0062255859375;-0.008371113799512386;-0.0003384877636563033;0.007360710762441158
0.023651123046875;0.0868377685546875;-1.0062255859375;-0.008371113799512386;-0.0003384877636563033;0.007360710762441158
0.0247802734375;0.087554931640625;-1.0053558349609375;-0.008371113799512386;-0.0003384877636563033;0.007360710762441158
0.0247802734375;0.087554931640625;-1.0053558349609375;-0.008371113799512386;-0.0003384877636563033;0.007360710762441158
0.0247802734375;0.087554931640625;-1.0053558349609375;0.005597964394837618;0.0008000136003829539;0.008162056095898151
0.0247802734375;0.087554931640625;-1.0053558349609375;0.005597964394837618;0.0008000136003829539;0.008162056095898151
0.0247802734375;0.087554931640625;-1.0053558349609375;0.005597964394837618;0.0008000136003829539;0.008162056095898151
0.025360107421875;0.0872039794921875;-1.00958251953125;0.005597964394837618;0.0008000136003829539;0.008162056095898151
0.025360107421875;0.0872039794921875;-1.00958251953125;0.005597964394837618;0.0008000136003829539;0.008162056095898151
0.025360107421875;0.0872039794921875;-1.00958251953125;0.004487426485866308;0.011640677228569984;0.011547466740012169
0.025360107421875;0.0872039794921875;-1.00958251953125;0.004487426485866308;0.011640677228569984;0.011547466740012169
0.025360107421875;0.0872039794921875;-1.00958251953125;0.004487426485866308;0.011640677228569984;0.011547466740012169
0.028228759765625;0.0867767333984375;-1.004547119140625;0.004487426485866308;0.011640677228569984;0.011547466740012169
0.028228759765625;0.0867767333984375;-1.004547119140625;0.004487426485866308;0.011640677228569984;0.011547466740012169
0.028228759765625;0.0867767333984375;-1.004547119140625;-0.006886668037623167;0.016640761867165565;0.008538360707461834
0.028228759765625;0.0867767333984375;-1.004547119140625;-0.006886668037623167;0.016640761867165565;0.008538360707461834
0.028228759765625;0.0867767333984375;-1.004547119140625;-0.006886668037623167;0.016640761867165565;0.008538360707461834
0.028839111328125;0.086029052734375;-0.99468994140625;-0.006886668037623167;0.016640761867165565;0.008538360707461834
0.028839111328125;0.086029052734375;-0.99468994140625;-0.006886668037623167;0.016640761867165565;0.008538360707461834
0.028839111328125;0.086029052734375;-0.99468994140625;-0.00395825644955039;0.01110218558460474;0.006708502769470215
0.028839111328125;0.086029052734375;-0.99468994140625;-0.00395825644955039;0.01110218558460474;0.006708502769470215
0.028839111328125;0.086029052734375;-0.99468994140625;-0.00395825644955039;0.01110218558460474;0.006708502769470215
0.0259246826171875;0.086181640625;-1.0004730224609375;-0.00395825644955039;0.01110218558460474;0.006708502769470215
0.0259246826171875;0.086181640625;-1.0004730224609375;-0.00395825644955039;0.01110218558460474;0.006708502769470215
0.0259246826171875;0.086181640625;-1.0004730224609375;0.022364428266882896;0.0007084008539095521;0.0033606430515646935
0.0259246826171875;0.086181640625;-1.0004730224609375;0.022364428266882896;0.0007084008539095521;0.0033606430515646935
0.0259246826171875;0.086181640625;-1.0004730224609375;0.022364428266882896;0.0007084008539095521;0.0033606430515646935
0.0222320556640625;0.088623046875;-1.0131378173828125;0.022364428266882896;0.0007084008539095521;0.0033606430515646935
0.0222320556640625;0.088623046875;-1.0131378173828125;0.022364428266882896;0.0007084008539095521;0.0033606430515646935
0.0222320556640625;0.088623046875;-1.0131378173828125;0.039024099707603455;-0.01991352066397667;0.00021944446780253202
0.0222320556640625;0.088623046875;-1.0131378173828125;0.039024099707603455;-0.01991352066397667;0.00021944446780253202
0.0196685791015625;0.0875701904296875;-1.0155029296875;0.039024099707603455;-0.01991352066397667;0.00021944446780253202
0.0196685791015625;0.0875701904296875;-1.0155029296875;0.039024099707603455;-0.01991352066397667;0.00021944446780253202
0.0196685791015625;0.0875701904296875;-1.0155029296875;0.046784017235040665;-0.019903933629393578;0.005711948033422232
0.0196685791015625;0.0875701904296875;-1.0155029296875;0.046784017235040665;-0.019903933629393578;0.005711948033422232
0.022491455078125;0.085723876953125;-1.0088653564453125;0.046784017235040665;-0.019903933629393578;0.005711948033422232
0.022491455078125;0.085723876953125;-1.0088653564453125;0.046784017235040665;-0.019903933629393578;0.005711948033422232
0.022491455078125;0.085723876953125;-1.0088653564453125;0.046784017235040665;-0.019903933629393578;0.005711948033422232
0.022491455078125;0.085723876953125;-1.0088653564453125;0.047157127410173416;-0.01055996585637331;0.008390022441744804
0.022491455078125;0.085723876953125;-1.0088653564453125;0.047157127410173416;-0.01055996585637331;0.008390022441744804
0.0248870849609375;0.085662841796875;-1.0003204345703125;0.047157127410173416;-0.01055996585637331;0.008390022441744804
0.0248870849609375;0.085662841796875;-1.0003204345703125;0.047157127410173416;-0.01055996585637331;0.008390022441744804
0.0248870849609375;0.085662841796875;-1.0003204345703125;0.047157127410173416;-0.01055996585637331;0.008390022441744804
0.0248870849609375;0.085662841796875;-1.0003204345703125;0.044013530015945435;-0.00911653321236372;0.00993305817246437
0.0248870849609375;0.085662841796875;-1.0003204345703125;0.044013530015945435;-0.00911653321236372;0.00993305817246437
0.0248260498046875;0.0830841064453125;-0.9992828369140625;0.044013530015945435;-0.00911653321236372;0.00993305817246437
0.0248260498046875;0.0830841064453125;-0.9992828369140625;0.044013530015945435;-0.00911653321236372;0.00993305817246437
0.0248260498046875;0.0830841064453125;-0.9992828369140625;0.044013530015945435;-0.00911653321236372;0.00993305817246437
0.0248260498046875;0.0830841064453125;-0.9992828369140625;0.04405694082379341;-0.008406001143157482;0.01450171135365963
0.0248260498046875;0.0830841064453125;-0.9992828369140625;0.04405694082379341;-0.008406001143157482;0.01450171135365963
0.0252532958984375;0.0809478759765625;-0.9985809326171875;0.04405694082379341;-0.008406001143157482;0.01450171135365963
0.0252532958984375;0.0809478759765625;-0.9985809326171875;0.04405694082379341;-0.008406001143157482;0.01450171135365963
0.0252532958984375;0.0809478759765625;-0.9985809326171875;0.04405694082379341;-0.008406001143157482;0.01450171135365963
0.0252532958984375;0.0809478759765625;-0.9985809326171875;0.05528855696320534;-0.002603239845484495;0.013666011393070221
0.0252532958984375;0.0809478759765625;-0.9985809326171875;0.05528855696320534;-0.002603239845484495;0.013666011393070221
0.026885986328125;0.0785369873046875;-0.9989166259765625;0.05528855696320534;-0.002603239845484495;0.013666011393070221
0.026885986328125;0.0785369873046875;-0.9989166259765625;0.05528855696320534;-0.002603239845484495;0.013666011393070221
0.026885986328125;0.0785369873046875;-0.9989166259765625;0.05528855696320534;-0.002603239845484495;0.013666011393070221
0.026885986328125;0.0785369873046875;-0.9989166259765625;0.07590621709823608;-0.009673399850726128;0.014821556396782398
0.026885986328125;0.0785369873046875;-0.9989166259765625;0.07590621709823608;-0.009673399850726128;0.014821556396782398
0.027801513671875;0.076995849609375;-1.009521484375;0.07590621709823608;-0.009673399850726128;0.014821556396782398
0.027801513671875;0.076995849609375;-1.009521484375;0.07590621709823608;-0.009673399850726128;0.014821556396782398
0.027801513671875;0.076995849609375;-1.009521484375;0.07590621709823608;-0.009673399850726128;0.014821556396782398
0.027801513671875;0.076995849609375;-1.009521484375;0.10109705477952957;-0.017062606289982796;0.011025220155715942
0.027801513671875;0.076995849609375;-1.009521484375;0.10109705477952957;-0.017062606289982796;0.011025220155715942
0.0276336669921875;0.07427978515625;-1.022186279296875;0.10109705477952957;-0.017062606289982796;0.011025220155715942
0.0276336669921875;0.07427978515625;-1.022186279296875;0.10109705477952957;-0.017062606289982796;0.011025220155715942
0.0276336669921875;0.07427978515625;-1.022186279296875;0.10109705477952957;-0.017062606289982796;0.011025220155715942
0.0276336669921875;0.07427978515625;-1.022186279296875;0.10467101633548737;-0.01446842122823;0.006127400789409876
0.0276336669921875;0.07427978515625;-1.022186279296875;0.10467101633548737;-0.01446842122823;0.006127400789409876
0.0274200439453125;0.07293701171875;-1.0220184326171875;0.10467101633548737;-0.01446842122823;0.006127400789409876
0.0274200439453125;0.07293701171875;-1.0220184326171875;0.10467101633548737;-0.01446842122823;0.006127400789409876
0.0274200439453125;0.07293701171875;-1.0220184326171875;0.10467101633548737;-0.01446842122823;0.006127400789409876
0.0274200439453125;0.07293701171875;-1.0220184326171875;0.08980205655097961;-0.00911786500364542;0.003799265483394265
0.0274200439453125;0.07293701171875;-1.0220184326171875;0.08980205655097961;-0.00911786500364542;0.003799265483394265
0.025848388671875;0.0709075927734375;-1.0146026611328125;0.08980205655097961;-0.00911786500364542;0.003799265483394265
0.025848388671875;0.0709075927734375;-1.0146026611328125;0.08980205655097961;-0.00911786500364542;0.003799265483394265
0.025848388671875;0.0709075927734375;-1.0146026611328125;0.08980205655097961;-0.00911786500364542;0.003799265483394265
0.025848388671875;0.0709075927734375;-1.0146026611328125;0.06992342323064804;-0.007689611054956913;0.0004926847759634256
0.025848388671875;0.0709075927734375;-1.0146026611328125;0.06992342323064804;-0.007689611054956913;0.0004926847759634256
0.0255584716796875;0.0675048828125;-1.011322021484375;0.06992342323064804;-0.007689611054956913;0.0004926847759634256
0.0255584716796875;0.0675048828125;-1.011322021484375;0.06992342323064804;-0.007689611054956913;0.0004926847759634256
0.0255584716796875;0.0675048828125;-1.011322021484375;0.06992342323064804;-0.007689611054956913;0.0004926847759634256
0.0255584716796875;0.0675048828125;-1.011322021484375;0.04224652424454689;-0.002883404493331909;-0.0038274950347840786
0.0255584716796875;0.0675048828125;-1.011322021484375;0.04224652424454689;-0.002883404493331909;-0.0038274950347840786
0.025970458984375;0.0670623779296875;-1.0097503662109375;0.04224652424454689;-0.002883404493331909;-0.0038274950347840786
0.025970458984375;0.0670623779296875;-1.0097503662109375;0.04224652424454689;-0.002883404493331909;-0.0038274950347840786
0.025970458984375;0.0670623779296875;-1.0097503662109375;0.04224652424454689;-0.002883404493331909;-0.0038274950347840786
0.025970458984375;0.0670623779296875;-1.0097503662109375;0.017361413687467575;-0.00493244081735611;-0.0046906257048249245
0.025970458984375;0.0670623779296875;-1.0097503662109375;0.017361413687467575;-0.00493244081735611;-0.0046906257048249245
0.02569580078125;0.06915283203125;-1.0091400146484375;0.017361413687467575;-0.00493244081735611;-0.0046906257048249245
0.02569580078125;0.06915283203125;-1.0091400146484375;0.017361413687467575;-0.00493244081735611;-0.0046906257048249245
0.02569580078125;0.06915283203125;-1.0091400146484375;0.017361413687467575;-0.00493244081735611;-0.0046906257048249245
0.02569580078125;0.06915283203125;-1.0091400146484375;-0.005395564250648022;0.0015779229579493403;-0.004461593925952911
0.02569580078125;0.06915283203125;-1.0091400146484375;-0.005395564250648022;0.0015779229579493403;-0.004461593925952911
0.02545166015625;0.07574462890625;-1.00634765625;-0.005395564250648022;0.0015779229579493403;-0.004461593925952911
0.02545166015625;0.07574462890625;-1.00634765625;-0.005395564250648022;0.0015779229579493403;-0.004461593925952911
0.02545166015625;0.07574462890625;-1.00634765625;-0.005395564250648022;0.0015779229579493403;-0.004461593925952911
0.02545166015625;0.07574462890625;-1.00634765625;-0.00965742114931345;0.006771087180823088;-0.0054602790623903275
0.02545166015625;0.07574462890625;-1.00634765625;-0.00965742114931345;0.006771087180823088;-0.0054602790623903275
0.0254058837890625;0.082275390625;-1.0052337646484375;-0.00965742114931345;0.006771087180823088;-0.0054602790623903275
0.0254058837890625;0.082275390625;-1.0052337646484375;-0.00965742114931345;0.006771087180823088;-0.0054602790623903275
0.0254058837890625;0.082275390625;-1.0052337646484375;-0.00965742114931345;0.006771087180823088;-0.0054602790623903275
0.0254058837890625;0.082275390625;-1.0052337646484375;-0.008026501163840294;0.01025636587291956;-0.0065407236106693745
0.0254058837890625;0.082275390625;-1.0052337646484375;-0.008026501163840294;0.01025636587291956;-0.0065407236106693745
0.02447509765625;0.0863494873046875;-1.006866455078125;-0.008026501163840294;0.01025636587291956;-0.0065407236106693745
0.02447509765625;0.0863494873046875;-1.006866455078125;-0.008026501163840294;0.01025636587291956;-0.0065407236106693745
0.02447509765625;0.0863494873046875;-1.006866455078125;-0.008026501163840294;0.01025636587291956;-0.0065407236106693745
0.02447509765625;0.0863494873046875;-1.006866455078125;0.0011699266033247113;0.008027566596865654;-0.004751878324896097
0.02447509765625;0.0863494873046875;-1.006866455078125;0.0011699266033247113;0.008027566596865654;-0.004751878324896097
0.0235443115234375;0.0891876220703125;-1.0081024169921875;0.0011699266033247113;0.008027566596865654;-0.004751878324896097
0.0235443115234375;0.0891876220703125;-1.0081024169921875;0.0011699266033247113;0.008027566596865654;-0.004751878324896097
0.0235443115234375;0.0891876220703125;-1.0081024169921875;0.0011699266033247113;0.008027566596865654;-0.004751878324896097
0.0235443115234375;0.0891876220703125;-1.0081024169921875;0.012524580582976341;0.012441489845514297;-0.0021558289881795645
0.0235443115234375;0.0891876220703125;-1.0081024169921875;0.012524580582976341;0.012441489845514297;-0.0021558289881795645
0.023834228515625;0.09027099609375;-1.0080108642578125;0.012524580582976341;0.012441489845514297;-0.0021558289881795645
0.023834228515625;0.09027099609375;-1.0080108642578125;0.012524580582976341;0.012441489845514297;-0.0021558289881795645
0.023834228515625;0.09027099609375;-1.0080108642578125;0.012524580582976341;0.012441489845514297;-0.0021558289881795645
0.023834228515625;0.09027099609375;-1.0080108642578125;0.022294653579592705;0.01070883683860302;-0.00041012681322172284
0.023834228515625;0.09027099609375;-1.0080108642578125;0.022294653579592705;0.01070883683860302;-0.00041012681322172284
0.02313232421875;0.0886688232421875;-1.0092010498046875;0.022294653579592705;0.01070883683860302;-0.00041012681322172284
0.02313232421875;0.0886688232421875;-1.0092010498046875;0.022294653579592705;0.01070883683860302;-0.00041012681322172284
0.02313232421875;0.0886688232421875;-1.0092010498046875;0.022294653579592705;0.01070883683860302;-0.00041012681322172284
0.02313232421875;0.0886688232421875;-1.0092010498046875;0.02888571098446846;0.008123706094920635;0.00017550231132190675
0.02313232421875;0.0886688232421875;-1.0092010498046875;0.02888571098446846;0.008123706094920635;0.00017550231132190675
0.023040771484375;0.0863494873046875;-1.0087738037109375;0.02888571098446846;0.008123706094920635;0.00017550231132190675
0.023040771484375;0.0863494873046875;-1.0087738037109375;0.02888571098446846;0.008123706094920635;0.00017550231132190675
0.023040771484375;0.0863494873046875;-1.0087738037109375;0.02888571098446846;0.008123706094920635;0.00017550231132190675
0.023040771484375;0.0863494873046875;-1.0087738037109375;0.0334588922560215;0.005883721634745598;0.0022690133191645145
0.023040771484375;0.0863494873046875;-1.0087738037109375;0.0334588922560215;0.005883721634745598;0.0022690133191645145
0.0236968994140625;0.0851593017578125;-1.0090484619140625;0.0334588922560215;0.005883721634745598;0.0022690133191645145
0.0236968994140625;0.0851593017578125;-1.0090484619140625;0.0334588922560215;0.005883721634745598;0.0022690133191645145
0.0236968994140625;0.0851593017578125;-1.0090484619140625;0.0334588922560215;0.005883721634745598;0.0022690133191645145
0.0236968994140625;0.0851593017578125;-1.0090484619140625;0.03923502191901207;0.003781422507017851;0.004321511369198561
0.0236968994140625;0.0851593017578125;-1.0090484619140625;0.03923502191901207;0.003781422507017851;0.004321511369198561
0.0240631103515625;0.0829620361328125;-1.0096435546875;0.03923502191901207;0.003781422507017851;0.004321511369198561
0.0240631103515625;0.0829620361328125;-1.0096435546875;0.03923502191901207;0.003781422507017851;0.004321511369198561
0.0240631103515625;0.0829620361328125;-1.0096435546875;0.03923502191901207;0.003781422507017851;0.004321511369198561
0.0240631103515625;0.0829620361328125;-1.0096435546875;0.04357171058654785;-0.0017014936311170459;0.0057494984939694405
0.0240631103515625;0.0829620361328125;-1.0096435546875;0.04357171058654785;-0.0017014936311170459;0.0057494984939694405
0.0253143310546875;0.0812835693359375;-1.0099029541015625;0.04357171058654785;-0.0017014936311170459;0.0057494984939694405
0.0253143310546875;0.0812835693359375;-1.0099029541015625;0.04357171058654785;-0.0017014936311170459;0.0057494984939694405
0.0253143310546875;0.0812835693359375;-1.0099029541015625;0.04357171058654785;-0.0017014936311170459;0.0057494984939694405
0.0253143310546875;0.0812835693359375;-1.0099029541015625;0.054420098662376404;-0.003896470880135894;0.004656270612031221
0.0253143310546875;0.0812835693359375;-1.0099029541015625;0.054420098662376404;-0.003896470880135894;0.004656270612031221
0.0279083251953125;0.0801849365234375;-1.00762939453125;0.054420098662376404;-0.003896470880135894;0.004656270612031221
0.0279083251953125;0.0801849365234375;-1.00762939453125;0.054420098662376404;-0.003896470880135894;0.004656270612031221
0.0279083251953125;0.0801849365234375;-1.00762939453125;0.054420098662376404;-0.003896470880135894;0.004656270612031221
0.0279083251953125;0.0801849365234375;-1.00762939453125;0.06920463591814041;-0.003942277282476425;0.005625661462545395
0.0279083251953125;0.0801849365234375;-1.00762939453125;0.06920463591814041;-0.003942277282476425;0.005625661462545395
0.0272674560546875;0.0779266357421875;-1.0062103271484375;0.06920463591814041;-0.003942277282476425;0.005625661462545395
0.0272674560546875;0.0779266357421875;-1.0062103271484375;0.06920463591814041;-0.003942277282476425;0.005625661462545395
0.0272674560546875;0.0779266357421875;-1.0062103271484375;0.06920463591814041;-0.003942277282476425;0.005625661462545395
0.0272674560546875;0.0779266357421875;-1.0062103271484375;0.07642526924610138;-0.005406483076512814;0.0073593794368207455
0.0272674560546875;0.0779266357421875;-1.0062103271484375;0.07642526924610138;-0.005406483076512814;0.0073593794368207455
0.02783203125;0.0772247314453125;-1.0071563720703125;0.07642526924610138;-0.005406483076512814;0.0073593794368207455
0.02783203125;0.0772247314453125;-1.0071563720703125;0.07642526924610138;-0.005406483076512814;0.0073593794368207455
0.02783203125;0.0772247314453125;-1.0071563720703125;0.07642526924610138;-0.005406483076512814;0.0073593794368207455
0.02783203125;0.0772247314453125;-1.0071563720703125;0.09146679937839508;-0.0028788771014660597;0.004833637271076441
0.02783203125;0.0772247314453125;-1.0071563720703125;0.09146679937839508;-0.0028788771014660597;0.004833637271076441
0.027374267578125;0.0735626220703125;-1.0081634521484375;0.09146679937839508;-0.0028788771014660597;0.004833637271076441
0.027374267578125;0.0735626220703125;-1.0081634521484375;0.09146679937839508;-0.0028788771014660597;0.004833637271076441
0.027374267578125;0.0735626220703125;-1.0081634521484375;0.09146679937839508;-0.0028788771014660597;0.004833637271076441
0.027374267578125;0.0735626220703125;-1.0081634521484375;0.09435579925775528;-0.0013177321525290608;0.002195776207372546
0.027374267578125;0.0735626220703125;-1.0081634521484375;0.09435579925775528;-0.0013177321525290608;0.002195776207372546
0.024169921875;0.071380615234375;-1.008392333984375;0.09435579925775528;-0.0013177321525290608;0.002195776207372546
0.024169921875;0.071380615234375;-1.008392333984375;0.09435579925775528;-0.0013177321525290608;0.002195776207372546
0.024169921875;0.071380615234375;-1.008392333984375;0.09435579925775528;-0.0013177321525290608;0.002195776207372546
0.024169921875;0.071380615234375;-1.008392333984375;0.09773082286119461;-0.000441818410763517;0.0031787490006536245
0.024169921875;0.071380615234375;-1.008392333984375;0.09773082286119461;-0.000441818410763517;0.0031787490006536245
0.024261474609375;0.0700531005859375;-1.0093994140625;0.09773082286119461;-0.000441818410763517;0.0031787490006536245
0.024261474609375;0.0700531005859375;-1.0093994140625;0.09773082286119461;-0.000441818410763517;0.0031787490006536245
0.024261474609375;0.0700531005859375;-1.0093994140625;0.09773082286119461;-0.000441818410763517;0.0031787490006536245
0.024261474609375;0.0700531005859375;-1.0093994140625;0.09361330419778824;-0.003549993736669421;0.0003936151915695518
0.024261474609375;0.0700531005859375;-1.0093994140625;0.09361330419778824;-0.003549993736669421;0.0003936151915695518
0.0233306884765625;0.0687103271484375;-1.00799560546875;0.09361330419778824;-0.003549993736669421;0.0003936151915695518
0.0233306884765625;0.0687103271484375;-1.00799560546875;0.09361330419778824;-0.003549993736669421;0.0003936151915695518
0.0233306884765625;0.0687103271484375;-1.00799560546875;0.09361330419778824;-0.003549993736669421;0.0003936151915695518
0.0233306884765625;0.0687103271484375;-1.00799560546875;0.08552581816911697;-0.004826180636882782;0.001318264752626419
0.0233306884765625;0.0687103271484375;-1.00799560546875;0.08552581816911697;-0.004826180636882782;0.001318264752626419
0.02276611328125;0.0677490234375;-1.0105743408203125;0.08552581816911697;-0.004826180636882782;0.001318264752626419
0.02276611328125;0.0677490234375;-1.0105743408203125;0.08552581816911697;-0.004826180636882782;0.001318264752626419
0.02276611328125;0.0677490234375;-1.0105743408203125;0.08552581816911697;-0.004826180636882782;0.001318264752626419
0.02276611328125;0.0677490234375;-1.0105743408203125;0.06851141899824142;-0.004890895448625088;0.002546514617279172
0.02276611328125;0.0677490234375;-1.0105743408203125;0.06851141899824142;-0.004890895448625088;0.002546514617279172
0.0230865478515625;0.06689453125;-1.013671875;0.06851141899824142;-0.004890895448625088;0.002546514617279172
0.0230865478515625;0.06689453125;-1.013671875;0.06851141899824142;-0.004890895448625088;0.002546514617279172
0.0230865478515625;0.06689453125;-1.013671875;0.06851141899824142;-0.004890895448625088;0.002546514617279172
0.0230865478515625;0.06689453125;-1.013671875;0.04020840674638748;-0.007453921716660261;0.0018663433147594333
0.0230865478515625;0.06689453125;-1.013671875;0.04020840674638748;-0.007453921716660261;0.0018663433147594333
0.022216796875;0.06658935546875;-1.010650634765625;0.04020840674638748;-0.007453921716660261;0.0018663433147594333
0.022216796875;0.06658935546875;-1.010650634765625;0.04020840674638748;-0.007453921716660261;0.0018663433147594333
0.022216796875;0.06658935546875;-1.010650634765625;0.04020840674638748;-0.007453921716660261;0.0018663433147594333
0.022216796875;0.06658935546875;-1.010650634765625;0.007200655061751604;-0.003968908917158842;0.005280782002955675
0.022216796875;0.06658935546875;-1.010650634765625;0.007200655061751604;-0.003968908917158842;0.005280782002955675
0.0211181640625;0.066009521484375;-1.003814697265625;0.007200655061751604;-0.003968908917158842;0.005280782002955675
0.0211181640625;0.066009521484375;-1.003814697265625;0.007200655061751604;-0.003968908917158842;0.005280782002955675
0.0211181640625;0.066009521484375;-1.003814697265625;0.007200655061751604;-0.003968908917158842;0.005280782002955675
0.0211181640625;0.066009521484375;-1.003814697265625;-0.016942497342824936;0.007517304737120867;0.005344165489077568
0.0211181640625;0.066009521484375;-1.003814697265625;-0.016942497342824936;0.007517304737120867;0.005344165489077568
0.022735595703125;0.062896728515625;-0.997161865234375;-0.016942497342824936;0.007517304737120867;0.005344165489077568
0.022735595703125;0.062896728515625;-0.997161865234375;-0.016942497342824936;0.007517304737120867;0.005344165489077568
0.022735595703125;0.062896728515625;-0.997161865234375;-0.016942497342824936;0.007517304737120867;0.005344165489077568
0.022735595703125;0.062896728515625;-0.997161865234375;-0.01398718822747469;0.006339654792100191;0.008361793123185635
0.022735595703125;0.062896728515625;-0.997161865234375;-0.01398718822747469;0.006339654792100191;0.008361793123185635
0.022979736328125;0.0628509521484375;-1.002960205078125;-0.01398718822747469;0.006339654792100191;0.008361793123185635
0.022979736328125;0.0628509521484375;-1.002960205078125;-0.01398718822747469;0.006339654792100191;0.008361793123185635
0.022979736328125;0.0628509521484375;-1.002960205078125;0.0036187032237648964;0.004089550115168095;0.008341020904481411
0.022979736328125;0.0628509521484375;-1.002960205078125;0.0036187032237648964;0.004089550115168095;0.008341020904481411
0.022979736328125;0.0628509521484375;-1.002960205078125;0.0036187032237648964;0.004089550115168095;0.008341020904481411
0.0250091552734375;0.0632476806640625;-1.014678955078125;0.0036187032237648964;0.004089550115168095;0.008341020904481411
0.0250091552734375;0.0632476806640625;-1.014678955078125;0.0036187032237648964;0.004089550115168095;0.008341020904481411
0.0250091552734375;0.0632476806640625;-1.014678955078125;0.01641998626291752;0.00782596506178379;0.010838000103831291
0.0250091552734375;0.0632476806640625;-1.014678955078125;0.01641998626291752;0.00782596506178379;0.010838000103831291
0.0250091552734375;0.0632476806640625;-1.014678955078125;0.01641998626291752;0.00782596506178379;0.010838000103831291
0.02618408203125;0.064422607421875;-1.016326904296875;0.01641998626291752;0.00782596506178379;0.010838000103831291
0.02618408203125;0.064422607421875;-1.016326904296875;0.01641998626291752;0.00782596506178379;0.010838000103831291
0.02618408203125;0.064422607421875;-1.016326904296875;0.03308232128620148;0.008794290944933891;0.012259596027433872
0.02618408203125;0.064422607421875;-1.016326904296875;0.03308232128620148;0.008794290944933891;0.012259596027433872
0.02618408203125;0.064422607421875;-1.016326904296875;0.03308232128620148;0.008794290944933891;0.012259596027433872
0.0253753662109375;0.06494140625;-1.013702392578125;0.03308232128620148;0.008794290944933891;0.012259596027433872
0.0253753662109375;0.06494140625;-1.013702392578125;0.03308232128620148;0.008794290944933891;0.012259596027433872
0.0253753662109375;0.06494140625;-1.013702392578125;0.049255430698394775;0.005939914379268885;0.010526410304009914
0.0253753662109375;0.06494140625;-1.013702392578125;0.049255430698394775;0.005939914379268885;0.010526410304009914
0.0249786376953125;0.0650482177734375;-1.018096923828125;0.049255430698394775;0.005939914379268885;0.010526410304009914
0.0249786376953125;0.0650482177734375;-1.018096923828125;0.049255430698394775;0.005939914379268885;0.010526410304009914
0.0249786376953125;0.0650482177734375;-1.018096923828125;0.049255430698394775;0.005939914379268885;0.010526410304009914
0.0249786376953125;0.0650482177734375;-1.018096923828125;0.06240372359752655;0.0009954896522685885;0.007367635145783424
0.0249786376953125;0.0650482177734375;-1.018096923828125;0.06240372359752655;0.0009954896522685885;0.007367635145783424
0.0249786376953125;0.0650482177734375;-1.018096923828125;0.06240372359752655;0.0009954896522685885;0.007367635145783424
0.0239105224609375;0.06396484375;-1.0203399658203125;0.06240372359752655;0.0009954896522685885;0.007367635145783424
0.0239105224609375;0.06396484375;-1.0203399658203125;0.06240372359752655;0.0009954896522685885;0.007367635145783424
0.0239105224609375;0.06396484375;-1.0203399658203125;0.07038841396570206;-0.0021574266720563173;0.009221727959811687
0.0239105224609375;0.06396484375;-1.0203399658203125;0.07038841396570206;-0.0021574266720563173;0.009221727959811687
0.0253448486328125;0.0616455078125;-1.023834228515625;0.07038841396570206;-0.0021574266720563173;0.009221727959811687
0.0253448486328125;0.0616455078125;-1.023834228515625;0.07038841396570206;-0.0021574266720563173;0.009221727959811687
0.0253448486328125;0.0616455078125;-1.023834228515625;0.07038841396570206;-0.0021574266720563173;0.009221727959811687
0.0253448486328125;0.0616455078125;-1.023834228515625;0.07665163278579712;-0.0027590349782258272;0.009980728849768639
0.0253448486328125;0.0616455078125;-1.023834228515625;0.07665163278579712;-0.0027590349782258272;0.009980728849768639
0.0263519287109375;0.0613250732421875;-1.024200439453125;0.07665163278579712;-0.0027590349782258272;0.009980728849768639
0.0263519287109375;0.0613250732421875;-1.024200439453125;0.07665163278579712;-0.0027590349782258272;0.009980728849768639
0.0263519287109375;0.0613250732421875;-1.024200439453125;0.07665163278579712;-0.0027590349782258272;0.009980728849768639
0.0263519287109375;0.0613250732421875;-1.024200439453125;0.0730355978012085;-0.005583849735558033;0.007481884676963091
0.0263519287109375;0.0613250732421875;-1.024200439453125;0.0730355978012085;-0.005583849735558033;0.007481884676963091
0.0272369384765625;0.0613250732421875;-1.0216064453125;0.0730355978012085;-0.005583849735558033;0.007481884676963091
0.0272369384765625;0.0613250732421875;-1.0216064453125;0.0730355978012085;-0.005583849735558033;0.007481884676963091
0.0272369384765625;0.0613250732421875;-1.0216064453125;0.0730355978012085;-0.005583849735558033;0.007481884676963091
0.0272369384765625;0.0613250732421875;-1.0216064453125;0.06333743035793304;-0.010438792407512665;0.014555240049958229
0.0272369384765625;0.0613250732421875;-1.0216064453125;0.06333743035793304;-0.010438792407512665;0.014555240049958229
0.0288238525390625;0.06268310546875;-1.01812744140625;0.06333743035793304;-0.010438792407512665;0.014555240049958229
0.0288238525390625;0.06268310546875;-1.01812744140625;0.06333743035793304;-0.010438792407512665;0.014555240049958229
0.0288238525390625;0.06268310546875;-1.01812744140625;0.06333743035793304;-0.010438792407512665;0.014555240049958229
0.0288238525390625;0.06268310546875;-1.01812744140625;0.04471633955836296;-0.011206582188606262;0.009621202014386654
0.0288238525390625;0.06268310546875;-1.01812744140625;0.04471633955836296;-0.011206582188606262;0.009621202014386654
0.0298004150390625;0.0634002685546875;-1.0157470703125;0.04471633955836296;-0.011206582188606262;0.009621202014386654
0.0298004150390625;0.0634002685546875;-1.0157470703125;0.04471633955836296;-0.011206582188606262;0.009621202014386654
0.0298004150390625;0.0634002685546875;-1.0157470703125;0.04471633955836296;-0.011206582188606262;0.009621202014386654
0.0298004150390625;0.0634002685546875;-1.0157470703125;0.03206073120236397;-0.013683055527508259;0.006681604776531458
0.0298004150390625;0.0634002685546875;-1.0157470703125;0.03206073120236397;-0.013683055527508259;0.006681604776531458
0.0306854248046875;0.063873291015625;-1.015411376953125;0.03206073120236397;-0.013683055527508259;0.006681604776531458
0.0306854248046875;0.063873291015625;-1.015411376953125;0.03206073120236397;-0.013683055527508259;0.006681604776531458
0.0306854248046875;0.063873291015625;-1.015411376953125;0.03206073120236397;-0.013683055527508259;0.006681604776531458
0.0306854248046875;0.063873291015625;-1.015411376953125;0.022396385669708252;-0.014532336965203285;0.0045572011731565
0.0306854248046875;0.063873291015625;-1.015411376953125;0.022396385669708252;-0.014532336965203285;0.0045572011731565
0.029022216796875;0.0655670166015625;-1.012359619140625;0.022396385669708252;-0.014532336965203285;0.0045572011731565
0.029022216796875;0.0655670166015625;-1.012359619140625;0.022396385669708252;-0.014532336965203285;0.0045572011731565
0.029022216796875;0.0655670166015625;-1.012359619140625;0.022396385669708252;-0.014532336965203285;0.0045572011731565
0.029022216796875;0.0655670166015625;-1.012359619140625;0.009916546754539013;-0.01173069141805172;0.004110322799533606
0.029022216796875;0.0655670166015625;-1.012359619140625;0.009916546754539013;-0.01173069141805172;0.004110322799533606
0.0306243896484375;0.065765380859375;-1.00921630859375;0.009916546754539013;-0.01173069141805172;0.004110322799533606
0.0306243896484375;0.065765380859375;-1.00921630859375;0.009916546754539013;-0.01173069141805172;0.004110322799533606
0.0306243896484375;0.065765380859375;-1.00921630859375;0.009916546754539013;-0.01173069141805172;0.004110322799533606
0.0306243896484375;0.065765380859375;-1.00921630859375;0.001505751279182732;-0.012494753114879131;0.0001675128296483308
0.0306243896484375;0.065765380859375;-1.00921630859375;0.001505751279182732;-0.012494753114879131;0.0001675128296483308
0.030120849609375;0.0650482177734375;-1.0061492919921875;0.001505751279182732;-0.012494753114879131;0.0001675128296483308
0.030120849609375;0.0650482177734375;-1.0061492919921875;0.001505751279182732;-0.012494753114879131;0.0001675128296483308
0.030120849609375;0.0650482177734375;-1.0061492919921875;0.001505751279182732;-0.012494753114879131;0.0001675128296483308
0.030120849609375;0.0650482177734375;-1.0061492919921875;-0.00264771468937397;-0.006369482260197401;-0.0015630092239007354
0.030120849609375;0.0650482177734375;-1.0061492919921875;-0.00264771468937397;-0.006369482260197401;-0.0015630092239007354
0.02874755859375;0.0659027099609375;-1.004608154296875;-0.00264771468937397;-0.006369482260197401;-0.0015630092239007354
0.02874755859375;0.0659027099609375;-1.004608154296875;-0.00264771468937397;-0.006369482260197401;-0.0015630092239007354
0.02874755859375;0.0659027099609375;-1.004608154296875;-0.00264771468937397;-0.006369482260197401;-0.0015630092239007354
0.02874755859375;0.0659027099609375;-1.004608154296875;0.0034194989129900932;-0.007418501656502485;-0.004892759490758181
0.02874755859375;0.0659027099609375;-1.004608154296875;0.0034194989129900932;-0.007418501656502485;-0.004892759490758181
0.02789306640625;0.0662841796875;-1.006591796875;0.0034194989129900932;-0.007418501656502485;-0.004892759490758181
0.02789306640625;0.0662841796875;-1.006591796875;0.0034194989129900932;-0.007418501656502485;-0.004892759490758181
0.02789306640625;0.0662841796875;-1.006591796875;0.0034194989129900932;-0.007418501656502485;-0.004892759490758181
0.02789306640625;0.0662841796875;-1.006591796875;0.007513043470680714;-0.0039145806804299355;-0.00589490681886673
0.02789306640625;0.0662841796875;-1.006591796875;0.007513043470680714;-0.0039145806804299355;-0.00589490681886673
0.0269622802734375;0.0667572021484375;-1.0070648193359375;0.007513043470680714;-0.0039145806804299355;-0.00589490681886673
0.0269622802734375;0.0667572021484375;-1.0070648193359375;0.007513043470680714;-0.0039145806804299355;-0.00589490681886673
0.0269622802734375;0.0667572021484375;-1.0070648193359375;0.007513043470680714;-0.0039145806804299355;-0.00589490681886673
0.0269622802734375;0.0667572021484375;-1.0070648193359375;0.01902003027498722;-0.001960619119927287;-0.003058374160900712
0.0269622802734375;0.0667572021484375;-1.0070648193359375;0.01902003027498722;-0.001960619119927287;-0.003058374160900712
0.0256805419921875;0.065032958984375;-1.0069427490234375;0.01902003027498722;-0.001960619119927287;-0.003058374160900712
0.0256805419921875;0.065032958984375;-1.0069427490234375;0.01902003027498722;-0.001960619119927287;-0.003058374160900712
0.0256805419921875;0.065032958984375;-1.0069427490234375;0.01902003027498722;-0.001960619119927287;-0.003058374160900712
0.0256805419921875;0.065032958984375;-1.0069427490234375;0.029444441199302673;-0.003841609926894307;-0.0038605183362960815
0.0256805419921875;0.065032958984375;-1.0069427490234375;0.029444441199302673;-0.003841609926894307;-0.0038605183362960815
0.0249176025390625;0.064483642578125;-1.00860595703125;0.029444441199302673;-0.003841609926894307;-0.0038605183362960815
0.0249176025390625;0.064483642578125;-1.00860595703125;0.029444441199302673;-0.003841609926894307;-0.0038605183362960815
0.0249176025390625;0.064483642578125;-1.00860595703125;0.029444441199302673;-0.003841609926894307;-0.0038605183362960815
0.0249176025390625;0.064483642578125;-1.00860595703125;0.03891384229063988;-0.002380599733442068;-0.0028748824261128902
0.0249176025390625;0.064483642578125;-1.00860595703125;0.03891384229063988;-0.002380599733442068;-0.0028748824261128902
0.0249176025390625;0.0641326904296875;-1.009552001953125;0.03891384229063988;-0.002380599733442068;-0.0028748824261128902
0.0249176025390625;0.0641326904296875;-1.009552001953125;0.03891384229063988;-0.002380599733442068;-0.0028748824261128902
0.0249176025390625;0.0641326904296875;-1.009552001953125;0.03891384229063988;-0.002380599733442068;-0.0028748824261128902
0.0249176025390625;0.0641326904296875;-1.009552001953125;0.050036001950502396;-0.0002479403046891093;-0.004551608581095934
0.0249176025390625;0.0641326904296875;-1.009552001953125;0.050036001950502396;-0.0002479403046891093;-0.004551608581095934
0.023956298828125;0.0630950927734375;-1.0080718994140625;0.050036001950502396;-0.0002479403046891093;-0.004551608581095934
0.023956298828125;0.0630950927734375;-1.0080718994140625;0.050036001950502396;-0.0002479403046891093;-0.004551608581095934
0.023956298828125;0.0630950927734375;-1.0080718994140625;0.050036001950502396;-0.0002479403046891093;-0.004551608581095934
0.023956298828125;0.0630950927734375;-1.0080718994140625;0.06027266010642052;-0.002264485927298665;-0.002226402750238776
0.023956298828125;0.0630950927734375;-1.0080718994140625;0.06027266010642052;-0.002264485927298665;-0.002226402750238776
0.02459716796875;0.0616455078125;-1.009368896484375;0.06027266010642052;-0.002264485927298665;-0.002226402750238776
0.02459716796875;0.0616455078125;-1.009368896484375;0.06027266010642052;-0.002264485927298665;-0.002226402750238776
0.02459716796875;0.0616455078125;-1.009368896484375;0.06027266010642052;-0.002264485927298665;-0.002226402750238776
0.02459716796875;0.0616455078125;-1.009368896484375;0.06819956004619598;-0.0006293049664236605;-0.002424808219075203
0.02459716796875;0.0616455078125;-1.009368896484375;0.06819956004619598;-0.0006293049664236605;-0.002424808219075203
0.025360107421875;0.0603790283203125;-1.0112457275390625;0.06819956004619598;-0.0006293049664236605;-0.002424808219075203
0.025360107421875;0.0603790283203125;-1.0112457275390625;0.06819956004619598;-0.0006293049664236605;-0.002424808219075203
0.025360107421875;0.0603790283203125;-1.0112457275390625;0.06819956004619598;-0.0006293049664236605;-0.002424808219075203
0.025360107421875;0.0603790283203125;-1.0112457275390625;0.07570328563451767;-0.006995324976742268;0.0009382316493429244
0.025360107421875;0.0603790283203125;-1.0112457275390625;0.07570328563451767;-0.006995324976742268;0.0009382316493429244
0.0260162353515625;0.0580902099609375;-1.012359619140625;0.07570328563451767;-0.006995324976742268;0.0009382316493429244
0.0260162353515625;0.0580902099609375;-1.012359619140625;0.07570328563451767;-0.006995324976742268;0.0009382316493429244
0.0260162353515625;0.0580902099609375;-1.012359619140625;0.07570328563451767;-0.006995324976742268;0.0009382316493429244
0.0260162353515625;0.0580902099609375;-1.012359619140625;0.07662074267864227;-0.004264253657311201;0.0011201255256310105
0.0260162353515625;0.0580902099609375;-1.012359619140625;0.07662074267864227;-0.004264253657311201;0.0011201255256310105
0.0264892578125;0.0574188232421875;-1.012786865234375;0.07662074267864227;-0.004264253657311201;0.0011201255256310105
0.0264892578125;0.0574188232421875;-1.012786865234375;0.07662074267864227;-0.004264253657311201;0.0011201255256310105
0.0264892578125;0.0574188232421875;-1.012786865234375;0.07662074267864227;-0.004264253657311201;0.0011201255256310105
0.0264892578125;0.0574188232421875;-1.012786865234375;0.08130497485399246;-0.006947388406842947;0.0029145635198801756
0.0264892578125;0.0574188232421875;-1.012786865234375;0.08130497485399246;-0.006947388406842947;0.0029145635198801756
0.0264892578125;0.056854248046875;-1.0129547119140625;0.08130497485399246;-0.006947388406842947;0.0029145635198801756
0.0264892578125;0.056854248046875;-1.0129547119140625;0.08130497485399246;-0.006947388406842947;0.0029145635198801756
0.0264892578125;0.056854248046875;-1.0129547119140625;0.08130497485399246;-0.006947388406842947;0.0029145635198801756
0.0264892578125;0.056854248046875;-1.0129547119140625;0.08609466999769211;-0.006851514335721731;0.001630120910704136
0.0264892578125;0.056854248046875;-1.0129547119140625;0.08609466999769211;-0.006851514335721731;0.001630120910704136
0.0260772705078125;0.055023193359375;-1.0148468017578125;0.08609466999769211;-0.006851514335721731;0.001630120910704136
0.0260772705078125;0.055023193359375;-1.0148468017578125;0.08609466999769211;-0.006851514335721731;0.001630120910704136
0.0260772705078125;0.055023193359375;-1.0148468017578125;0.08609466999769211;-0.006851514335721731;0.001630120910704136
0.0260772705078125;0.055023193359375;-1.0148468017578125;0.08398944139480591;-0.008207595907151699;0.0022540995851159096
0.0260772705078125;0.055023193359375;-1.0148468017578125;0.08398944139480591;-0.008207595907151699;0.0022540995851159096
0.0261383056640625;0.05340576171875;-1.0143280029296875;0.08398944139480591;-0.008207595907151699;0.0022540995851159096
0.0261383056640625;0.05340576171875;-1.0143280029296875;0.08398944139480591;-0.008207595907151699;0.0022540995851159096
0.0261383056640625;0.05340576171875;-1.0143280029296875;0.08398944139480591;-0.008207595907151699;0.0022540995851159096
0.0261383056640625;0.05340576171875;-1.0143280029296875;0.08415509015321732;-0.007281082216650248;0.002671949565410614
0.0261383056640625;0.05340576171875;-1.0143280029296875;0.08415509015321732;-0.007281082216650248;0.002671949565410614
0.026885986328125;0.05303955078125;-1.0142974853515625;0.08415509015321732;-0.007281082216650248;0.002671949565410614
0.026885986328125;0.05303955078125;-1.0142974853515625;0.08415509015321732;-0.007281082216650248;0.002671949565410614
0.026885986328125;0.05303955078125;-1.0142974853515625;0.08415509015321732;-0.007281082216650248;0.002671949565410614
0.026885986328125;0.05303955078125;-1.0142974853515625;0.08422406762838364;-0.007319165393710136;0.0017270599491894245
0.026885986328125;0.05303955078125;-1.0142974853515625;0.08422406762838364;-0.007319165393710136;0.0017270599491894245
0.02606201171875;0.0516510009765625;-1.0167083740234375;0.08422406762838364;-0.007319165393710136;0.0017270599491894245
0.02606201171875;0.0516510009765625;-1.0167083740234375;0.08422406762838364;-0.007319165393710136;0.0017270599491894245
0.02606201171875;0.0516510009765625;-1.0167083740234375;0.08422406762838364;-0.007319165393710136;0.0017270599491894245
0.02606201171875;0.0516510009765625;-1.0167083740234375;0.08540651202201843;-0.008614527061581612;0.0009291769238188863
0.02606201171875;0.0516510009765625;-1.0167083740234375;0.08540651202201843;-0.008614527061581612;0.0009291769238188863
0.026214599609375;0.0507659912109375;-1.01678466796875;0.08540651202201843;-0.008614527061581612;0.0009291769238188863
0.026214599609375;0.0507659912109375;-1.01678466796875;0.08540651202201843;-0.008614527061581612;0.0009291769238188863
0.026214599609375;0.0507659912109375;-1.01678466796875;0.08540651202201843;-0.008614527061581612;0.0009291769238188863
0.026214599609375;0.0507659912109375;-1.01678466796875;0.08667337894439697;-0.007865113206207752;-0.0007131945458240807
0.026214599609375;0.0507659912109375;-1.01678466796875;0.08667337894439697;-0.007865113206207752;-0.0007131945458240807
0.0260162353515625;0.049224853515625;-1.0179443359375;0.08667337894439697;-0.007865113206207752;-0.0007131945458240807
0.0260162353515625;0.049224853515625;-1.0179443359375;0.08667337894439697;-0.007865113206207752;-0.0007131945458240807
0.0260162353515625;0.049224853515625;-1.0179443359375;0.08667337894439697;-0.007865113206207752;-0.0007131945458240807
0.0260162353515625;0.049224853515625;-1.0179443359375;0.08376120775938034;-0.006405701395124197;0.0029228192288428545
0.0260162353515625;0.049224853515625;-1.0179443359375;0.08376120775938034;-0.006405701395124197;0.0029228192288428545
0.025909423828125;0.0480804443359375;-1.01727294921875;0.08376120775938034;-0.006405701395124197;0.0029228192288428545
0.025909423828125;0.0480804443359375;-1.01727294921875;0.08376120775938034;-0.006405701395124197;0.0029228192288428545
0.025909423828125;0.0480804443359375;-1.01727294921875;0.08376120775938034;-0.006405701395124197;0.0029228192288428545
0.025909423828125;0.0480804443359375;-1.01727294921875;0.07725297659635544;-0.008248874917626381;0.0004444815858732909
0.025909423828125;0.0480804443359375;-1.01727294921875;0.07725297659635544;-0.008248874917626381;0.0004444815858732909
0.025054931640625;0.049102783203125;-1.01727294921875;0.07725297659635544;-0.008248874917626381;0.0004444815858732909
0.025054931640625;0.049102783203125;-1.01727294921875;0.07725297659635544;-0.008248874917626381;0.0004444815858732909
0.025054931640625;0.049102783203125;-1.01727294921875;0.07725297659635544;-0.008248874917626381;0.0004444815858732909
0.025054931640625;0.049102783203125;-1.01727294921875;0.073316290974617;-0.007114368490874767;-0.0007012102869339287
0.025054931640625;0.049102783203125;-1.01727294921875;0.073316290974617;-0.007114368490874767;-0.0007012102869339287
0.0245208740234375;0.0469818115234375;-1.015350341796875;0.073316290974617;-0.007114368490874767;-0.0007012102869339287
0.0245208740234375;0.0469818115234375;-1.015350341796875;0.073316290974617;-0.007114368490874767;-0.0007012102869339287
0.0245208740234375;0.0469818115234375;-1.015350341796875;0.073316290974617;-0.007114368490874767;-0.0007012102869339287
0.0245208740234375;0.0469818115234375;-1.015350341796875;0.06108226254582405;-0.005175587255507708;-0.0014261227333918214
0.0245208740234375;0.0469818115234375;-1.015350341796875;0.06108226254582405;-0.005175587255507708;-0.0014261227333918214
0.0234832763671875;0.0460052490234375;-1.0157012939453125;0.06108226254582405;-0.005175587255507708;-0.0014261227333918214
0.0234832763671875;0.0460052490234375;-1.0157012939453125;0.06108226254582405;-0.005175587255507708;-0.0014261227333918214
0.0234832763671875;0.0460052490234375;-1.0157012939453125;0.06108226254582405;-0.005175587255507708;-0.0014261227333918214
0.0234832763671875;0.0460052490234375;-1.0157012939453125;0.06357897818088531;-0.0072925337590277195;-0.002237055217847228
0.0234832763671875;0.0460052490234375;-1.0157012939453125;0.06357897818088531;-0.0072925337590277195;-0.002237055217847228
0.0227203369140625;0.0452880859375;-1.0159454345703125;0.06357897818088531;-0.0072925337590277195;-0.002237055217847228
0.0227203369140625;0.0452880859375;-1.0159454345703125;0.06357897818088531;-0.0072925337590277195;-0.002237055217847228
0.0227203369140625;0.0452880859375;-1.0159454345703125;0.06357897818088531;-0.0072925337590277195;-0.002237055217847228
0.0227203369140625;0.0452880859375;-1.0159454345703125;0.060019928961992264;-0.010012686252593994;-0.0012098740553483367
0.0227203369140625;0.0452880859375;-1.0159454345703125;0.060019928961992264;-0.010012686252593994;-0.0012098740553483367
0.0234375;0.0458221435546875;-1.0172576904296875;0.060019928961992264;-0.010012686252593994;-0.0012098740553483367
0.0234375;0.0458221435546875;-1.0172576904296875;0.060019928961992264;-0.010012686252593994;-0.0012098740553483367
0.0234375;0.0458221435546875;-1.0172576904296875;0.060019928961992264;-0.010012686252593994;-0.0012098740553483367
0.0234375;0.0458221435546875;-1.0172576904296875;0.05162324756383896;-0.009161273948848248;-0.0006953513366170228
0.0234375;0.0458221435546875;-1.0172576904296875;0.05162324756383896;-0.009161273948848248;-0.0006953513366170228
0.023040771484375;0.0472412109375;-1.0160369873046875;0.05162324756383896;-0.009161273948848248;-0.0006953513366170228
0.023040771484375;0.0472412109375;-1.0160369873046875;0.05162324756383896;-0.009161273948848248;-0.0006953513366170228
0.023040771484375;0.0472412109375;-1.0160369873046875;0.05162324756383896;-0.009161273948848248;-0.0006953513366170228
0.023040771484375;0.0472412109375;-1.0160369873046875;0.051112983375787735;-0.00589570589363575;-0.0010815097484737635
0.023040771484375;0.0472412109375;-1.0160369873046875;0.051112983375787735;-0.00589570589363575;-0.0010815097484737635
0.0235443115234375;0.046783447265625;-1.01251220703125;0.051112983375787735;-0.00589570589363575;-0.0010815097484737635
0.0235443115234375;0.046783447265625;-1.01251220703125;0.051112983375787735;-0.00589570589363575;-0.0010815097484737635
0.0235443115234375;0.046783447265625;-1.01251220703125;0.051112983375787735;-0.00589570589363575;-0.0010815097484737635
0.0235443115234375;0.046783447265625;-1.01251220703125;0.04844609647989273;0.001237571006640792;4.1012681322172284e-05
0.0235443115234375;0.046783447265625;-1.01251220703125;0.04844609647989273;0.001237571006640792;4.1012681322172284e-05
0.0238037109375;0.0467529296875;-1.0113067626953125;0.04844609647989273;0.001237571006640792;4.1012681322172284e-05
0.0238037109375;0.0467529296875;-1.0113067626953125;0.04844609647989273;0.001237571006640792;4.1012681322172284e-05
0.0238037109375;0.0467529296875;-1.0113067626953125;0.049971818923950195;-0.0004117247008252889;-0.00011345066013745964
0.0238037109375;0.0467529296875;-1.0113067626953125;0.049971818923950195;-0.0004117247008252889;-0.00011345066013745964
0.0238037109375;0.0467529296875;-1.0113067626953125;0.049971818923950195;-0.0004117247008252889;-0.00011345066013745964
0.025634765625;0.046539306640625;-1.0136566162109375;0.049971818923950195;-0.0004117247008252889;-0.00011345066013745964
0.025634765625;0.046539306640625;-1.0136566162109375;0.049971818923950195;-0.0004117247008252889;-0.00011345066013745964
0.025634765625;0.046539306640625;-1.0136566162109375;0.049971818923950195;-0.0004117247008252889;-0.00011345066013745964
0.025634765625;0.046539306640625;-1.0136566162109375;0.05499960109591484;0.002737196860834956;-0.0010018812026828527
0.025634765625;0.046539306640625;-1.0136566162109375;0.05499960109591484;0.002737196860834956;-0.0010018812026828527
0.0257568359375;0.0474853515625;-1.016204833984375;0.05499960109591484;0.002737196860834956;-0.0010018812026828527
0.0257568359375;0.0474853515625;-1.016204833984375;0.05499960109591484;0.002737196860834956;-0.0010018812026828527
0.0257568359375;0.0474853515625;-1.016204833984375;0.0563623420894146;0.001976331928744912;0.0014298511669039726
0.0257568359375;0.0474853515625;-1.016204833984375;0.0563623420894146;0.001976331928744912;0.0014298511669039726
0.0257568359375;0.0474853515625;-1.016204833984375;0.0563623420894146;0.001976331928744912;0.0014298511669039726
0.0250091552734375;0.046630859375;-1.0157012939453125;0.0563623420894146;0.001976331928744912;0.0014298511669039726
0.0250091552734375;0.046630859375;-1.0157012939453125;0.0563623420894146;0.001976331928744912;0.0014298511669039726
0.0250091552734375;0.046630859375;-1.0157012939453125;0.05459373816847801;0.005814479663968086;0.0014389059506356716
0.0250091552734375;0.046630859375;-1.0157012939453125;0.05459373816847801;0.005814479663968086;0.0014389059506356716
0.0250091552734375;0.046630859375;-1.0157012939453125;0.05459373816847801;0.005814479663968086;0.0014389059506356716
0.025238037109375;0.045166015625;-1.0136871337890625;0.05459373816847801;0.005814479663968086;0.0014389059506356716
0.025238037109375;0.045166015625;-1.0136871337890625;0.05459373816847801;0.005814479663968086;0.0014389059506356716
0.025238037109375;0.045166015625;-1.0136871337890625;0.054548729211091995;0.0029646309558302164;0.0006860303110443056
0.025238037109375;0.045166015625;-1.0136871337890625;0.054548729211091995;0.0029646309558302164;0.0006860303110443056
0.025238037109375;0.045166015625;-1.0136871337890625;0.054548729211091995;0.0029646309558302164;0.0006860303110443056
0.02288818359375;0.0448760986328125;-1.0126800537109375;0.054548729211091995;0.0029646309558302164;0.0006860303110443056
0.02288818359375;0.0448760986328125;-1.0126800537109375;0.054548729211091995;0.0029646309558302164;0.0006860303110443056
0.02288818359375;0.0448760986328125;-1.0126800537109375;0.04950150474905968;-0.0012900352012366056;-5.1399008953012526e-05
0.02288818359375;0.0448760986328125;-1.0126800537109375;0.04950150474905968;-0.0012900352012366056;-5.1399008953012526e-05
0.0221710205078125;0.0435638427734375;-1.0123291015625;0.04950150474905968;-0.0012900352012366056;-5.1399008953012526e-05
0.0221710205078125;0.0435638427734375;-1.0123291015625;0.04950150474905968;-0.0012900352012366056;-5.1399008953012526e-05
0.0221710205078125;0.0435638427734375;-1.0123291015625;0.04950150474905968;-0.0012900352012366056;-5.1399008953012526e-05
0.0221710205078125;0.0435638427734375;-1.0123291015625;0.04621490091085434;-0.0012751214671880007;0.0007486145477741957
0.0221710205078125;0.0435638427734375;-1.0123291015625;0.04621490091085434;-0.0012751214671880007;0.0007486145477741957
0.0245361328125;0.042022705078125;-1.0101165771484375;0.04621490091085434;-0.0012751214671880007;0.0007486145477741957
0.0245361328125;0.042022705078125;-1.0101165771484375;0.04621490091085434;-0.0012751214671880007;0.0007486145477741957
0.0245361328125;0.042022705078125;-1.0101165771484375;0.04621490091085434;-0.0012751214671880007;0.0007486145477741957
0.0245361328125;0.042022705078125;-1.0101165771484375;0.04385906830430031;-0.004263720940798521;0.0033159018494188786
0.0245361328125;0.042022705078125;-1.0101165771484375;0.04385906830430031;-0.004263720940798521;0.0033159018494188786
0.025848388671875;0.0408782958984375;-1.0072021484375;0.04385906830430031;-0.004263720940798521;0.0033159018494188786
0.025848388671875;0.0408782958984375;-1.0072021484375;0.04385906830430031;-0.004263720940798521;0.0033159018494188786
0.025848388671875;0.0408782958984375;-1.0072021484375;0.04385906830430031;-0.004263720940798521;0.0033159018494188786
0.025848388671875;0.0408782958984375;-1.0072021484375;0.04385906830430031;-0.004263720940798521;0.0033159018494188786
0.025848388671875;0.0408782958984375;-1.0072021484375;0.0491531640291214;-0.010642257519066334;0.0034706315491348505
0.025848388671875;0.0408782958984375;-1.0072021484375;0.0491531640291214;-0.010642257519066334;0.0034706315491348505
0.0256195068359375;0.04180908203125;-1.013580322265625;0.0491531640291214;-0.010642257519066334;0.0034706315491348505
0.0256195068359375;0.04180908203125;-1.013580322265625;0.0491531640291214;-0.010642257519066334;0.0034706315491348505
0.0256195068359375;0.04180908203125;-1.013580322265625;0.041126929223537445;0.00020266656065359712;0.007103449665009975
0.0256195068359375;0.04180908203125;-1.013580322265625;0.041126929223537445;0.00020266656065359712;0.007103449665009975
0.026153564453125;0.042022705078125;-1.013946533203125;0.041126929223537445;0.00020266656065359712;0.007103449665009975
0.026153564453125;0.042022705078125;-1.013946533203125;0.041126929223537445;0.00020266656065359712;0.007103449665009975
0.026153564453125;0.042022705078125;-1.013946533203125;0.041126929223537445;0.00020266656065359712;0.007103449665009975
0.026153564453125;0.042022705078125;-1.013946533203125;0.017300693318247795;0.016161926090717316;0.005501291714608669
0.026153564453125;0.042022705078125;-1.013946533203125;0.017300693318247795;0.016161926090717316;0.005501291714608669
0.0257415771484375;0.0417327880859375;-0.9972991943359375;0.017300693318247795;0.016161926090717316;0.005501291714608669
0.0257415771484375;0.0417327880859375;-0.9972991943359375;0.017300693318247795;0.016161926090717316;0.005501291714608669
0.0257415771484375;0.0417327880859375;-0.9972991943359375;0.017300693318247795;0.016161926090717316;0.005501291714608669
0.0257415771484375;0.0417327880859375;-0.9972991943359375;0.01212990004569292;0.022943133488297462;0.0034786208998411894
0.0257415771484375;0.0417327880859375;-0.9972991943359375;0.01212990004569292;0.022943133488297462;0.0034786208998411894
0.0235137939453125;0.0420684814453125;-0.9915313720703125;0.01212990004569292;0.022943133488297462;0.0034786208998411894
0.0235137939453125;0.0420684814453125;-0.9915313720703125;0.01212990004569292;0.022943133488297462;0.0034786208998411894
0.0235137939453125;0.0420684814453125;-0.9915313720703125;0.01212990004569292;0.022943133488297462;0.0034786208998411894
0.0235137939453125;0.0420684814453125;-0.9915313720703125;0.03502243384718895;0.0046240463852882385;-0.002061553066596389
0.0235137939453125;0.0420684814453125;-0.9915313720703125;0.03502243384718895;0.0046240463852882385;-0.002061553066596389
0.0219879150390625;0.0460968017578125;-1.0148773193359375;0.03502243384718895;0.0046240463852882385;-0.002061553066596389
0.0219879150390625;0.0460968017578125;-1.0148773193359375;0.03502243384718895;0.0046240463852882385;-0.002061553066596389
0.0219879150390625;0.0460968017578125;-1.0148773193359375;0.03502243384718895;0.0046240463852882385;-0.002061553066596389
0.0219879150390625;0.0460968017578125;-1.0148773193359375;0.06351213157176971;-0.014230068773031235;-0.0010061422362923622
0.0219879150390625;0.0460968017578125;-1.0148773193359375;0.06351213157176971;-0.014230068773031235;-0.0010061422362923622
0.02215576171875;0.0460968017578125;-1.031768798828125;0.06351213157176971;-0.014230068773031235;-0.0010061422362923622
0.02215576171875;0.0460968017578125;-1.031768798828125;0.06351213157176971;-0.014230068773031235;-0.0010061422362923622
0.02215576171875;0.0460968017578125;-1.031768798828125;0.06351213157176971;-0.014230068773031235;-0.0010061422362923622
0.02215576171875;0.0460968017578125;-1.031768798828125;0.06544904410839081;-0.029859095811843872;0.0017915084026753902
0.02215576171875;0.0460968017578125;-1.031768798828125;0.06544904410839081;-0.029859095811843872;0.0017915084026753902
0.025146484375;0.04547119140625;-1.0286865234375;0.06544904410839081;-0.029859095811843872;0.0017915084026753902
0.025146484375;0.04547119140625;-1.0286865234375;0.06544904410839081;-0.029859095811843872;0.0017915084026753902
0.025146484375;0.04547119140625;-1.0286865234375;0.06544904410839081;-0.029859095811843872;0.0017915084026753902
0.025146484375;0.04547119140625;-1.0286865234375;0.05577697977423668;-0.03086497075855732;0.0004117247008252889
0.025146484375;0.04547119140625;-1.0286865234375;0.05577697977423668;-0.03086497075855732;0.0004117247008252889
0.02825927734375;0.0443572998046875;-1.012542724609375;0.05577697977423668;-0.03086497075855732;0.0004117247008252889
0.02825927734375;0.0443572998046875;-1.012542724609375;0.05577697977423668;-0.03086497075855732;0.0004117247008252889
0.02825927734375;0.0443572998046875;-1.012542724609375;0.05577697977423668;-0.03086497075855732;0.0004117247008252889
0.02825927734375;0.0443572998046875;-1.012542724609375;0.038481079041957855;-0.02045547403395176;0.0036187032237648964
0.02825927734375;0.0443572998046875;-1.012542724609375;0.038481079041957855;-0.02045547403395176;0.0036187032237648964
0.0277252197265625;0.0419158935546875;-1.0038909912109375;0.038481079041957855;-0.02045547403395176;0.0036187032237648964
0.0277252197265625;0.0419158935546875;-1.0038909912109375;0.038481079041957855;-0.02045547403395176;0.0036187032237648964
0.0277252197265625;0.0419158935546875;-1.0038909912109375;0.038481079041957855;-0.02045547403395176;0.0036187032237648964
0.0277252197265625;0.0419158935546875;-1.0038909912109375;0.019567841663956642;-0.006356166675686836;0.007577758282423019
0.0277252197265625;0.0419158935546875;-1.0038909912109375;0.019567841663956642;-0.006356166675686836;0.007577758282423019
0.02691650390625;0.0396881103515625;-0.9995269775390625;0.019567841663956642;-0.006356166675686836;0.007577758282423019
0.02691650390625;0.0396881103515625;-0.9995269775390625;0.019567841663956642;-0.006356166675686836;0.007577758282423019
0.02691650390625;0.0396881103515625;-0.9995269775390625;0.019567841663956642;-0.006356166675686836;0.007577758282423019
0.02691650390625;0.0396881103515625;-0.9995269775390625;0.009942378848791122;0.0027387947775423527;0.008681639097630978
0.02691650390625;0.0396881103515625;-0.9995269775390625;0.009942378848791122;0.0027387947775423527;0.008681639097630978
0.02630615234375;0.036224365234375;-0.9943695068359375;0.009942378848791122;0.0027387947775423527;0.008681639097630978
0.02630615234375;0.036224365234375;-0.9943695068359375;0.009942378848791122;0.0027387947775423527;0.008681639097630978
0.02630615234375;0.036224365234375;-0.9943695068359375;0.009942378848791122;0.0027387947775423527;0.008681639097630978
0.02630615234375;0.036224365234375;-0.9943695068359375;0.026126408949494362;-0.004883171990513802;0.012958675622940063
0.02630615234375;0.036224365234375;-0.9943695068359375;0.026126408949494362;-0.004883171990513802;0.012958675622940063
0.02569580078125;0.0352935791015625;-1.0068206787109375;0.026126408949494362;-0.004883171990513802;0.012958675622940063
0.02569580078125;0.0352935791015625;-1.0068206787109375;0.026126408949494362;-0.004883171990513802;0.012958675622940063
0.02569580078125;0.0352935791015625;-1.0068206787109375;0.026126408949494362;-0.004883171990513802;0.012958675622940063
0.02569580078125;0.0352935791015625;-1.0068206787109375;0.05578310415148735;-0.011982627213001251;0.009664878249168396
0.02569580078125;0.0352935791015625;-1.0068206787109375;0.05578310415148735;-0.011982627213001251;0.009664878249168396
0.024627685546875;0.034637451171875;-1.023284912109375;0.05578310415148735;-0.011982627213001251;0.009664878249168396
0.024627685546875;0.034637451171875;-1.023284912109375;0.05578310415148735;-0.011982627213001251;0.009664878249168396
0.024627685546875;0.034637451171875;-1.023284912109375;0.05578310415148735;-0.011982627213001251;0.009664878249168396
0.024627685546875;0.034637451171875;-1.023284912109375;0.07566466927528381;-0.01906770095229149;0.01047474518418312
0.024627685546875;0.034637451171875;-1.023284912109375;0.07566466927528381;-0.01906770095229149;0.01047474518418312
0.023345947265625;0.035491943359375;-1.029388427734375;0.07566466927528381;-0.01906770095229149;0.01047474518418312
0.023345947265625;0.035491943359375;-1.029388427734375;0.07566466927528381;-0.01906770095229149;0.01047474518418312
0.023345947265625;0.035491943359375;-1.029388427734375;0.07566466927528381;-0.01906770095229149;0.01047474518418312
0.023345947265625;0.035491943359375;-1.029388427734375;0.09569696336984634;-0.019604859873652458;0.007533017545938492
0.023345947265625;0.035491943359375;-1.029388427734375;0.09569696336984634;-0.019604859873652458;0.007533017545938492
0.0231475830078125;0.0345458984375;-1.027313232421875;0.09569696336984634;-0.019604859873652458;0.007533017545938492
0.0231475830078125;0.0345458984375;-1.027313232421875;0.09569696336984634;-0.019604859873652458;0.007533017545938492
0.0231475830078125;0.0345458984375;-1.027313232421875;0.09569696336984634;-0.019604859873652458;0.007533017545938492
0.0231475830078125;0.0345458984375;-1.027313232421875;0.09893723577260971;-0.01810496859252453;0.00484349112957716
0.0231475830078125;0.0345458984375;-1.027313232421875;0.09893723577260971;-0.01810496859252453;0.00484349112957716
0.0233001708984375;0.0328369140625;-1.025054931640625;0.09893723577260971;-0.01810496859252453;0.00484349112957716
0.0233001708984375;0.0328369140625;-1.025054931640625;0.09893723577260971;-0.01810496859252453;0.00484349112957716
0.0233001708984375;0.0328369140625;-1.025054931640625;0.09893723577260971;-0.01810496859252453;0.00484349112957716
0.0233001708984375;0.0328369140625;-1.025054931640625;0.09632387012243271;-0.01606125757098198;0.002100967802107334
0.0233001708984375;0.0328369140625;-1.025054931640625;0.09632387012243271;-0.01606125757098198;0.002100967802107334
0.0225067138671875;0.0316162109375;-1.0233917236328125;0.09632387012243271;-0.01606125757098198;0.002100967802107334
0.0225067138671875;0.0316162109375;-1.0233917236328125;0.09632387012243271;-0.01606125757098198;0.002100967802107334
0.0225067138671875;0.0316162109375;-1.0233917236328125;0.09002895653247833;-0.011538944207131863;0.0012359730899333954
0.0225067138671875;0.0316162109375;-1.0233917236328125;0.09002895653247833;-0.011538944207131863;0.0012359730899333954
0.0229644775390625;0.027679443359375;-1.0213775634765625;0.09002895653247833;-0.011538944207131863;0.0012359730899333954
0.0229644775390625;0.027679443359375;-1.0213775634765625;0.09002895653247833;-0.011538944207131863;0.0012359730899333954
0.0229644775390625;0.027679443359375;-1.0213775634765625;0.09002895653247833;-0.011538944207131863;0.0012359730899333954
0.0229644775390625;0.027679443359375;-1.0213775634765625;0.07305716723203659;-0.010809238068759441;0.0033036512322723866
0.0229644775390625;0.027679443359375;-1.0213775634765625;0.07305716723203659;-0.010809238068759441;0.0033036512322723866
0.0242919921875;0.025970458984375;-1.017120361328125;0.07305716723203659;-0.010809238068759441;0.0033036512322723866
0.0242919921875;0.025970458984375;-1.017120361328125;0.07305716723203659;-0.010809238068759441;0.0033036512322723866
0.0242919921875;0.025970458984375;-1.017120361328125;0.07305716723203659;-0.010809238068759441;0.0033036512322723866
0.0242919921875;0.025970458984375;-1.017120361328125;0.05848514661192894;-0.003582484321668744;0.00042504051816649735
0.0242919921875;0.025970458984375;-1.017120361328125;0.05848514661192894;-0.003582484321668744;0.00042504051816649735
0.0248260498046875;0.0260009765625;-1.0134124755859375;0.05848514661192894;-0.003582484321668744;0.00042504051816649735
0.0248260498046875;0.0260009765625;-1.0134124755859375;0.05848514661192894;-0.003582484321668744;0.00042504051816649735
0.0248260498046875;0.0260009765625;-1.0134124755859375;0.05848514661192894;-0.003582484321668744;0.00042504051816649735
0.0248260498046875;0.0260009765625;-1.0134124755859375;0.03780649974942207;-0.000251402409048751;-0.0013315805699676275
0.0248260498046875;0.0260009765625;-1.0134124755859375;0.03780649974942207;-0.000251402409048751;-0.0013315805699676275
0.0265655517578125;0.02581787109375;-1.0121612548828125;0.03780649974942207;-0.000251402409048751;-0.0013315805699676275
0.0265655517578125;0.02581787109375;-1.0121612548828125;0.03780649974942207;-0.000251402409048751;-0.0013315805699676275
0.0265655517578125;0.02581787109375;-1.0121612548828125;0.03780649974942207;-0.000251402409048751;-0.0013315805699676275
0.0265655517578125;0.02581787109375;-1.0121612548828125;0.026402845978736877;0.005014199763536453;-0.003655987558886409
0.0265655517578125;0.02581787109375;-1.0121612548828125;0.026402845978736877;0.005014199763536453;-0.003655987558886409
0.0264129638671875;0.0271759033203125;-1.010345458984375;0.026402845978736877;0.005014199763536453;-0.003655987558886409
0.0264129638671875;0.0271759033203125;-1.010345458984375;0.026402845978736877;0.005014199763536453;-0.003655987558886409
0.0264129638671875;0.0271759033203125;-1.010345458984375;0.026402845978736877;0.005014199763536453;-0.003655987558886409
0.0264129638671875;0.0271759033203125;-1.010345458984375;0.020623786374926567;0.0031494542490690947;-0.0017784589435905218
0.0264129638671875;0.0271759033203125;-1.010345458984375;0.020623786374926567;0.0031494542490690947;-0.0017784589435905218
0.026275634765625;0.0295257568359375;-1.011566162109375;0.020623786374926567;0.0031494542490690947;-0.0017784589435905218
0.026275634765625;0.0295257568359375;-1.011566162109375;0.020623786374926567;0.0031494542490690947;-0.0017784589435905218
0.026275634765625;0.0295257568359375;-1.011566162109375;0.020623786374926567;0.0031494542490690947;-0.0017784589435905218
0.026275634765625;0.0295257568359375;-1.011566162109375;0.016815464943647385;0.0020511667244136333;-0.003329217666760087
0.026275634765625;0.0295257568359375;-1.011566162109375;0.016815464943647385;0.0020511667244136333;-0.003329217666760087
0.02630615234375;0.031158447265625;-1.012908935546875;0.016815464943647385;0.0020511667244136333;-0.003329217666760087
0.02630615234375;0.031158447265625;-1.012908935546875;0.016815464943647385;0.0020511667244136333;-0.003329217666760087
