Acell X;Acell Y;Acell Z;Gyro X;Gyro Y;Gyro Z

0.0232086181640625;0.0573883056640625;-0.9948272705078125;-0.08897674083709717;0.029890520498156548;0.004118045791983604
0.024078369140625;0.05816650390625;-0.99212646484375;-0.09084388613700867;0.03289616480469704;0.0028935244772583246
0.024078369140625;0.05816650390625;-0.99212646484375;-0.09084388613700867;0.03289616480469704;0.0028935244772583246
0.024078369140625;0.05816650390625;-0.99212646484375;-0.09084388613700867;0.03289616480469704;0.0028935244772583246
0.024078369140625;0.05816650390625;-0.99212646484375;-0.09084388613700867;0.03289616480469704;0.0028935244772583246
0.024078369140625;0.05816650390625;-0.99212646484375;-0.09084388613700867;0.03289616480469704;0.0028935244772583246
0.024078369140625;0.05816650390625;-0.99212646484375;-0.09084388613700867;0.03289616480469704;0.0028935244772583246
0.022705078125;0.0601806640625;-1.005889892578125;-0.07286888360977173;0.026081135496497154;0.001341434195637703
0.022705078125;0.0601806640625;-1.005889892578125;-0.07286888360977173;0.026081135496497154;0.001341434195637703
0.022705078125;0.0601806640625;-1.005889892578125;-0.07286888360977173;0.026081135496497154;0.001341434195637703
0.022705078125;0.0601806640625;-1.005889892578125;-0.07286888360977173;0.026081135496497154;0.001341434195637703
0.022705078125;0.0601806640625;-1.005889892578125;-0.07286888360977173;0.026081135496497154;0.001341434195637703
0.0217742919921875;0.06268310546875;-1.0273284912109375;-0.034263964742422104;-0.0025776736438274384;0.00031904669594950974
0.0217742919921875;0.06268310546875;-1.0273284912109375;-0.034263964742422104;-0.0025776736438274384;0.00031904669594950974
0.0217742919921875;0.06268310546875;-1.0273284912109375;-0.034263964742422104;-0.0025776736438274384;0.00031904669594950974
0.0217742919921875;0.06268310546875;-1.0273284912109375;-0.034263964742422104;-0.0025776736438274384;0.00031904669594950974
0.0217742919921875;0.06268310546875;-1.0273284912109375;-0.034263964742422104;-0.0025776736438274384;0.00031904669594950974
0.0195159912109375;0.063629150390625;-1.044677734375;-0.0014570154016837478;-0.03244875371456146;-0.004298075567930937
0.0195159912109375;0.063629150390625;-1.044677734375;-0.0014570154016837478;-0.03244875371456146;-0.004298075567930937
0.0195159912109375;0.063629150390625;-1.044677734375;-0.0014570154016837478;-0.03244875371456146;-0.004298075567930937
0.0195159912109375;0.063629150390625;-1.044677734375;-0.0014570154016837478;-0.03244875371456146;-0.004298075567930937
0.0195159912109375;0.063629150390625;-1.044677734375;-0.0014570154016837478;-0.03244875371456146;-0.004298075567930937
0.022705078125;0.0628204345703125;-1.02490234375;-0.015576296485960484;-0.03406289592385292;0.0010167949367314577
0.022705078125;0.0628204345703125;-1.02490234375;-0.015576296485960484;-0.03406289592385292;0.0010167949367314577
0.022705078125;0.0628204345703125;-1.02490234375;-0.015576296485960484;-0.03406289592385292;0.0010167949367314577
0.022705078125;0.0628204345703125;-1.02490234375;-0.015576296485960484;-0.03406289592385292;0.0010167949367314577
0.022705078125;0.0628204345703125;-1.02490234375;-0.015576296485960484;-0.03406289592385292;0.0010167949367314577
0.024749755859375;0.0611114501953125;-0.9986419677734375;-0.03864779323339462;-0.013813816010951996;0.003489539958536625
0.024749755859375;0.0611114501953125;-0.9986419677734375;-0.03864779323339462;-0.013813816010951996;0.003489539958536625
0.024749755859375;0.0611114501953125;-0.9986419677734375;-0.03864779323339462;-0.013813816010951996;0.003489539958536625
0.024749755859375;0.0611114501953125;-0.9986419677734375;-0.03864779323339462;-0.013813816010951996;0.003489539958536625
0.024749755859375;0.0611114501953125;-0.9986419677734375;-0.03864779323339462;-0.013813816010951996;0.003489539958536625
0.023193359375;0.060638427734375;-1.0002288818359375;-0.05519507825374603;-0.0015736619243398309;0.004462392535060644
0.023193359375;0.060638427734375;-1.0002288818359375;-0.05519507825374603;-0.0015736619243398309;0.004462392535060644
0.023193359375;0.060638427734375;-1.0002288818359375;-0.05519507825374603;-0.0015736619243398309;0.004462392535060644
0.023193359375;0.060638427734375;-1.0002288818359375;-0.05519507825374603;-0.0015736619243398309;0.004462392535060644
0.023193359375;0.060638427734375;-1.0002288818359375;-0.05519507825374603;-0.0015736619243398309;0.004462392535060644
0.0225067138671875;0.058197021484375;-1.0052337646484375;-0.06567754596471786;0.00364719913341105;0.00751916877925396
0.0225067138671875;0.058197021484375;-1.0052337646484375;-0.06567754596471786;0.00364719913341105;0.00751916877925396
0.0225067138671875;0.058197021484375;-1.0052337646484375;-0.06567754596471786;0.00364719913341105;0.00751916877925396
0.0225067138671875;0.058197021484375;-1.0052337646484375;-0.06567754596471786;0.00364719913341105;0.00751916877925396
0.0230865478515625;0.0567169189453125;-1.0021820068359375;-0.0686887800693512;0.011465707793831825;0.009259810671210289
0.0230865478515625;0.0567169189453125;-1.0021820068359375;-0.0686887800693512;0.011465707793831825;0.009259810671210289
0.0230865478515625;0.0567169189453125;-1.0021820068359375;-0.0686887800693512;0.011465707793831825;0.009259810671210289
0.0230865478515625;0.0567169189453125;-1.0021820068359375;-0.0686887800693512;0.011465707793831825;0.009259810671210289
0.0230865478515625;0.0567169189453125;-1.0021820068359375;-0.0686887800693512;0.011465707793831825;0.009259810671210289
0.0230865478515625;0.0567169189453125;-1.0021820068359375;-0.056947171688079834;0.008410529233515263;0.007364439312368631
0.0220794677734375;0.0563507080078125;-1.0077972412109375;-0.056947171688079834;0.008410529233515263;0.007364439312368631
0.0220794677734375;0.0563507080078125;-1.0077972412109375;-0.056947171688079834;0.008410529233515263;0.007364439312368631
0.0220794677734375;0.0563507080078125;-1.0077972412109375;-0.056947171688079834;0.008410529233515263;0.007364439312368631
0.0220794677734375;0.0563507080078125;-1.0077972412109375;-0.056947171688079834;0.008410529233515263;0.007364439312368631
0.0236053466796875;0.0572967529296875;-1.022735595703125;-0.032893236726522446;1.5978966985130683e-06;0.006483998149633408
0.0236053466796875;0.0572967529296875;-1.022735595703125;-0.032893236726522446;1.5978966985130683e-06;0.006483998149633408
0.0236053466796875;0.0572967529296875;-1.022735595703125;-0.032893236726522446;1.5978966985130683e-06;0.006483998149633408
0.0236053466796875;0.0572967529296875;-1.022735595703125;-0.032893236726522446;1.5978966985130683e-06;0.006483998149633408
0.0236053466796875;0.0572967529296875;-1.022735595703125;-0.032893236726522446;1.5978966985130683e-06;0.006483998149633408
0.0236053466796875;0.0572967529296875;-1.022735595703125;-0.01685008592903614;-0.005534315016120672;0.0034940673504024744
0.0249481201171875;0.058441162109375;-1.02996826171875;-0.01685008592903614;-0.005534315016120672;0.0034940673504024744
0.0249481201171875;0.058441162109375;-1.02996826171875;-0.01685008592903614;-0.005534315016120672;0.0034940673504024744
0.0249481201171875;0.058441162109375;-1.02996826171875;-0.01685008592903614;-0.005534315016120672;0.0034940673504024744
0.0249481201171875;0.058441162109375;-1.02996826171875;-0.01685008592903614;-0.005534315016120672;0.0034940673504024744
0.025238037109375;0.058746337890625;-1.021453857421875;-0.01570279709994793;-0.002380599733442068;0.0004170510219410062
0.025238037109375;0.058746337890625;-1.021453857421875;-0.01570279709994793;-0.002380599733442068;0.0004170510219410062
0.025238037109375;0.058746337890625;-1.021453857421875;-0.01570279709994793;-0.002380599733442068;0.0004170510219410062
0.025238037109375;0.058746337890625;-1.021453857421875;-0.01570279709994793;-0.002380599733442068;0.0004170510219410062
0.025238037109375;0.058746337890625;-1.021453857421875;-0.01570279709994793;-0.002380599733442068;0.0004170510219410062
0.025238037109375;0.058746337890625;-1.021453857421875;-0.025012409314513206;0.0031577101908624172;-0.002689260058104992
0.02349853515625;0.059722900390625;-1.01324462890625;-0.025012409314513206;0.0031577101908624172;-0.002689260058104992
0.02349853515625;0.059722900390625;-1.01324462890625;-0.025012409314513206;0.0031577101908624172;-0.002689260058104992
0.02349853515625;0.059722900390625;-1.01324462890625;-0.025012409314513206;0.0031577101908624172;-0.002689260058104992
0.02349853515625;0.059722900390625;-1.01324462890625;-0.025012409314513206;0.0031577101908624172;-0.002689260058104992
0.0231475830078125;0.0600738525390625;-1.010223388671875;-0.03592178225517273;0.0048975530080497265;-0.004345746245235205
0.0231475830078125;0.0600738525390625;-1.010223388671875;-0.03592178225517273;0.0048975530080497265;-0.004345746245235205
0.0231475830078125;0.0600738525390625;-1.010223388671875;-0.03592178225517273;0.0048975530080497265;-0.004345746245235205
0.0231475830078125;0.0600738525390625;-1.010223388671875;-0.03592178225517273;0.0048975530080497265;-0.004345746245235205
0.0231475830078125;0.0600738525390625;-1.010223388671875;-0.03592178225517273;0.0048975530080497265;-0.004345746245235205
0.0231475830078125;0.0600738525390625;-1.010223388671875;-0.05013107880949974;0.009272061288356781;-0.004683434963226318
0.02435302734375;0.0603485107421875;-1.006805419921875;-0.05013107880949974;0.009272061288356781;-0.004683434963226318
0.02435302734375;0.0603485107421875;-1.006805419921875;-0.05013107880949974;0.009272061288356781;-0.004683434963226318
0.02435302734375;0.0603485107421875;-1.006805419921875;-0.05013107880949974;0.009272061288356781;-0.004683434963226318
0.02435302734375;0.0603485107421875;-1.006805419921875;-0.05013107880949974;0.009272061288356781;-0.004683434963226318
0.0248565673828125;0.062469482421875;-1.0068359375;-0.05070898309350014;0.010248642414808273;-0.0021859225817024708
0.0248565673828125;0.062469482421875;-1.0068359375;-0.05070898309350014;0.010248642414808273;-0.0021859225817024708
0.0248565673828125;0.062469482421875;-1.0068359375;-0.05070898309350014;0.010248642414808273;-0.0021859225817024708
0.0248565673828125;0.062469482421875;-1.0068359375;-0.05070898309350014;0.010248642414808273;-0.0021859225817024708
0.0248565673828125;0.062469482421875;-1.0068359375;-0.05070898309350014;0.010248642414808273;-0.0021859225817024708
0.0252227783203125;0.066070556640625;-1.0064544677734375;-0.05637912079691887;0.01215466670691967;0.0004183826094958931
0.0252227783203125;0.066070556640625;-1.0064544677734375;-0.05637912079691887;0.01215466670691967;0.0004183826094958931
0.0252227783203125;0.066070556640625;-1.0064544677734375;-0.05637912079691887;0.01215466670691967;0.0004183826094958931
0.0252227783203125;0.066070556640625;-1.0064544677734375;-0.05637912079691887;0.01215466670691967;0.0004183826094958931
0.0252227783203125;0.066070556640625;-1.0064544677734375;-0.05637912079691887;0.01215466670691967;0.0004183826094958931
0.0250701904296875;0.06964111328125;-1.0088958740234375;-0.04880934953689575;0.010882209055125713;0.000371777277905494
0.0250701904296875;0.06964111328125;-1.0088958740234375;-0.04880934953689575;0.010882209055125713;0.000371777277905494
0.0250701904296875;0.06964111328125;-1.0088958740234375;-0.04880934953689575;0.010882209055125713;0.000371777277905494
0.0250701904296875;0.06964111328125;-1.0088958740234375;-0.04880934953689575;0.010882209055125713;0.000371777277905494
0.0250701904296875;0.06964111328125;-1.0088958740234375;-0.04880934953689575;0.010882209055125713;0.000371777277905494
0.0243682861328125;0.0716400146484375;-1.010040283203125;-0.04199139401316643;0.01017114520072937;0.0007150587625801563
0.0243682861328125;0.0716400146484375;-1.010040283203125;-0.04199139401316643;0.01017114520072937;0.0007150587625801563
0.0243682861328125;0.0716400146484375;-1.010040283203125;-0.04199139401316643;0.01017114520072937;0.0007150587625801563
0.0243682861328125;0.0716400146484375;-1.010040283203125;-0.04199139401316643;0.01017114520072937;0.0007150587625801563
0.0243682861328125;0.0716400146484375;-1.010040283203125;-0.04199139401316643;0.01017114520072937;0.0007150587625801563
0.0246734619140625;0.0732269287109375;-1.0092620849609375;-0.037751372903585434;0.0062368568032979965;0.0024290692526847124
0.0246734619140625;0.0732269287109375;-1.0092620849609375;-0.037751372903585434;0.0062368568032979965;0.0024290692526847124
0.0246734619140625;0.0732269287109375;-1.0092620849609375;-0.037751372903585434;0.0062368568032979965;0.0024290692526847124
0.0246734619140625;0.0732269287109375;-1.0092620849609375;-0.037751372903585434;0.0062368568032979965;0.0024290692526847124
0.0246734619140625;0.0732269287109375;-1.0092620849609375;-0.037751372903585434;0.0062368568032979965;0.0024290692526847124
0.024810791015625;0.071990966796875;-1.009918212890625;-0.03171132504940033;0.006141249556094408;0.002365685999393463
0.024810791015625;0.071990966796875;-1.009918212890625;-0.03171132504940033;0.006141249556094408;0.002365685999393463
0.024810791015625;0.071990966796875;-1.009918212890625;-0.03171132504940033;0.006141249556094408;0.002365685999393463
0.024810791015625;0.071990966796875;-1.009918212890625;-0.03171132504940033;0.006141249556094408;0.002365685999393463
0.024810791015625;0.071990966796875;-1.009918212890625;-0.03171132504940033;0.006141249556094408;0.002365685999393463
0.0248870849609375;0.071014404296875;-1.0113525390625;-0.028800489380955696;0.005657619331032038;0.0035393410362303257
0.0248870849609375;0.071014404296875;-1.0113525390625;-0.028800489380955696;0.005657619331032038;0.0035393410362303257
0.0248870849609375;0.071014404296875;-1.0113525390625;-0.028800489380955696;0.005657619331032038;0.0035393410362303257
0.0248870849609375;0.071014404296875;-1.0113525390625;-0.028800489380955696;0.005657619331032038;0.0035393410362303257
0.0248870849609375;0.071014404296875;-1.0113525390625;-0.028800489380955696;0.005657619331032038;0.0035393410362303257
0.02459716796875;0.0690155029296875;-1.01129150390625;-0.028484905138611794;0.004580636974424124;0.0048980857245624065
0.02459716796875;0.0690155029296875;-1.01129150390625;-0.028484905138611794;0.004580636974424124;0.0048980857245624065
0.02459716796875;0.0690155029296875;-1.01129150390625;-0.028484905138611794;0.004580636974424124;0.0048980857245624065
0.02459716796875;0.0690155029296875;-1.01129150390625;-0.028484905138611794;0.004580636974424124;0.0048980857245624065
0.02459716796875;0.0690155029296875;-1.01129150390625;-0.028484905138611794;0.004580636974424124;0.0048980857245624065
0.024627685546875;0.0667572021484375;-1.01171875;-0.031923044472932816;0.0006444850005209446;0.00484295841306448
0.024627685546875;0.0667572021484375;-1.01171875;-0.031923044472932816;0.0006444850005209446;0.00484295841306448
0.024627685546875;0.0667572021484375;-1.01171875;-0.031923044472932816;0.0006444850005209446;0.00484295841306448
0.024627685546875;0.0667572021484375;-1.01171875;-0.031923044472932816;0.0006444850005209446;0.00484295841306448
0.024627685546875;0.0667572021484375;-1.01171875;-0.031923044472932816;0.0006444850005209446;0.00484295841306448
0.0245361328125;0.0643310546875;-1.01019287109375;-0.03712979331612587;0.005149754695594311;0.003204049076884985
0.0245361328125;0.0643310546875;-1.01019287109375;-0.03712979331612587;0.005149754695594311;0.003204049076884985
0.0245361328125;0.0643310546875;-1.01019287109375;-0.03712979331612587;0.005149754695594311;0.003204049076884985
0.0245361328125;0.0643310546875;-1.01019287109375;-0.03712979331612587;0.005149754695594311;0.003204049076884985
0.0245361328125;0.0643310546875;-1.01019287109375;-0.03712979331612587;0.005149754695594311;0.003204049076884985
0.025665283203125;0.0635223388671875;-1.0091705322265625;-0.04193147271871567;0.002624278888106346;0.004351072479039431
0.025665283203125;0.0635223388671875;-1.0091705322265625;-0.04193147271871567;0.002624278888106346;0.004351072479039431
0.025665283203125;0.0635223388671875;-1.0091705322265625;-0.04193147271871567;0.002624278888106346;0.004351072479039431
0.025665283203125;0.0635223388671875;-1.0091705322265625;-0.04193147271871567;0.002624278888106346;0.004351072479039431
0.025665283203125;0.0635223388671875;-1.0091705322265625;-0.04193147271871567;0.002624278888106346;0.004351072479039431
0.02593994140625;0.0643157958984375;-1.0093994140625;-0.04297143593430519;-0.001109739183448255;0.004608600400388241
0.02593994140625;0.0643157958984375;-1.0093994140625;-0.04297143593430519;-0.001109739183448255;0.004608600400388241
0.02593994140625;0.0643157958984375;-1.0093994140625;-0.04297143593430519;-0.001109739183448255;0.004608600400388241
0.02593994140625;0.0643157958984375;-1.0093994140625;-0.04297143593430519;-0.001109739183448255;0.004608600400388241
0.02593994140625;0.0643157958984375;-1.0093994140625;-0.04297143593430519;-0.001109739183448255;0.004608600400388241
0.0263214111328125;0.0666351318359375;-1.0086517333984375;-0.044076912105083466;-0.0011608719360083342;0.004316451493650675
0.0263214111328125;0.0666351318359375;-1.0086517333984375;-0.044076912105083466;-0.0011608719360083342;0.004316451493650675
0.0263214111328125;0.0666351318359375;-1.0086517333984375;-0.044076912105083466;-0.0011608719360083342;0.004316451493650675
0.0263214111328125;0.0666351318359375;-1.0086517333984375;-0.044076912105083466;-0.0011608719360083342;0.004316451493650675
0.0263214111328125;0.0666351318359375;-1.0086517333984375;-0.044076912105083466;-0.0011608719360083342;0.004316451493650675
0.026336669921875;0.0681304931640625;-1.0097808837890625;-0.037701573222875595;-0.005014998838305473;0.006709568202495575
0.026336669921875;0.0681304931640625;-1.0097808837890625;-0.037701573222875595;-0.005014998838305473;0.006709568202495575
0.026336669921875;0.0681304931640625;-1.0097808837890625;-0.037701573222875595;-0.005014998838305473;0.006709568202495575
0.026336669921875;0.0681304931640625;-1.0097808837890625;-0.037701573222875595;-0.005014998838305473;0.006709568202495575
0.026336669921875;0.0681304931640625;-1.0097808837890625;-0.037701573222875595;-0.005014998838305473;0.006709568202495575
0.02593994140625;0.069000244140625;-1.0102386474609375;-0.035830434411764145;-0.005466138012707233;0.0064744106493890285
0.02593994140625;0.069000244140625;-1.0102386474609375;-0.035830434411764145;-0.005466138012707233;0.0064744106493890285
0.02593994140625;0.069000244140625;-1.0102386474609375;-0.035830434411764145;-0.005466138012707233;0.0064744106493890285
0.02593994140625;0.069000244140625;-1.0102386474609375;-0.035830434411764145;-0.005466138012707233;0.0064744106493890285
0.02593994140625;0.069000244140625;-1.0102386474609375;-0.035830434411764145;-0.005466138012707233;0.0064744106493890285
0.0255889892578125;0.070281982421875;-1.01025390625;-0.031183751299977303;-0.004025634378194809;0.0027238810434937477
0.0255889892578125;0.070281982421875;-1.01025390625;-0.031183751299977303;-0.004025634378194809;0.0027238810434937477
0.0255889892578125;0.070281982421875;-1.01025390625;-0.031183751299977303;-0.004025634378194809;0.0027238810434937477
0.0255889892578125;0.070281982421875;-1.01025390625;-0.031183751299977303;-0.004025634378194809;0.0027238810434937477
0.0255889892578125;0.070281982421875;-1.01025390625;-0.031183751299977303;-0.004025634378194809;0.0027238810434937477
0.024627685546875;0.0715484619140625;-1.01068115234375;-0.02551334910094738;-0.006167348474264145;0.0037238982040435076
0.024627685546875;0.0715484619140625;-1.01068115234375;-0.02551334910094738;-0.006167348474264145;0.0037238982040435076
0.024627685546875;0.0715484619140625;-1.01068115234375;-0.02551334910094738;-0.006167348474264145;0.0037238982040435076
0.024627685546875;0.0715484619140625;-1.01068115234375;-0.02551334910094738;-0.006167348474264145;0.0037238982040435076
0.024627685546875;0.0715484619140625;-1.01068115234375;-0.02551334910094738;-0.006167348474264145;0.0037238982040435076
0.024261474609375;0.070892333984375;-1.013519287109375;-0.019704196602106094;-0.012635101564228535;0.0037526602391153574
0.024261474609375;0.070892333984375;-1.013519287109375;-0.019704196602106094;-0.012635101564228535;0.0037526602391153574
0.024261474609375;0.070892333984375;-1.013519287109375;-0.019704196602106094;-0.012635101564228535;0.0037526602391153574
0.024261474609375;0.070892333984375;-1.013519287109375;-0.019704196602106094;-0.012635101564228535;0.0037526602391153574
0.024261474609375;0.070892333984375;-1.013519287109375;-0.019704196602106094;-0.012635101564228535;0.0037526602391153574
0.0252685546875;0.070526123046875;-1.0182342529296875;-0.019228821620345116;-0.015659119933843613;0.0033931334037333727
0.0252685546875;0.070526123046875;-1.0182342529296875;-0.019228821620345116;-0.015659119933843613;0.0033931334037333727
0.0252685546875;0.070526123046875;-1.0182342529296875;-0.019228821620345116;-0.015659119933843613;0.0033931334037333727
0.0252685546875;0.070526123046875;-1.0182342529296875;-0.019228821620345116;-0.015659119933843613;0.0033931334037333727
0.0252685546875;0.070526123046875;-1.0182342529296875;-0.019228821620345116;-0.015659119933843613;0.0033931334037333727
0.0257110595703125;0.0702972412109375;-1.01580810546875;-0.028743498027324677;-0.013978665694594383;0.00572925852611661
0.0257110595703125;0.0702972412109375;-1.01580810546875;-0.028743498027324677;-0.013978665694594383;0.00572925852611661
0.0257110595703125;0.0702972412109375;-1.01580810546875;-0.028743498027324677;-0.013978665694594383;0.00572925852611661
0.0257110595703125;0.0702972412109375;-1.01580810546875;-0.028743498027324677;-0.013978665694594383;0.00572925852611661
0.0257110595703125;0.0702972412109375;-1.01580810546875;-0.028743498027324677;-0.013978665694594383;0.00572925852611661
0.02471923828125;0.071258544921875;-1.0072784423828125;-0.04803010821342468;-0.007284810766577721;0.004071440547704697
0.02471923828125;0.071258544921875;-1.0072784423828125;-0.04803010821342468;-0.007284810766577721;0.004071440547704697
0.02471923828125;0.071258544921875;-1.0072784423828125;-0.04803010821342468;-0.007284810766577721;0.004071440547704697
0.02471923828125;0.071258544921875;-1.0072784423828125;-0.04803010821342468;-0.007284810766577721;0.004071440547704697
0.02471923828125;0.071258544921875;-1.0072784423828125;-0.04803010821342468;-0.007284810766577721;0.004071440547704697
0.02264404296875;0.0700836181640625;-1.001556396484375;-0.06118905544281006;0.0022114890161901712;0.005178516730666161
0.02264404296875;0.0700836181640625;-1.001556396484375;-0.06118905544281006;0.0022114890161901712;0.005178516730666161
0.02264404296875;0.0700836181640625;-1.001556396484375;-0.06118905544281006;0.0022114890161901712;0.005178516730666161
0.02264404296875;0.0700836181640625;-1.001556396484375;-0.06118905544281006;0.0022114890161901712;0.005178516730666161
0.02264404296875;0.0700836181640625;-1.001556396484375;-0.06118905544281006;0.0022114890161901712;0.005178516730666161
0.0223388671875;0.0705413818359375;-1.002899169921875;-0.06277310103178024;0.0031766186002641916;0.006976683158427477
0.0223388671875;0.0705413818359375;-1.002899169921875;-0.06277310103178024;0.0031766186002641916;0.006976683158427477
0.0223388671875;0.0705413818359375;-1.002899169921875;-0.06277310103178024;0.0031766186002641916;0.006976683158427477
0.0223388671875;0.0705413818359375;-1.002899169921875;-0.06277310103178024;0.0031766186002641916;0.006976683158427477
0.0223388671875;0.0705413818359375;-1.002899169921875;-0.06277310103178024;0.0031766186002641916;0.006976683158427477
0.0237274169921875;0.0715179443359375;-1.0101318359375;-0.05372501537203789;0.0010631339391693473;0.006088785361498594
0.0237274169921875;0.0715179443359375;-1.0101318359375;-0.05372501537203789;0.0010631339391693473;0.006088785361498594
0.0237274169921875;0.0715179443359375;-1.0101318359375;-0.05372501537203789;0.0010631339391693473;0.006088785361498594
0.0237274169921875;0.0715179443359375;-1.0101318359375;-0.05372501537203789;0.0010631339391693473;0.006088785361498594
0.0237274169921875;0.0715179443359375;-1.0101318359375;-0.05372501537203789;0.0010631339391693473;0.006088785361498594
0.0254669189453125;0.072540283203125;-1.0138092041015625;-0.0483265183866024;-0.0034730283077806234;0.0067572384141385555
0.0254669189453125;0.072540283203125;-1.0138092041015625;-0.0483265183866024;-0.0034730283077806234;0.0067572384141385555
0.0254669189453125;0.072540283203125;-1.0138092041015625;-0.0483265183866024;-0.0034730283077806234;0.0067572384141385555
0.0254669189453125;0.072540283203125;-1.0138092041015625;-0.0483265183866024;-0.0034730283077806234;0.0067572384141385555
0.0254669189453125;0.072540283203125;-1.0138092041015625;-0.0483265183866024;-0.0034730283077806234;0.0067572384141385555
0.0257415771484375;0.07379150390625;-1.01239013671875;-0.03947789967060089;-0.0037236318457871675;0.009514675475656986
0.0257415771484375;0.07379150390625;-1.01239013671875;-0.03947789967060089;-0.0037236318457871675;0.009514675475656986
0.0257415771484375;0.07379150390625;-1.01239013671875;-0.03947789967060089;-0.0037236318457871675;0.009514675475656986
0.0257415771484375;0.07379150390625;-1.01239013671875;-0.03947789967060089;-0.0037236318457871675;0.009514675475656986
0.0257415771484375;0.07379150390625;-1.01239013671875;-0.03947789967060089;-0.0037236318457871675;0.009514675475656986
0.0252227783203125;0.0742340087890625;-1.0103759765625;-0.031156321987509727;-0.001791242160834372;0.008112520910799503
0.0252227783203125;0.0742340087890625;-1.0103759765625;-0.031156321987509727;-0.001791242160834372;0.008112520910799503
0.0252227783203125;0.0742340087890625;-1.0103759765625;-0.031156321987509727;-0.001791242160834372;0.008112520910799503
0.0252227783203125;0.0742340087890625;-1.0103759765625;-0.031156321987509727;-0.001791242160834372;0.008112520910799503
0.0252227783203125;0.0742340087890625;-1.0103759765625;-0.031156321987509727;-0.001791242160834372;0.008112520910799503
0.024322509765625;0.073516845703125;-1.01263427734375;-0.02653919905424118;-0.0029790119733661413;0.00523657351732254
0.024322509765625;0.073516845703125;-1.01263427734375;-0.02653919905424118;-0.0029790119733661413;0.00523657351732254
0.024322509765625;0.073516845703125;-1.01263427734375;-0.02653919905424118;-0.0029790119733661413;0.00523657351732254
0.024322509765625;0.073516845703125;-1.01263427734375;-0.02653919905424118;-0.0029790119733661413;0.00523657351732254
0.024322509765625;0.073516845703125;-1.01263427734375;-0.02653919905424118;-0.0029790119733661413;0.00523657351732254
0.02398681640625;0.072357177734375;-1.0143890380859375;-0.02250504307448864;-0.0068027786910533905;0.00580862071365118
0.02398681640625;0.072357177734375;-1.0143890380859375;-0.02250504307448864;-0.0068027786910533905;0.00580862071365118
0.02398681640625;0.072357177734375;-1.0143890380859375;-0.02250504307448864;-0.0068027786910533905;0.00580862071365118
0.02398681640625;0.072357177734375;-1.0143890380859375;-0.02250504307448864;-0.0068027786910533905;0.00580862071365118
0.02398681640625;0.072357177734375;-1.0143890380859375;-0.02250504307448864;-0.0068027786910533905;0.00580862071365118
0.023345947265625;0.071746826171875;-1.0158538818359375;-0.012709936127066612;-0.009644904173910618;0.0036671727430075407
0.023345947265625;0.071746826171875;-1.0158538818359375;-0.012709936127066612;-0.009644904173910618;0.0036671727430075407
0.023345947265625;0.071746826171875;-1.0158538818359375;-0.012709936127066612;-0.009644904173910618;0.0036671727430075407
0.023345947265625;0.071746826171875;-1.0158538818359375;-0.012709936127066612;-0.009644904173910618;0.0036671727430075407
0.023345947265625;0.071746826171875;-1.0158538818359375;-0.012709936127066612;-0.009644904173910618;0.0036671727430075407
0.024932861328125;0.07232666015625;-1.0159454345703125;-0.01209927350282669;-0.006758037488907576;0.003615241264924407
0.024932861328125;0.07232666015625;-1.0159454345703125;-0.01209927350282669;-0.006758037488907576;0.003615241264924407
0.024932861328125;0.07232666015625;-1.0159454345703125;-0.01209927350282669;-0.006758037488907576;0.003615241264924407
0.024932861328125;0.07232666015625;-1.0159454345703125;-0.01209927350282669;-0.006758037488907576;0.003615241264924407
0.024932861328125;0.07232666015625;-1.0159454345703125;-0.01209927350282669;-0.006758037488907576;0.003615241264924407
0.024993896484375;0.0721588134765625;-1.0149688720703125;-0.011590342968702316;-0.008917062543332577;0.0037175065372139215
0.024993896484375;0.0721588134765625;-1.0149688720703125;-0.011590342968702316;-0.008917062543332577;0.0037175065372139215
0.024993896484375;0.0721588134765625;-1.0149688720703125;-0.011590342968702316;-0.008917062543332577;0.0037175065372139215
0.024993896484375;0.0721588134765625;-1.0149688720703125;-0.011590342968702316;-0.008917062543332577;0.0037175065372139215
0.024993896484375;0.0721588134765625;-1.0149688720703125;-0.019040003418922424;-0.010867561213672161;0.002889796160161495
0.0252227783203125;0.0732879638671875;-1.011474609375;-0.019040003418922424;-0.010867561213672161;0.002889796160161495
0.0252227783203125;0.0732879638671875;-1.011474609375;-0.019040003418922424;-0.010867561213672161;0.002889796160161495
0.0252227783203125;0.0732879638671875;-1.011474609375;-0.019040003418922424;-0.010867561213672161;0.002889796160161495
0.0252227783203125;0.0732879638671875;-1.011474609375;-0.019040003418922424;-0.010867561213672161;0.002889796160161495
0.0252227783203125;0.0732879638671875;-1.011474609375;-0.02291756682097912;-0.009011604823172092;0.003090332029387355
0.0261077880859375;0.0743560791015625;-1.0100555419921875;-0.02291756682097912;-0.009011604823172092;0.003090332029387355
0.0261077880859375;0.0743560791015625;-1.0100555419921875;-0.02291756682097912;-0.009011604823172092;0.003090332029387355
0.0261077880859375;0.0743560791015625;-1.0100555419921875;-0.02291756682097912;-0.009011604823172092;0.003090332029387355
0.0261077880859375;0.0743560791015625;-1.0100555419921875;-0.02291756682097912;-0.009011604823172092;0.003090332029387355
0.0261077880859375;0.0743560791015625;-1.0100555419921875;-0.02799142152070999;-0.013245231471955776;0.004632302559912205
0.0257415771484375;0.0751953125;-1.0083770751953125;-0.02799142152070999;-0.013245231471955776;0.004632302559912205
0.0257415771484375;0.0751953125;-1.0083770751953125;-0.02799142152070999;-0.013245231471955776;0.004632302559912205
0.0257415771484375;0.0751953125;-1.0083770751953125;-0.02799142152070999;-0.013245231471955776;0.004632302559912205
0.0257415771484375;0.0751953125;-1.0083770751953125;-0.02799142152070999;-0.013245231471955776;0.004632302559912205
0.0257415771484375;0.0751953125;-1.0083770751953125;-0.02799142152070999;-0.013245231471955776;0.004632302559912205
0.0264892578125;0.076385498046875;-1.0083160400390625;-0.026081668213009834;-0.007608384825289249;0.002058357233181596
0.0264892578125;0.076385498046875;-1.0083160400390625;-0.026081668213009834;-0.007608384825289249;0.002058357233181596
0.0264892578125;0.076385498046875;-1.0083160400390625;-0.026081668213009834;-0.007608384825289249;0.002058357233181596
0.0264892578125;0.076385498046875;-1.0083160400390625;-0.026081668213009834;-0.007608384825289249;0.002058357233181596
0.025909423828125;0.076812744140625;-1.0080108642578125;-0.023388413712382317;-0.007138070650398731;0.001788312685675919
0.025909423828125;0.076812744140625;-1.0080108642578125;-0.023388413712382317;-0.007138070650398731;0.001788312685675919
0.025909423828125;0.076812744140625;-1.0080108642578125;-0.023388413712382317;-0.007138070650398731;0.001788312685675919
0.025909423828125;0.076812744140625;-1.0080108642578125;-0.023388413712382317;-0.007138070650398731;0.001788312685675919
0.025909423828125;0.076812744140625;-1.0080108642578125;-0.023388413712382317;-0.007138070650398731;0.001788312685675919
0.0253448486328125;0.0771331787109375;-1.0072021484375;-0.022462697699666023;-0.005645635072141886;0.004545749630779028
0.0253448486328125;0.0771331787109375;-1.0072021484375;-0.022462697699666023;-0.005645635072141886;0.004545749630779028
0.0253448486328125;0.0771331787109375;-1.0072021484375;-0.022462697699666023;-0.005645635072141886;0.004545749630779028
0.0253448486328125;0.0771331787109375;-1.0072021484375;-0.022462697699666023;-0.005645635072141886;0.004545749630779028
0.0253448486328125;0.0771331787109375;-1.0072021484375;-0.022462697699666023;-0.005645635072141886;0.004545749630779028
0.0247650146484375;0.0773773193359375;-1.008087158203125;-0.01798991858959198;-0.00407543545588851;0.0028362665325403214
0.0247650146484375;0.0773773193359375;-1.008087158203125;-0.01798991858959198;-0.00407543545588851;0.0028362665325403214
0.0247650146484375;0.0773773193359375;-1.008087158203125;-0.01798991858959198;-0.00407543545588851;0.0028362665325403214
0.0247650146484375;0.0773773193359375;-1.008087158203125;-0.01798991858959198;-0.00407543545588851;0.0028362665325403214
0.0247650146484375;0.0773773193359375;-1.008087158203125;-0.01798991858959198;-0.00407543545588851;0.0028362665325403214
0.024627685546875;0.07757568359375;-1.0087432861328125;-0.014522217214107513;-0.005389705300331116;-8.442220860160887e-05
0.024627685546875;0.07757568359375;-1.0087432861328125;-0.014522217214107513;-0.005389705300331116;-8.442220860160887e-05
0.024627685546875;0.07757568359375;-1.0087432861328125;-0.014522217214107513;-0.005389705300331116;-8.442220860160887e-05
0.024627685546875;0.07757568359375;-1.0087432861328125;-0.014522217214107513;-0.005389705300331116;-8.442220860160887e-05
0.024627685546875;0.07757568359375;-1.0087432861328125;-0.014522217214107513;-0.005389705300331116;-8.442220860160887e-05
0.0240325927734375;0.0774688720703125;-1.008514404296875;-0.012104067020118237;-0.002916427794843912;-0.0003581951605156064
0.0240325927734375;0.0774688720703125;-1.008514404296875;-0.012104067020118237;-0.002916427794843912;-0.0003581951605156064
0.0240325927734375;0.0774688720703125;-1.008514404296875;-0.012104067020118237;-0.002916427794843912;-0.0003581951605156064
0.0240325927734375;0.0774688720703125;-1.008514404296875;-0.012104067020118237;-0.002916427794843912;-0.0003581951605156064
0.0240325927734375;0.0774688720703125;-1.008514404296875;-0.012104067020118237;-0.002916427794843912;-0.0003581951605156064
0.02423095703125;0.0769805908203125;-1.0091552734375;-0.007822236977517605;-0.0029345371294766665;0.0009052084642462432
0.02423095703125;0.0769805908203125;-1.0091552734375;-0.007822236977517605;-0.0029345371294766665;0.0009052084642462432
0.02423095703125;0.0769805908203125;-1.0091552734375;-0.007822236977517605;-0.0029345371294766665;0.0009052084642462432
0.02423095703125;0.0769805908203125;-1.0091552734375;-0.007822236977517605;-0.0029345371294766665;0.0009052084642462432
0.02423095703125;0.0769805908203125;-1.0091552734375;-0.007822236977517605;-0.0029345371294766665;0.0009052084642462432
0.024383544921875;0.0767974853515625;-1.0104217529296875;-0.0035627768374979496;-0.00700837466865778;0.0020418455824255943
0.024383544921875;0.0767974853515625;-1.0104217529296875;-0.0035627768374979496;-0.00700837466865778;0.0020418455824255943
0.024383544921875;0.0767974853515625;-1.0104217529296875;-0.0035627768374979496;-0.00700837466865778;0.0020418455824255943
0.024383544921875;0.0767974853515625;-1.0104217529296875;-0.0035627768374979496;-0.00700837466865778;0.0020418455824255943
0.024383544921875;0.0767974853515625;-1.0104217529296875;-0.0035627768374979496;-0.00700837466865778;0.0020418455824255943
0.0246734619140625;0.0774383544921875;-1.0099029541015625;-0.0020849888678640127;-0.0005629922379739583;0.003294330323114991
0.0246734619140625;0.0774383544921875;-1.0099029541015625;-0.0020849888678640127;-0.0005629922379739583;0.003294330323114991
0.0246734619140625;0.0774383544921875;-1.0099029541015625;-0.0020849888678640127;-0.0005629922379739583;0.003294330323114991
0.0246734619140625;0.0774383544921875;-1.0099029541015625;-0.0020849888678640127;-0.0005629922379739583;0.003294330323114991
0.0246734619140625;0.0774383544921875;-1.0099029541015625;-0.0020849888678640127;-0.0005629922379739583;0.003294330323114991
0.0240631103515625;0.07818603515625;-1.00885009765625;0.006080262828618288;-0.00022903185163158923;0.0016170714516192675
0.0240631103515625;0.07818603515625;-1.00885009765625;0.006080262828618288;-0.00022903185163158923;0.0016170714516192675
0.0240631103515625;0.07818603515625;-1.00885009765625;0.006080262828618288;-0.00022903185163158923;0.0016170714516192675
0.0240631103515625;0.07818603515625;-1.00885009765625;0.006080262828618288;-0.00022903185163158923;0.0016170714516192675
0.0240631103515625;0.07818603515625;-1.00885009765625;0.006080262828618288;-0.00022903185163158923;0.0016170714516192675
0.0242462158203125;0.078887939453125;-1.0090789794921875;0.006376939360052347;-0.00035952674807049334;0.001710814656689763
0.0242462158203125;0.078887939453125;-1.0090789794921875;0.006376939360052347;-0.00035952674807049334;0.001710814656689763
0.0242462158203125;0.078887939453125;-1.0090789794921875;0.006376939360052347;-0.00035952674807049334;0.001710814656689763
0.0242462158203125;0.078887939453125;-1.0090789794921875;0.006376939360052347;-0.00035952674807049334;0.001710814656689763
0.0242462158203125;0.078887939453125;-1.0090789794921875;0.006376939360052347;-0.00035952674807049334;0.001710814656689763
0.0247955322265625;0.07794189453125;-1.0087890625;0.012859872542321682;0.0004495415778364986;0.001680720946751535
0.0247955322265625;0.07794189453125;-1.0087890625;0.012859872542321682;0.0004495415778364986;0.001680720946751535
0.0247955322265625;0.07794189453125;-1.0087890625;0.012859872542321682;0.0004495415778364986;0.001680720946751535
0.0247955322265625;0.07794189453125;-1.0087890625;0.012859872542321682;0.0004495415778364986;0.001680720946751535
0.0247955322265625;0.07794189453125;-1.0087890625;0.012859872542321682;0.0004495415778364986;0.001680720946751535
0.025421142578125;0.0780029296875;-1.0088958740234375;0.01158395130187273;0.00042583944741636515;0.002284193178638816
0.025421142578125;0.0780029296875;-1.0088958740234375;0.01158395130187273;0.00042583944741636515;0.002284193178638816
0.025421142578125;0.0780029296875;-1.0088958740234375;0.01158395130187273;0.00042583944741636515;0.002284193178638816
0.025421142578125;0.0780029296875;-1.0088958740234375;0.01158395130187273;0.00042583944741636515;0.002284193178638816
0.025421142578125;0.0780029296875;-1.0088958740234375;0.01158395130187273;0.00042583944741636515;0.002284193178638816
0.02508544921875;0.07806396484375;-1.0091552734375;0.010953848250210285;0.0008234494016505778;0.0032495891209691763
0.02508544921875;0.07806396484375;-1.0091552734375;0.010953848250210285;0.0008234494016505778;0.0032495891209691763
0.02508544921875;0.07806396484375;-1.0091552734375;0.010953848250210285;0.0008234494016505778;0.0032495891209691763
0.02508544921875;0.07806396484375;-1.0091552734375;0.010953848250210285;0.0008234494016505778;0.0032495891209691763
0.02508544921875;0.07806396484375;-1.0091552734375;0.010953848250210285;0.0008234494016505778;0.0032495891209691763
0.0246429443359375;0.0771636962890625;-1.0087738037109375;0.01287238858640194;-0.0014008227735757828;0.0015968313673511147
0.0246429443359375;0.0771636962890625;-1.0087738037109375;0.01287238858640194;-0.0014008227735757828;0.0015968313673511147
0.0246429443359375;0.0771636962890625;-1.0087738037109375;0.01287238858640194;-0.0014008227735757828;0.0015968313673511147
0.0246429443359375;0.0771636962890625;-1.0087738037109375;0.01287238858640194;-0.0014008227735757828;0.0015968313673511147
0.0246429443359375;0.0771636962890625;-1.0087738037109375;0.01287238858640194;-0.0014008227735757828;0.0015968313673511147
0.0246124267578125;0.0770416259765625;-1.0089874267578125;0.012976252473890781;-0.0010972223244607449;0.002089516259729862
0.0246124267578125;0.0770416259765625;-1.0089874267578125;0.012976252473890781;-0.0010972223244607449;0.002089516259729862
0.0246124267578125;0.0770416259765625;-1.0089874267578125;0.012976252473890781;-0.0010972223244607449;0.002089516259729862
0.0246124267578125;0.0770416259765625;-1.0089874267578125;0.012976252473890781;-0.0010972223244607449;0.002089516259729862
0.0246124267578125;0.0770416259765625;-1.0089874267578125;0.012976252473890781;-0.0010972223244607449;0.002089516259729862
0.0250396728515625;0.07672119140625;-1.0082855224609375;0.010159427300095558;-0.0021797972731292248;-0.0010066748363897204
0.0250396728515625;0.07672119140625;-1.0082855224609375;0.010159427300095558;-0.0021797972731292248;-0.0010066748363897204
0.0250396728515625;0.07672119140625;-1.0082855224609375;0.010159427300095558;-0.0021797972731292248;-0.0010066748363897204
0.0250396728515625;0.07672119140625;-1.0082855224609375;0.010159427300095558;-0.0021797972731292248;-0.0010066748363897204
0.0250396728515625;0.07672119140625;-1.0082855224609375;0.010159427300095558;-0.0021797972731292248;-0.0010066748363897204
0.024505615234375;0.075225830078125;-1.007110595703125;0.008410795591771603;-0.0023995081428438425;0.0007656587986275554
0.024505615234375;0.075225830078125;-1.007110595703125;0.008410795591771603;-0.0023995081428438425;0.0007656587986275554
0.024505615234375;0.075225830078125;-1.007110595703125;0.008410795591771603;-0.0023995081428438425;0.0007656587986275554
0.024505615234375;0.075225830078125;-1.007110595703125;0.008410795591771603;-0.0023995081428438425;0.0007656587986275554
0.024505615234375;0.075225830078125;-1.007110595703125;0.008410795591771603;-0.0023995081428438425;0.0007656587986275554
0.02459716796875;0.07421875;-1.007476806640625;0.006265352945774794;-0.004348675720393658;0.0007707187905907631
0.02459716796875;0.07421875;-1.007476806640625;0.006265352945774794;-0.004348675720393658;0.0007707187905907631
0.02459716796875;0.07421875;-1.007476806640625;0.006265352945774794;-0.004348675720393658;0.0007707187905907631
0.02459716796875;0.07421875;-1.007476806640625;0.006265352945774794;-0.004348675720393658;0.0007707187905907631
0.02459716796875;0.07421875;-1.007476806640625;0.006265352945774794;-0.004348675720393658;0.0007707187905907631
0.024139404296875;0.0741729736328125;-1.0082855224609375;0.008979380130767822;-0.00433029979467392;0.0010817759903147817
0.024139404296875;0.0741729736328125;-1.0082855224609375;0.008979380130767822;-0.00433029979467392;0.0010817759903147817
0.024139404296875;0.0741729736328125;-1.0082855224609375;0.008979380130767822;-0.00433029979467392;0.0010817759903147817
0.024139404296875;0.0741729736328125;-1.0082855224609375;0.008979380130767822;-0.00433029979467392;0.0010817759903147817
0.024139404296875;0.0741729736328125;-1.0082855224609375;0.008979380130767822;-0.00433029979467392;0.0010817759903147817
0.0236968994140625;0.07354736328125;-1.009552001953125;0.012224175967276096;-0.007800132501870394;0.0033308155834674835
0.0236968994140625;0.07354736328125;-1.009552001953125;0.012224175967276096;-0.007800132501870394;0.0033308155834674835
0.0236968994140625;0.07354736328125;-1.009552001953125;0.012224175967276096;-0.007800132501870394;0.0033308155834674835
0.0236968994140625;0.07354736328125;-1.009552001953125;0.012224175967276096;-0.007800132501870394;0.0033308155834674835
0.0236968994140625;0.07354736328125;-1.009552001953125;0.012224175967276096;-0.007800132501870394;0.0033308155834674835
0.02520751953125;0.07366943359375;-1.010162353515625;0.014126737602055073;-0.005922071170061827;0.00603365758433938
0.02520751953125;0.07366943359375;-1.010162353515625;0.014126737602055073;-0.005922071170061827;0.00603365758433938
0.02520751953125;0.07366943359375;-1.010162353515625;0.014126737602055073;-0.005922071170061827;0.00603365758433938
0.02520751953125;0.07366943359375;-1.010162353515625;0.014126737602055073;-0.005922071170061827;0.00603365758433938
0.02520751953125;0.07366943359375;-1.010162353515625;0.014126737602055073;-0.005922071170061827;0.00603365758433938
0.0244140625;0.07330322265625;-1.0099639892578125;0.013918212614953518;-0.00629065278917551;0.0031076427549123764
0.0244140625;0.07330322265625;-1.0099639892578125;0.013918212614953518;-0.00629065278917551;0.0031076427549123764
0.0244140625;0.07330322265625;-1.0099639892578125;0.013918212614953518;-0.00629065278917551;0.0031076427549123764
0.0244140625;0.07330322265625;-1.0099639892578125;0.013918212614953518;-0.00629065278917551;0.0031076427549123764
0.0244140625;0.07330322265625;-1.0099639892578125;0.013918212614953518;-0.00629065278917551;0.0031076427549123764
0.0243072509765625;0.073577880859375;-1.010101318359375;0.018733739852905273;-0.006044842768460512;0.004917260725051165
0.0243072509765625;0.073577880859375;-1.010101318359375;0.018733739852905273;-0.006044842768460512;0.004917260725051165
0.0243072509765625;0.073577880859375;-1.010101318359375;0.018733739852905273;-0.006044842768460512;0.004917260725051165
0.0243072509765625;0.073577880859375;-1.010101318359375;0.018733739852905273;-0.006044842768460512;0.004917260725051165
0.0243072509765625;0.073577880859375;-1.010101318359375;0.018733739852905273;-0.006044842768460512;0.004917260725051165
0.0236053466796875;0.0750885009765625;-1.010101318359375;0.019451994448900223;-0.003850398352369666;0.0024535702541470528
0.0236053466796875;0.0750885009765625;-1.010101318359375;0.019451994448900223;-0.003850398352369666;0.0024535702541470528
0.0236053466796875;0.0750885009765625;-1.010101318359375;0.019451994448900223;-0.003850398352369666;0.0024535702541470528
0.0236053466796875;0.0750885009765625;-1.010101318359375;0.019451994448900223;-0.003850398352369666;0.0024535702541470528
0.0236053466796875;0.0750885009765625;-1.010101318359375;0.019451994448900223;-0.003850398352369666;0.0024535702541470528
0.0235595703125;0.0757598876953125;-1.009674072265625;0.01974148117005825;-0.003085272153839469;0.00839588139206171
0.0235595703125;0.0757598876953125;-1.009674072265625;0.01974148117005825;-0.003085272153839469;0.00839588139206171
0.0235595703125;0.0757598876953125;-1.009674072265625;0.01974148117005825;-0.003085272153839469;0.00839588139206171
0.0235595703125;0.0757598876953125;-1.009674072265625;0.01974148117005825;-0.003085272153839469;0.00839588139206171
0.0235595703125;0.0757598876953125;-1.009674072265625;0.01974148117005825;-0.003085272153839469;0.00839588139206171
0.0232696533203125;0.075347900390625;-1.0091400146484375;0.02015027590095997;-0.0010378338629379869;0.005916744936257601
0.0232696533203125;0.075347900390625;-1.0091400146484375;0.02015027590095997;-0.0010378338629379869;0.005916744936257601
0.0232696533203125;0.075347900390625;-1.0091400146484375;0.02015027590095997;-0.0010378338629379869;0.005916744936257601
0.0232696533203125;0.075347900390625;-1.0091400146484375;0.02015027590095997;-0.0010378338629379869;0.005916744936257601
0.0232696533203125;0.075347900390625;-1.0091400146484375;0.02015027590095997;-0.0010378338629379869;0.005916744936257601
0.023681640625;0.075714111328125;-1.00921630859375;0.01914226822555065;-0.00205276464112103;0.0034205641131848097
0.023681640625;0.075714111328125;-1.00921630859375;0.01914226822555065;-0.00205276464112103;0.0034205641131848097
0.023681640625;0.075714111328125;-1.00921630859375;0.01914226822555065;-0.00205276464112103;0.0034205641131848097
0.023681640625;0.075714111328125;-1.00921630859375;0.01914226822555065;-0.00205276464112103;0.0034205641131848097
0.023681640625;0.075714111328125;-1.00921630859375;0.01914226822555065;-0.00205276464112103;0.0034205641131848097
0.023712158203125;0.074371337890625;-1.0105438232421875;0.01575632579624653;-0.005576925817877054;0.002020007697865367
0.023712158203125;0.074371337890625;-1.0105438232421875;0.01575632579624653;-0.005576925817877054;0.002020007697865367
0.023712158203125;0.074371337890625;-1.0105438232421875;0.01575632579624653;-0.005576925817877054;0.002020007697865367
0.023712158203125;0.074371337890625;-1.0105438232421875;0.01575632579624653;-0.005576925817877054;0.002020007697865367
0.023712158203125;0.074371337890625;-1.0105438232421875;0.01575632579624653;-0.005576925817877054;0.002020007697865367
0.0243377685546875;0.074737548828125;-1.0108795166015625;0.013966149650514126;-0.0054581486620008945;0.002710299100726843
0.0243377685546875;0.074737548828125;-1.0108795166015625;0.013966149650514126;-0.0054581486620008945;0.002710299100726843
0.0243377685546875;0.074737548828125;-1.0108795166015625;0.013966149650514126;-0.0054581486620008945;0.002710299100726843
0.0243377685546875;0.074737548828125;-1.0108795166015625;0.013966149650514126;-0.0054581486620008945;0.002710299100726843
0.0243377685546875;0.074737548828125;-1.0108795166015625;0.013966149650514126;-0.0054581486620008945;0.002710299100726843
0.0250091552734375;0.07525634765625;-1.010833740234375;0.013433516956865788;-0.004318581894040108;0.005655488930642605
0.0250091552734375;0.07525634765625;-1.010833740234375;0.013433516956865788;-0.004318581894040108;0.005655488930642605
0.0250091552734375;0.07525634765625;-1.010833740234375;0.013433516956865788;-0.004318581894040108;0.005655488930642605
0.0250091552734375;0.07525634765625;-1.010833740234375;0.013433516956865788;-0.004318581894040108;0.005655488930642605
0.0250091552734375;0.07525634765625;-1.010833740234375;0.013433516956865788;-0.004318581894040108;0.005655488930642605
0.0250091552734375;0.074188232421875;-1.0104217529296875;0.013117932714521885;-0.005303951445966959;0.004488757811486721
0.0250091552734375;0.074188232421875;-1.0104217529296875;0.013117932714521885;-0.005303951445966959;0.004488757811486721
0.0250091552734375;0.074188232421875;-1.0104217529296875;0.013117932714521885;-0.005303951445966959;0.004488757811486721
0.0250091552734375;0.074188232421875;-1.0104217529296875;0.013117932714521885;-0.005303951445966959;0.004488757811486721
0.0250091552734375;0.074188232421875;-1.0104217529296875;0.013117932714521885;-0.005303951445966959;0.004488757811486721
0.025787353515625;0.0737457275390625;-1.0108489990234375;0.01363298762589693;-0.007959122769534588;0.004564391914755106
0.025787353515625;0.0737457275390625;-1.0108489990234375;0.01363298762589693;-0.007959122769534588;0.004564391914755106
0.025787353515625;0.0737457275390625;-1.0108489990234375;0.01363298762589693;-0.007959122769534588;0.004564391914755106
0.025787353515625;0.0737457275390625;-1.0108489990234375;0.01363298762589693;-0.007959122769534588;0.004564391914755106
0.025787353515625;0.0737457275390625;-1.0108489990234375;0.01363298762589693;-0.007959122769534588;0.004564391914755106
0.0251007080078125;0.0739898681640625;-1.0117340087890625;0.016274843364953995;-0.005417668726295233;0.004592621233314276
0.0251007080078125;0.0739898681640625;-1.0117340087890625;0.016274843364953995;-0.005417668726295233;0.004592621233314276
0.0251007080078125;0.0739898681640625;-1.0117340087890625;0.016274843364953995;-0.005417668726295233;0.004592621233314276
0.0251007080078125;0.0739898681640625;-1.0117340087890625;0.016274843364953995;-0.005417668726295233;0.004592621233314276
0.0251007080078125;0.0739898681640625;-1.0117340087890625;0.016274843364953995;-0.005417668726295233;0.004592621233314276
0.0247039794921875;0.0738983154296875;-1.0121307373046875;0.01733611337840557;-0.004403803031891584;0.0020607539918273687
0.0247039794921875;0.0738983154296875;-1.0121307373046875;0.01733611337840557;-0.004403803031891584;0.0020607539918273687
0.0247039794921875;0.0738983154296875;-1.0121307373046875;0.01733611337840557;-0.004403803031891584;0.0020607539918273687
0.0247039794921875;0.0738983154296875;-1.0121307373046875;0.01733611337840557;-0.004403803031891584;0.0020607539918273687
0.0247039794921875;0.0738983154296875;-1.0121307373046875;0.01733611337840557;-0.004403803031891584;0.0020607539918273687
0.0249786376953125;0.072540283203125;-1.01043701171875;0.014851383864879608;-0.005488774739205837;0.0026373283471912146
0.0249786376953125;0.072540283203125;-1.01043701171875;0.014851383864879608;-0.005488774739205837;0.0026373283471912146
0.0249786376953125;0.072540283203125;-1.01043701171875;0.014851383864879608;-0.005488774739205837;0.0026373283471912146
0.0249786376953125;0.072540283203125;-1.01043701171875;0.014851383864879608;-0.005488774739205837;0.0026373283471912146
0.0249786376953125;0.072540283203125;-1.01043701171875;0.014851383864879608;-0.005488774739205837;0.0026373283471912146
0.0244903564453125;0.072113037109375;-1.0109100341796875;0.015001320280134678;-0.008458998054265976;0.0038810246624052525
0.0244903564453125;0.072113037109375;-1.0109100341796875;0.015001320280134678;-0.008458998054265976;0.0038810246624052525
0.0244903564453125;0.072113037109375;-1.0109100341796875;0.015001320280134678;-0.008458998054265976;0.0038810246624052525
0.0244903564453125;0.072113037109375;-1.0109100341796875;0.015001320280134678;-0.008458998054265976;0.0038810246624052525
0.0244903564453125;0.072113037109375;-1.0109100341796875;0.015001320280134678;-0.008458998054265976;0.0038810246624052525
0.0236968994140625;0.0737457275390625;-1.010589599609375;0.009610549546778202;-0.007137005217373371;-0.00010359696898376569
0.0236968994140625;0.0737457275390625;-1.010589599609375;0.009610549546778202;-0.007137005217373371;-0.00010359696898376569
0.0236968994140625;0.0737457275390625;-1.010589599609375;0.009610549546778202;-0.007137005217373371;-0.00010359696898376569
0.0236968994140625;0.0737457275390625;-1.010589599609375;0.009610549546778202;-0.007137005217373371;-0.00010359696898376569
0.0236968994140625;0.0737457275390625;-1.010589599609375;0.008416121825575829;-0.005940180737525225;-0.0006471481174230576
0.024627685546875;0.074249267578125;-1.0070648193359375;0.008416121825575829;-0.005940180737525225;-0.0006471481174230576
0.024627685546875;0.074249267578125;-1.0070648193359375;0.008416121825575829;-0.005940180737525225;-0.0006471481174230576
0.024627685546875;0.074249267578125;-1.0070648193359375;0.008416121825575829;-0.005940180737525225;-0.0006471481174230576
0.024627685546875;0.074249267578125;-1.0070648193359375;0.008416121825575829;-0.005940180737525225;-0.0006471481174230576
0.024627685546875;0.074249267578125;-1.0070648193359375;0.007469367701560259;-0.001853560097515583;-0.0010396981379017234
0.0248870849609375;0.0742950439453125;-1.0060577392578125;0.007469367701560259;-0.001853560097515583;-0.0010396981379017234
0.0248870849609375;0.0742950439453125;-1.0060577392578125;0.007469367701560259;-0.001853560097515583;-0.0010396981379017234
0.0248870849609375;0.0742950439453125;-1.0060577392578125;0.007469367701560259;-0.001853560097515583;-0.0010396981379017234
0.0248870849609375;0.0742950439453125;-1.0060577392578125;0.007469367701560259;-0.001853560097515583;-0.0010396981379017234
0.0248870849609375;0.0742950439453125;-1.0060577392578125;0.01570146530866623;0.002814961364492774;0.005025917664170265
0.0262451171875;0.0737152099609375;-1.0076751708984375;0.01570146530866623;0.002814961364492774;0.005025917664170265
0.0262451171875;0.0737152099609375;-1.0076751708984375;0.01570146530866623;0.002814961364492774;0.005025917664170265
0.0262451171875;0.0737152099609375;-1.0076751708984375;0.01570146530866623;0.002814961364492774;0.005025917664170265
0.0262451171875;0.0737152099609375;-1.0076751708984375;0.01570146530866623;0.002814961364492774;0.005025917664170265
0.0262451171875;0.0737152099609375;-1.0076751708984375;0.029097165912389755;-0.0011086739832535386;0.0010673949727788568
0.0265350341796875;0.0731353759765625;-1.0130615234375;0.029097165912389755;-0.0011086739832535386;0.0010673949727788568
0.0265350341796875;0.0731353759765625;-1.0130615234375;0.029097165912389755;-0.0011086739832535386;0.0010673949727788568
0.0265350341796875;0.0731353759765625;-1.0130615234375;0.029097165912389755;-0.0011086739832535386;0.0010673949727788568
0.0265350341796875;0.0731353759765625;-1.0130615234375;0.029097165912389755;-0.0011086739832535386;0.0010673949727788568
0.0264892578125;0.0733642578125;-1.0154266357421875;0.032704152166843414;0.0037702370900660753;0.0013683321885764599
0.0264892578125;0.0733642578125;-1.0154266357421875;0.032704152166843414;0.0037702370900660753;0.0013683321885764599
0.0264892578125;0.0733642578125;-1.0154266357421875;0.032704152166843414;0.0037702370900660753;0.0013683321885764599
0.0264892578125;0.0733642578125;-1.0154266357421875;0.032704152166843414;0.0037702370900660753;0.0013683321885764599
0.0264892578125;0.0733642578125;-1.0154266357421875;0.032704152166843414;0.0037702370900660753;0.0013683321885764599
0.0262908935546875;0.070709228515625;-1.012359619140625;0.034079406410455704;0.0036634444259107113;0.002252235310152173
0.0262908935546875;0.070709228515625;-1.012359619140625;0.034079406410455704;0.0036634444259107113;0.002252235310152173
0.0262908935546875;0.070709228515625;-1.012359619140625;0.034079406410455704;0.0036634444259107113;0.002252235310152173
0.0262908935546875;0.070709228515625;-1.012359619140625;0.034079406410455704;0.0036634444259107113;0.002252235310152173
0.0262908935546875;0.070709228515625;-1.012359619140625;0.034079406410455704;0.0036634444259107113;0.002252235310152173
0.02398681640625;0.0689239501953125;-1.009857177734375;0.03232758119702339;0.0004194478678982705;0.0008082693675532937
0.02398681640625;0.0689239501953125;-1.009857177734375;0.03232758119702339;0.0004194478678982705;0.0008082693675532937
0.02398681640625;0.0689239501953125;-1.009857177734375;0.03232758119702339;0.0004194478678982705;0.0008082693675532937
0.02398681640625;0.0689239501953125;-1.009857177734375;0.03232758119702339;0.0004194478678982705;0.0008082693675532937
0.02398681640625;0.0689239501953125;-1.009857177734375;0.03232758119702339;0.0004194478678982705;0.0008082693675532937
0.023834228515625;0.0691680908203125;-1.013458251953125;0.03142903000116348;-0.008694687858223915;-0.0004849616379942745
0.023834228515625;0.0691680908203125;-1.013458251953125;0.03142903000116348;-0.008694687858223915;-0.0004849616379942745
0.023834228515625;0.0691680908203125;-1.013458251953125;0.03142903000116348;-0.008694687858223915;-0.0004849616379942745
0.023834228515625;0.0691680908203125;-1.013458251953125;0.03142903000116348;-0.008694687858223915;-0.0004849616379942745
0.023834228515625;0.0691680908203125;-1.013458251953125;0.03142903000116348;-0.008694687858223915;-0.0004849616379942745
0.0259552001953125;0.0687713623046875;-1.0135040283203125;0.026706978678703308;-0.010034524835646152;0.002040247665718198
0.0259552001953125;0.0687713623046875;-1.0135040283203125;0.026706978678703308;-0.010034524835646152;0.002040247665718198
0.0259552001953125;0.0687713623046875;-1.0135040283203125;0.026706978678703308;-0.010034524835646152;0.002040247665718198
0.0259552001953125;0.0687713623046875;-1.0135040283203125;0.026706978678703308;-0.010034524835646152;0.002040247665718198
0.0259552001953125;0.0687713623046875;-1.0135040283203125;0.026706978678703308;-0.010034524835646152;0.002040247665718198
0.0257568359375;0.068389892578125;-1.01123046875;0.024578846991062164;-0.009968211874365807;0.0001512675517005846
0.0257568359375;0.068389892578125;-1.01123046875;0.024578846991062164;-0.009968211874365807;0.0001512675517005846
0.0257568359375;0.068389892578125;-1.01123046875;0.024578846991062164;-0.009968211874365807;0.0001512675517005846
0.0257568359375;0.068389892578125;-1.01123046875;0.024578846991062164;-0.009968211874365807;0.0001512675517005846
0.0257568359375;0.068389892578125;-1.01123046875;0.024578846991062164;-0.009968211874365807;0.0001512675517005846
0.0257568359375;0.068389892578125;-1.01123046875;0.025857163593173027;-0.0062429821118712425;0.005071191117167473
0.0257568359375;0.069122314453125;-1.0129241943359375;0.025857163593173027;-0.0062429821118712425;0.005071191117167473
0.0257568359375;0.069122314453125;-1.0129241943359375;0.025857163593173027;-0.0062429821118712425;0.005071191117167473
0.0257568359375;0.069122314453125;-1.0129241943359375;0.025857163593173027;-0.0062429821118712425;0.005071191117167473
0.0257568359375;0.069122314453125;-1.0129241943359375;0.025857163593173027;-0.0062429821118712425;0.005071191117167473
0.0272369384765625;0.06988525390625;-1.00762939453125;0.009667540900409222;0.005547896958887577;0.0029531794134527445
0.0272369384765625;0.06988525390625;-1.00762939453125;0.009667540900409222;0.005547896958887577;0.0029531794134527445
0.0272369384765625;0.06988525390625;-1.00762939453125;0.009667540900409222;0.005547896958887577;0.0029531794134527445
0.0272369384765625;0.06988525390625;-1.00762939453125;0.009667540900409222;0.005547896958887577;0.0029531794134527445
0.026214599609375;0.0691680908203125;-0.9944610595703125;-0.0054826498962938786;0.01919872872531414;0.0015683355741202831
0.026214599609375;0.0691680908203125;-0.9944610595703125;-0.0054826498962938786;0.01919872872531414;0.0015683355741202831
0.026214599609375;0.0691680908203125;-0.9944610595703125;-0.0054826498962938786;0.01919872872531414;0.0015683355741202831
0.026214599609375;0.0691680908203125;-0.9944610595703125;-0.0054826498962938786;0.01919872872531414;0.0015683355741202831
0.026214599609375;0.0691680908203125;-0.9944610595703125;-0.0054826498962938786;0.01919872872531414;0.0015683355741202831
0.021881103515625;0.0712432861328125;-0.9960174560546875;-0.0051801144145429134;0.0202738456428051;-0.0006831008358858526
0.021881103515625;0.0712432861328125;-0.9960174560546875;-0.0051801144145429134;0.0202738456428051;-0.0006831008358858526
0.021881103515625;0.0712432861328125;-0.9960174560546875;-0.0051801144145429134;0.0202738456428051;-0.0006831008358858526
0.021881103515625;0.0712432861328125;-0.9960174560546875;-0.0051801144145429134;0.0202738456428051;-0.0006831008358858526
0.021881103515625;0.0712432861328125;-0.9960174560546875;-0.0051801144145429134;0.0202738456428051;-0.0006831008358858526
0.0220794677734375;0.073028564453125;-1.013946533203125;0.025530127808451653;0.007166566327214241;-0.0006727144937030971
0.0220794677734375;0.073028564453125;-1.013946533203125;0.025530127808451653;0.007166566327214241;-0.0006727144937030971
0.0220794677734375;0.073028564453125;-1.013946533203125;0.025530127808451653;0.007166566327214241;-0.0006727144937030971
0.0220794677734375;0.073028564453125;-1.013946533203125;0.025530127808451653;0.007166566327214241;-0.0006727144937030971
0.0220794677734375;0.073028564453125;-1.013946533203125;0.025530127808451653;0.007166566327214241;-0.0006727144937030971
0.0201416015625;0.0740814208984375;-1.0305023193359375;0.05119714140892029;-0.01708817295730114;-0.002657302189618349
0.0201416015625;0.0740814208984375;-1.0305023193359375;0.05119714140892029;-0.01708817295730114;-0.002657302189618349
0.0201416015625;0.0740814208984375;-1.0305023193359375;0.05119714140892029;-0.01708817295730114;-0.002657302189618349
0.0201416015625;0.0740814208984375;-1.0305023193359375;0.05119714140892029;-0.01708817295730114;-0.002657302189618349
0.0201416015625;0.0740814208984375;-1.0305023193359375;0.05119714140892029;-0.01708817295730114;-0.002657302189618349
0.0207366943359375;0.0731964111328125;-1.021942138671875;0.05861084908246994;-0.02845560945570469;-0.0017915084026753902
0.0207366943359375;0.0731964111328125;-1.021942138671875;0.05861084908246994;-0.02845560945570469;-0.0017915084026753902
0.0207366943359375;0.0731964111328125;-1.021942138671875;0.05861084908246994;-0.02845560945570469;-0.0017915084026753902
0.0207366943359375;0.0731964111328125;-1.021942138671875;0.05861084908246994;-0.02845560945570469;-0.0017915084026753902
0.0207366943359375;0.0731964111328125;-1.021942138671875;0.05861084908246994;-0.02845560945570469;-0.0017915084026753902
0.0242156982421875;0.0725860595703125;-1.0066986083984375;0.045770417898893356;-0.02538418583571911;0.0020543625578284264
0.0242156982421875;0.0725860595703125;-1.0066986083984375;0.045770417898893356;-0.02538418583571911;0.0020543625578284264
0.0242156982421875;0.0725860595703125;-1.0066986083984375;0.045770417898893356;-0.02538418583571911;0.0020543625578284264
0.0242156982421875;0.0725860595703125;-1.0066986083984375;0.045770417898893356;-0.02538418583571911;0.0020543625578284264
0.0242156982421875;0.0725860595703125;-1.0066986083984375;0.045770417898893356;-0.02538418583571911;0.0020543625578284264
0.0252532958984375;0.0705718994140625;-1.0013580322265625;0.036075979471206665;-0.018622953444719315;0.003656520042568445
0.0252532958984375;0.0705718994140625;-1.0013580322265625;0.036075979471206665;-0.018622953444719315;0.003656520042568445
0.0252532958984375;0.0705718994140625;-1.0013580322265625;0.036075979471206665;-0.018622953444719315;0.003656520042568445
0.0252532958984375;0.0705718994140625;-1.0013580322265625;0.036075979471206665;-0.018622953444719315;0.003656520042568445
0.0252532958984375;0.0705718994140625;-1.0013580322265625;0.036075979471206665;-0.018622953444719315;0.003656520042568445
0.024566650390625;0.069061279296875;-1.002532958984375;0.019349463284015656;-0.01465537492185831;0.006340720225125551
0.024566650390625;0.069061279296875;-1.002532958984375;0.019349463284015656;-0.01465537492185831;0.006340720225125551
0.024566650390625;0.069061279296875;-1.002532958984375;0.019349463284015656;-0.01465537492185831;0.006340720225125551
0.024566650390625;0.069061279296875;-1.002532958984375;0.019349463284015656;-0.01465537492185831;0.006340720225125551
0.024566650390625;0.069061279296875;-1.002532958984375;0.019349463284015656;-0.01465537492185831;0.006340720225125551
0.0242462158203125;0.066650390625;-0.9989776611328125;0.00185063062235713;-0.0022567627020180225;0.010289921425282955
0.0242462158203125;0.066650390625;-0.9989776611328125;0.00185063062235713;-0.0022567627020180225;0.010289921425282955
0.0242462158203125;0.066650390625;-0.9989776611328125;0.00185063062235713;-0.0022567627020180225;0.010289921425282955
0.0242462158203125;0.066650390625;-0.9989776611328125;0.00185063062235713;-0.0022567627020180225;0.010289921425282955
0.0242462158203125;0.066650390625;-0.9989776611328125;0.00185063062235713;-0.0022567627020180225;0.010289921425282955
0.0234527587890625;0.0648345947265625;-0.998626708984375;-0.00028069718973711133;-0.002454102970659733;0.012116850353777409
0.0234527587890625;0.0648345947265625;-0.998626708984375;-0.00028069718973711133;-0.002454102970659733;0.012116850353777409
0.0234527587890625;0.0648345947265625;-0.998626708984375;-0.00028069718973711133;-0.002454102970659733;0.012116850353777409
0.0234527587890625;0.0648345947265625;-0.998626708984375;-0.00028069718973711133;-0.002454102970659733;0.012116850353777409
0.0234527587890625;0.0648345947265625;-0.998626708984375;-0.00028069718973711133;-0.002454102970659733;0.012116850353777409
0.023406982421875;0.064697265625;-1.0111083984375;0.017229586839675903;-0.004877579398453236;0.01170699018985033
0.023406982421875;0.064697265625;-1.0111083984375;0.017229586839675903;-0.004877579398453236;0.01170699018985033
0.023406982421875;0.064697265625;-1.0111083984375;0.017229586839675903;-0.004877579398453236;0.01170699018985033
0.023406982421875;0.064697265625;-1.0111083984375;0.017229586839675903;-0.004877579398453236;0.01170699018985033
0.023406982421875;0.064697265625;-1.0111083984375;0.017229586839675903;-0.004877579398453236;0.01170699018985033
0.024932861328125;0.0649566650390625;-1.0219268798828125;0.036067456007003784;-0.01158448401838541;0.00939083844423294
0.024932861328125;0.0649566650390625;-1.0219268798828125;0.036067456007003784;-0.01158448401838541;0.00939083844423294
0.024932861328125;0.0649566650390625;-1.0219268798828125;0.036067456007003784;-0.01158448401838541;0.00939083844423294
0.024932861328125;0.0649566650390625;-1.0219268798828125;0.036067456007003784;-0.01158448401838541;0.00939083844423294
0.024932861328125;0.0649566650390625;-1.0219268798828125;0.036067456007003784;-0.01158448401838541;0.00939083844423294
0.0242767333984375;0.064697265625;-1.021514892578125;0.043968524783849716;-0.015528093092143536;0.00908510759472847
0.0242767333984375;0.064697265625;-1.021514892578125;0.043968524783849716;-0.015528093092143536;0.00908510759472847
0.0242767333984375;0.064697265625;-1.021514892578125;0.043968524783849716;-0.015528093092143536;0.00908510759472847
0.0242767333984375;0.064697265625;-1.021514892578125;0.043968524783849716;-0.015528093092143536;0.00908510759472847
0.0242767333984375;0.064697265625;-1.021514892578125;0.043968524783849716;-0.015528093092143536;0.00908510759472847
0.022186279296875;0.0635986328125;-1.0164642333984375;0.042460642755031586;-0.015479356981813908;0.006027532275766134
0.022186279296875;0.0635986328125;-1.0164642333984375;0.042460642755031586;-0.015479356981813908;0.006027532275766134
0.022186279296875;0.0635986328125;-1.0164642333984375;0.042460642755031586;-0.015479356981813908;0.006027532275766134
0.022186279296875;0.0635986328125;-1.0164642333984375;0.042460642755031586;-0.015479356981813908;0.006027532275766134
0.022186279296875;0.0635986328125;-1.0164642333984375;0.042460642755031586;-0.015479356981813908;0.006027532275766134
0.0223388671875;0.0625457763671875;-1.0124053955078125;0.03027215227484703;-0.009236108511686325;0.006415821146219969
0.0223388671875;0.0625457763671875;-1.0124053955078125;0.03027215227484703;-0.009236108511686325;0.006415821146219969
0.0223388671875;0.0625457763671875;-1.0124053955078125;0.03027215227484703;-0.009236108511686325;0.006415821146219969
0.0223388671875;0.0625457763671875;-1.0124053955078125;0.03027215227484703;-0.009236108511686325;0.006415821146219969
0.0223388671875;0.0625457763671875;-1.0124053955078125;0.03027215227484703;-0.009236108511686325;0.006415821146219969
0.0223236083984375;0.0625457763671875;-1.0110931396484375;0.018012290820479393;-0.007364439312368631;0.005790244787931442
0.0223236083984375;0.0625457763671875;-1.0110931396484375;0.018012290820479393;-0.007364439312368631;0.005790244787931442
0.0223236083984375;0.0625457763671875;-1.0110931396484375;0.018012290820479393;-0.007364439312368631;0.005790244787931442
0.0223236083984375;0.0625457763671875;-1.0110931396484375;0.018012290820479393;-0.007364439312368631;0.005790244787931442
0.0223236083984375;0.0625457763671875;-1.0110931396484375;0.018012290820479393;-0.007364439312368631;0.005790244787931442
0.0233917236328125;0.062591552734375;-1.0085296630859375;0.008100270293653011;-0.004296744242310524;0.00475507415831089
0.0233917236328125;0.062591552734375;-1.0085296630859375;0.008100270293653011;-0.004296744242310524;0.00475507415831089
0.0233917236328125;0.062591552734375;-1.0085296630859375;0.008100270293653011;-0.004296744242310524;0.00475507415831089
0.0233917236328125;0.062591552734375;-1.0085296630859375;0.008100270293653011;-0.004296744242310524;0.00475507415831089
0.0233917236328125;0.062591552734375;-1.0085296630859375;0.008100270293653011;-0.004296744242310524;0.00475507415831089
0.0236968994140625;0.064727783203125;-1.0085601806640625;0.003320162883028388;-0.0024671524297446012;0.0023134879302233458
0.0236968994140625;0.064727783203125;-1.0085601806640625;0.003320162883028388;-0.0024671524297446012;0.0023134879302233458
0.0236968994140625;0.064727783203125;-1.0085601806640625;0.003320162883028388;-0.0024671524297446012;0.0023134879302233458
0.0236968994140625;0.064727783203125;-1.0085601806640625;0.003320162883028388;-0.0024671524297446012;0.0023134879302233458
0.0236968994140625;0.064727783203125;-1.0085601806640625;0.003320162883028388;-0.0024671524297446012;0.0023134879302233458
0.0244140625;0.066802978515625;-1.01025390625;0.002412557601928711;-0.0009129316313192248;0.00016591492749284953
0.0244140625;0.066802978515625;-1.01025390625;0.002412557601928711;-0.0009129316313192248;0.00016591492749284953
0.0244140625;0.066802978515625;-1.01025390625;0.002412557601928711;-0.0009129316313192248;0.00016591492749284953
0.0244140625;0.066802978515625;-1.01025390625;0.002412557601928711;-0.0009129316313192248;0.00016591492749284953
0.0244140625;0.066802978515625;-1.01025390625;0.002412557601928711;-0.0009129316313192248;0.00016591492749284953
0.024871826171875;0.0697784423828125;-1.0112762451171875;0.0031012510880827904;-0.001327053178101778;0.0015102786710485816
0.024871826171875;0.0697784423828125;-1.0112762451171875;0.0031012510880827904;-0.001327053178101778;0.0015102786710485816
0.024871826171875;0.0697784423828125;-1.0112762451171875;0.0031012510880827904;-0.001327053178101778;0.0015102786710485816
0.024871826171875;0.0697784423828125;-1.0112762451171875;0.0031012510880827904;-0.001327053178101778;0.0015102786710485816
0.024871826171875;0.0697784423828125;-1.0112762451171875;0.0031012510880827904;-0.001327053178101778;0.0015102786710485816
0.0245361328125;0.071441650390625;-1.0103912353515625;0.00740278884768486;-0.00022556974727194756;5.699164830730297e-05
0.0245361328125;0.071441650390625;-1.0103912353515625;0.00740278884768486;-0.00022556974727194756;5.699164830730297e-05
0.0245361328125;0.071441650390625;-1.0103912353515625;0.00740278884768486;-0.00022556974727194756;5.699164830730297e-05
0.0245361328125;0.071441650390625;-1.0103912353515625;0.00740278884768486;-0.00022556974727194756;5.699164830730297e-05
0.0245361328125;0.071441650390625;-1.0103912353515625;0.00740278884768486;-0.00022556974727194756;5.699164830730297e-05
0.0259857177734375;0.07110595703125;-1.0103912353515625;0.01387054193764925;0.0011614045361056924;0.0034708979073911905
0.0259857177734375;0.07110595703125;-1.0103912353515625;0.01387054193764925;0.0011614045361056924;0.0034708979073911905
0.0259857177734375;0.07110595703125;-1.0103912353515625;0.01387054193764925;0.0011614045361056924;0.0034708979073911905
0.0259857177734375;0.07110595703125;-1.0103912353515625;0.01387054193764925;0.0011614045361056924;0.0034708979073911905
0.0259857177734375;0.07110595703125;-1.0103912353515625;0.01387054193764925;0.0011614045361056924;0.0034708979073911905
0.025665283203125;0.070404052734375;-1.01043701171875;0.01858753338456154;0.011138937436044216;0.004169445019215345
0.025665283203125;0.070404052734375;-1.01043701171875;0.01858753338456154;0.011138937436044216;0.004169445019215345
0.025665283203125;0.070404052734375;-1.01043701171875;0.01858753338456154;0.011138937436044216;0.004169445019215345
0.025665283203125;0.070404052734375;-1.01043701171875;0.01858753338456154;0.011138937436044216;0.004169445019215345
0.025665283203125;0.070404052734375;-1.01043701171875;0.01858753338456154;0.011138937436044216;0.004169445019215345
0.025909423828125;0.0694580078125;-1.01025390625;0.027947477996349335;0.020435234531760216;-0.0010602044640108943
0.025909423828125;0.0694580078125;-1.01025390625;0.027947477996349335;0.020435234531760216;-0.0010602044640108943
0.025909423828125;0.0694580078125;-1.01025390625;0.027947477996349335;0.020435234531760216;-0.0010602044640108943
0.025909423828125;0.0694580078125;-1.01025390625;0.027947477996349335;0.020435234531760216;-0.0010602044640108943
0.025909423828125;0.0694580078125;-1.01025390625;0.027947477996349335;0.020435234531760216;-0.0010602044640108943
0.0272216796875;0.06732177734375;-1.01153564453125;0.03320455923676491;0.01859898492693901;-0.0003153182624373585
0.0272216796875;0.06732177734375;-1.01153564453125;0.03320455923676491;0.01859898492693901;-0.0003153182624373585
0.0272216796875;0.06732177734375;-1.01153564453125;0.03320455923676491;0.01859898492693901;-0.0003153182624373585
0.0272216796875;0.06732177734375;-1.01153564453125;0.03320455923676491;0.01859898492693901;-0.0003153182624373585
0.0272216796875;0.06732177734375;-1.01153564453125;0.03320455923676491;0.01859898492693901;-0.0003153182624373585
0.0276641845703125;0.0656280517578125;-1.014617919921875;0.03672046214342117;0.012882509268820286;-0.0005214469274505973
0.0276641845703125;0.0656280517578125;-1.014617919921875;0.03672046214342117;0.012882509268820286;-0.0005214469274505973
0.0276641845703125;0.0656280517578125;-1.014617919921875;0.03672046214342117;0.012882509268820286;-0.0005214469274505973
0.0276641845703125;0.0656280517578125;-1.014617919921875;0.03672046214342117;0.012882509268820286;-0.0005214469274505973
0.0276641845703125;0.0656280517578125;-1.014617919921875;0.03672046214342117;0.012882509268820286;-0.0005214469274505973
0.026458740234375;0.0640869140625;-1.0120697021484375;0.0397077314555645;0.009241701103746891;-0.004835235420614481
0.026458740234375;0.0640869140625;-1.0120697021484375;0.0397077314555645;0.009241701103746891;-0.004835235420614481
0.026458740234375;0.0640869140625;-1.0120697021484375;0.0397077314555645;0.009241701103746891;-0.004835235420614481
0.026458740234375;0.0640869140625;-1.0120697021484375;0.0397077314555645;0.009241701103746891;-0.004835235420614481
0.026458740234375;0.0640869140625;-1.0120697021484375;0.0397077314555645;0.009241701103746891;-0.004835235420614481
0.024200439453125;0.06243896484375;-1.011749267578125;0.0412190742790699;0.0032687638886272907;-0.002749181119725108
0.024200439453125;0.06243896484375;-1.011749267578125;0.0412190742790699;0.0032687638886272907;-0.002749181119725108
0.024200439453125;0.06243896484375;-1.011749267578125;0.0412190742790699;0.0032687638886272907;-0.002749181119725108
0.024200439453125;0.06243896484375;-1.011749267578125;0.0412190742790699;0.0032687638886272907;-0.002749181119725108
0.024200439453125;0.06243896484375;-1.011749267578125;0.0412190742790699;0.0032687638886272907;-0.002749181119725108
0.0240936279296875;0.0617218017578125;-1.0131072998046875;0.04254346713423729;-0.002688727341592312;-0.0030660973861813545
0.0240936279296875;0.0617218017578125;-1.0131072998046875;0.04254346713423729;-0.002688727341592312;-0.0030660973861813545
0.0240936279296875;0.0617218017578125;-1.0131072998046875;0.04254346713423729;-0.002688727341592312;-0.0030660973861813545
0.0240936279296875;0.0617218017578125;-1.0131072998046875;0.04254346713423729;-0.002688727341592312;-0.0030660973861813545
0.0240936279296875;0.0617218017578125;-1.0131072998046875;0.04254346713423729;-0.002688727341592312;-0.0030660973861813545
0.023468017578125;0.0608978271484375;-1.011932373046875;0.04349607974290848;-0.00692155584692955;0.001746501075103879
0.023468017578125;0.0608978271484375;-1.011932373046875;0.04349607974290848;-0.00692155584692955;0.001746501075103879
0.023468017578125;0.0608978271484375;-1.011932373046875;0.04349607974290848;-0.00692155584692955;0.001746501075103879
0.023468017578125;0.0608978271484375;-1.011932373046875;0.04349607974290848;-0.00692155584692955;0.001746501075103879
0.023468017578125;0.0608978271484375;-1.011932373046875;0.04615497961640358;-0.00809201505035162;-0.001392300589941442
0.0230865478515625;0.060791015625;-1.010894775390625;0.04615497961640358;-0.00809201505035162;-0.001392300589941442
0.0230865478515625;0.060791015625;-1.010894775390625;0.04615497961640358;-0.00809201505035162;-0.001392300589941442
0.0230865478515625;0.060791015625;-1.010894775390625;0.04615497961640358;-0.00809201505035162;-0.001392300589941442
0.0230865478515625;0.060791015625;-1.010894775390625;0.04615497961640358;-0.00809201505035162;-0.001392300589941442
0.0235137939453125;0.059234619140625;-1.0112762451171875;0.050324421375989914;-0.00515721132978797;0.0009645969257690012
0.0235137939453125;0.059234619140625;-1.0112762451171875;0.050324421375989914;-0.00515721132978797;0.0009645969257690012
0.0235137939453125;0.059234619140625;-1.0112762451171875;0.050324421375989914;-0.00515721132978797;0.0009645969257690012
0.0235137939453125;0.059234619140625;-1.0112762451171875;0.050324421375989914;-0.00515721132978797;0.0009645969257690012
0.0235137939453125;0.059234619140625;-1.0112762451171875;0.050324421375989914;-0.00515721132978797;0.0009645969257690012
0.0235137939453125;0.059234619140625;-1.0112762451171875;0.055755939334630966;-0.007077616639435291;0.0010402307379990816
0.0245513916015625;0.0595855712890625;-1.01220703125;0.055755939334630966;-0.007077616639435291;0.0010402307379990816
0.0245513916015625;0.0595855712890625;-1.01220703125;0.055755939334630966;-0.007077616639435291;0.0010402307379990816
0.0245513916015625;0.0595855712890625;-1.01220703125;0.055755939334630966;-0.007077616639435291;0.0010402307379990816
0.0245513916015625;0.0595855712890625;-1.01220703125;0.055755939334630966;-0.007077616639435291;0.0010402307379990816
0.025543212890625;0.0594024658203125;-1.014862060546875;0.06350041180849075;-0.011534683406352997;0.0016863135388121009
0.025543212890625;0.0594024658203125;-1.014862060546875;0.06350041180849075;-0.011534683406352997;0.0016863135388121009
0.025543212890625;0.0594024658203125;-1.014862060546875;0.06350041180849075;-0.011534683406352997;0.0016863135388121009
0.025543212890625;0.0594024658203125;-1.014862060546875;0.06350041180849075;-0.011534683406352997;0.0016863135388121009
0.025543212890625;0.0594024658203125;-1.014862060546875;0.06350041180849075;-0.011534683406352997;0.0016863135388121009
0.0250701904296875;0.0578460693359375;-1.01611328125;0.06650526076555252;-0.015107047744095325;0.0010663296561688185
0.0250701904296875;0.0578460693359375;-1.01611328125;0.06650526076555252;-0.015107047744095325;0.0010663296561688185
0.0250701904296875;0.0578460693359375;-1.01611328125;0.06650526076555252;-0.015107047744095325;0.0010663296561688185
0.0250701904296875;0.0578460693359375;-1.01611328125;0.06650526076555252;-0.015107047744095325;0.0010663296561688185
0.0250701904296875;0.0578460693359375;-1.01611328125;0.06650526076555252;-0.015107047744095325;0.0010663296561688185
0.0260772705078125;0.0570068359375;-1.020233154296875;0.06745307892560959;-0.015585350804030895;0.0005352954030968249
0.0260772705078125;0.0570068359375;-1.020233154296875;0.06745307892560959;-0.015585350804030895;0.0005352954030968249
0.0260772705078125;0.0570068359375;-1.020233154296875;0.06745307892560959;-0.015585350804030895;0.0005352954030968249
0.0260772705078125;0.0570068359375;-1.020233154296875;0.06745307892560959;-0.015585350804030895;0.0005352954030968249
0.0260772705078125;0.0570068359375;-1.020233154296875;0.06745307892560959;-0.015585350804030895;0.0005352954030968249
0.0275726318359375;0.057037353515625;-1.0169219970703125;0.06084657087922096;-0.010548780672252178;-0.0011400992516428232
0.0275726318359375;0.057037353515625;-1.0169219970703125;0.06084657087922096;-0.010548780672252178;-0.0011400992516428232
0.0275726318359375;0.057037353515625;-1.0169219970703125;0.06084657087922096;-0.010548780672252178;-0.0011400992516428232
0.0275726318359375;0.057037353515625;-1.0169219970703125;0.06084657087922096;-0.010548780672252178;-0.0011400992516428232
0.0275726318359375;0.057037353515625;-1.0169219970703125;0.06084657087922096;-0.010548780672252178;-0.0011400992516428232
0.024566650390625;0.0567169189453125;-1.0113677978515625;0.03795483708381653;-0.007763913366943598;-0.0015872439835220575
0.024566650390625;0.0567169189453125;-1.0113677978515625;0.03795483708381653;-0.007763913366943598;-0.0015872439835220575
0.024566650390625;0.0567169189453125;-1.0113677978515625;0.03795483708381653;-0.007763913366943598;-0.0015872439835220575
0.024566650390625;0.0567169189453125;-1.0113677978515625;0.03795483708381653;-0.007763913366943598;-0.0015872439835220575
0.024566650390625;0.0567169189453125;-1.0113677978515625;0.03795483708381653;-0.007763913366943598;-0.0015872439835220575
0.0239105224609375;0.0569000244140625;-1.0043182373046875;0.023141272366046906;0.0006415555253624916;-0.0003866909828502685
0.0239105224609375;0.0569000244140625;-1.0043182373046875;0.023141272366046906;0.0006415555253624916;-0.0003866909828502685
0.0239105224609375;0.0569000244140625;-1.0043182373046875;0.023141272366046906;0.0006415555253624916;-0.0003866909828502685
0.0239105224609375;0.0569000244140625;-1.0043182373046875;0.023141272366046906;0.0006415555253624916;-0.0003866909828502685
0.0239105224609375;0.0569000244140625;-1.0043182373046875;0.023141272366046906;0.0006415555253624916;-0.0003866909828502685
0.02325439453125;0.05615234375;-1.006103515625;0.02316337637603283;0.0027718180790543556;0.0018956380663439631
0.02325439453125;0.05615234375;-1.006103515625;0.02316337637603283;0.0027718180790543556;0.0018956380663439631
0.02325439453125;0.05615234375;-1.006103515625;0.02316337637603283;0.0027718180790543556;0.0018956380663439631
0.02325439453125;0.05615234375;-1.006103515625;0.02316337637603283;0.0027718180790543556;0.0018956380663439631
0.02325439453125;0.05615234375;-1.006103515625;0.02316337637603283;0.0027718180790543556;0.0018956380663439631
0.0235443115234375;0.05712890625;-1.0137786865234375;0.02732429839670658;0.0005478122038766742;0.0001257012045243755
0.0235443115234375;0.05712890625;-1.0137786865234375;0.02732429839670658;0.0005478122038766742;0.0001257012045243755
0.0235443115234375;0.05712890625;-1.0137786865234375;0.02732429839670658;0.0005478122038766742;0.0001257012045243755
0.0235443115234375;0.05712890625;-1.0137786865234375;0.02732429839670658;0.0005478122038766742;0.0001257012045243755
0.0235443115234375;0.05712890625;-1.0137786865234375;0.02732429839670658;0.0005478122038766742;0.0001257012045243755
0.024200439453125;0.057373046875;-1.0163116455078125;0.03549168258905411;0.00023036343918647617;-0.0008793757879175246
0.024200439453125;0.057373046875;-1.0163116455078125;0.03549168258905411;0.00023036343918647617;-0.0008793757879175246
0.024200439453125;0.057373046875;-1.0163116455078125;0.03549168258905411;0.00023036343918647617;-0.0008793757879175246
0.024200439453125;0.057373046875;-1.0163116455078125;0.03549168258905411;0.00023036343918647617;-0.0008793757879175246
0.024200439453125;0.057373046875;-1.0163116455078125;0.03549168258905411;0.00023036343918647617;-0.0008793757879175246
0.0232086181640625;0.0582733154296875;-1.014984130859375;0.04177141562104225;-0.001425057533197105;0.0010543455136939883
0.0232086181640625;0.0582733154296875;-1.014984130859375;0.04177141562104225;-0.001425057533197105;0.0010543455136939883
0.0232086181640625;0.0582733154296875;-1.014984130859375;0.04177141562104225;-0.001425057533197105;0.0010543455136939883
0.0232086181640625;0.0582733154296875;-1.014984130859375;0.04177141562104225;-0.001425057533197105;0.0010543455136939883
0.0232086181640625;0.0582733154296875;-1.014984130859375;0.04177141562104225;-0.001425057533197105;0.0010543455136939883
0.0234375;0.0577545166015625;-1.013671875;0.042267296463251114;-0.0009214537567459047;0.0041433461010456085
0.0234375;0.0577545166015625;-1.013671875;0.042267296463251114;-0.0009214537567459047;0.0041433461010456085
0.0234375;0.0577545166015625;-1.013671875;0.042267296463251114;-0.0009214537567459047;0.0041433461010456085
0.0234375;0.0577545166015625;-1.013671875;0.042267296463251114;-0.0009214537567459047;0.0041433461010456085
0.0234375;0.0577545166015625;-1.013671875;0.042267296463251114;-0.0009214537567459047;0.0041433461010456085
0.0236053466796875;0.056549072265625;-1.0162200927734375;0.044851891696453094;-0.0037111148703843355;0.0024200144689530134
0.0236053466796875;0.056549072265625;-1.0162200927734375;0.044851891696453094;-0.0037111148703843355;0.0024200144689530134
0.0236053466796875;0.056549072265625;-1.0162200927734375;0.044851891696453094;-0.0037111148703843355;0.0024200144689530134
0.0236053466796875;0.056549072265625;-1.0162200927734375;0.044851891696453094;-0.0037111148703843355;0.0024200144689530134
0.0236053466796875;0.056549072265625;-1.0162200927734375;0.044851891696453094;-0.0037111148703843355;0.0024200144689530134
0.0230712890625;0.0549468994140625;-1.017791748046875;0.04557254537940025;-0.007758853491395712;-0.0026205505710095167
0.0230712890625;0.0549468994140625;-1.017791748046875;0.04557254537940025;-0.007758853491395712;-0.0026205505710095167
0.0230712890625;0.0549468994140625;-1.017791748046875;0.04557254537940025;-0.007758853491395712;-0.0026205505710095167
0.0230712890625;0.0549468994140625;-1.017791748046875;0.04557254537940025;-0.007758853491395712;-0.0026205505710095167
0.0230712890625;0.0549468994140625;-1.017791748046875;0.04557254537940025;-0.007758853491395712;-0.0026205505710095167
0.0225067138671875;0.052947998046875;-1.0167236328125;0.04607854411005974;-0.01040630228817463;0.002998719457536936
0.0225067138671875;0.052947998046875;-1.0167236328125;0.04607854411005974;-0.01040630228817463;0.002998719457536936
0.0225067138671875;0.052947998046875;-1.0167236328125;0.04607854411005974;-0.01040630228817463;0.002998719457536936
0.0225067138671875;0.052947998046875;-1.0167236328125;0.04607854411005974;-0.01040630228817463;0.002998719457536936
0.0225067138671875;0.052947998046875;-1.0167236328125;0.04607854411005974;-0.01040630228817463;0.002998719457536936
0.022064208984375;0.05133056640625;-1.018341064453125;0.045884136110544205;-0.012253470718860626;0.0020218719728291035
0.022064208984375;0.05133056640625;-1.018341064453125;0.045884136110544205;-0.012253470718860626;0.0020218719728291035
0.022064208984375;0.05133056640625;-1.018341064453125;0.045884136110544205;-0.012253470718860626;0.0020218719728291035
0.022064208984375;0.05133056640625;-1.018341064453125;0.045884136110544205;-0.012253470718860626;0.0020218719728291035
0.022064208984375;0.05133056640625;-1.018341064453125;0.045884136110544205;-0.012253470718860626;0.0020218719728291035
0.023834228515625;0.050384521484375;-1.01629638671875;0.041736528277397156;-0.013033243827521801;0.0011534150689840317
0.023834228515625;0.050384521484375;-1.01629638671875;0.041736528277397156;-0.013033243827521801;0.0011534150689840317
0.023834228515625;0.050384521484375;-1.01629638671875;0.041736528277397156;-0.013033243827521801;0.0011534150689840317
0.023834228515625;0.050384521484375;-1.01629638671875;0.041736528277397156;-0.013033243827521801;0.0011534150689840317
0.023834228515625;0.050384521484375;-1.01629638671875;0.041736528277397156;-0.013033243827521801;0.0011534150689840317
0.0237274169921875;0.050201416015625;-1.012908935546875;0.0365430973470211;-0.012210593558847904;0.003290601773187518
0.0237274169921875;0.050201416015625;-1.012908935546875;0.0365430973470211;-0.012210593558847904;0.003290601773187518
0.0237274169921875;0.050201416015625;-1.012908935546875;0.0365430973470211;-0.012210593558847904;0.003290601773187518
0.0237274169921875;0.050201416015625;-1.012908935546875;0.0365430973470211;-0.012210593558847904;0.003290601773187518
0.0237274169921875;0.050201416015625;-1.012908935546875;0.0365430973470211;-0.012210593558847904;0.003290601773187518
0.0240478515625;0.051788330078125;-1.01220703125;0.03376994654536247;-0.010694456286728382;0.002364886924624443
0.0240478515625;0.051788330078125;-1.01220703125;0.03376994654536247;-0.010694456286728382;0.002364886924624443
0.0240478515625;0.051788330078125;-1.01220703125;0.03376994654536247;-0.010694456286728382;0.002364886924624443
0.0240478515625;0.051788330078125;-1.01220703125;0.03376994654536247;-0.010694456286728382;0.002364886924624443
0.0240478515625;0.051788330078125;-1.01220703125;0.03376994654536247;-0.010694456286728382;0.002364886924624443
0.0251007080078125;0.05194091796875;-1.012664794921875;0.034021083265542984;-0.010922422632575035;0.0032522522378712893
0.0251007080078125;0.05194091796875;-1.012664794921875;0.034021083265542984;-0.010922422632575035;0.0032522522378712893
0.0251007080078125;0.05194091796875;-1.012664794921875;0.034021083265542984;-0.010922422632575035;0.0032522522378712893
0.0251007080078125;0.05194091796875;-1.012664794921875;0.034021083265542984;-0.010922422632575035;0.0032522522378712893
0.0251007080078125;0.05194091796875;-1.012664794921875;0.034021083265542984;-0.010922422632575035;0.0032522522378712893
0.02520751953125;0.0517730712890625;-1.012298583984375;0.03297845646739006;-0.014611433260142803;0.0029614351224154234
0.02520751953125;0.0517730712890625;-1.012298583984375;0.03297845646739006;-0.014611433260142803;0.0029614351224154234
0.02520751953125;0.0517730712890625;-1.012298583984375;0.03297845646739006;-0.014611433260142803;0.0029614351224154234
0.02520751953125;0.0517730712890625;-1.012298583984375;0.03297845646739006;-0.014611433260142803;0.0029614351224154234
0.02520751953125;0.0517730712890625;-1.012298583984375;0.03297845646739006;-0.014611433260142803;0.0029614351224154234
0.024871826171875;0.0526123046875;-1.009185791015625;0.02730991691350937;-0.007278685458004475;0.0019568908028304577
0.024871826171875;0.0526123046875;-1.009185791015625;0.02730991691350937;-0.007278685458004475;0.0019568908028304577
0.024871826171875;0.0526123046875;-1.009185791015625;0.02730991691350937;-0.007278685458004475;0.0019568908028304577
0.024871826171875;0.0526123046875;-1.009185791015625;0.02730991691350937;-0.007278685458004475;0.0019568908028304577
0.024871826171875;0.0526123046875;-1.009185791015625;0.02730991691350937;-0.007278685458004475;0.0019568908028304577
0.0250244140625;0.054718017578125;-1.0075531005859375;0.026795128360390663;-0.006154032424092293;0.0002205097407568246
0.0250244140625;0.054718017578125;-1.0075531005859375;0.026795128360390663;-0.006154032424092293;0.0002205097407568246
0.0250244140625;0.054718017578125;-1.0075531005859375;0.026795128360390663;-0.006154032424092293;0.0002205097407568246
0.0250244140625;0.054718017578125;-1.0075531005859375;0.026795128360390663;-0.006154032424092293;0.0002205097407568246
0.0250244140625;0.054718017578125;-1.0075531005859375;0.026795128360390663;-0.006154032424092293;0.0002205097407568246
0.0238037109375;0.0539398193359375;-1.00823974609375;0.025169800966978073;-0.006924218963831663;0.0027055053506046534
0.0238037109375;0.0539398193359375;-1.00823974609375;0.025169800966978073;-0.006924218963831663;0.0027055053506046534
0.0238037109375;0.0539398193359375;-1.00823974609375;0.025169800966978073;-0.006924218963831663;0.0027055053506046534
0.0238037109375;0.0539398193359375;-1.00823974609375;0.025169800966978073;-0.006924218963831663;0.0027055053506046534
0.0238037109375;0.0539398193359375;-1.00823974609375;0.025169800966978073;-0.006924218963831663;0.0027055053506046534
0.0231170654296875;0.053436279296875;-1.0122222900390625;0.030831415206193924;-0.0049063414335250854;-0.0008378304773941636
0.0231170654296875;0.053436279296875;-1.0122222900390625;0.030831415206193924;-0.0049063414335250854;-0.0008378304773941636
0.0231170654296875;0.053436279296875;-1.0122222900390625;0.030831415206193924;-0.0049063414335250854;-0.0008378304773941636
0.0231170654296875;0.053436279296875;-1.0122222900390625;0.030831415206193924;-0.0049063414335250854;-0.0008378304773941636
0.0231170654296875;0.053436279296875;-1.0122222900390625;0.030831415206193924;-0.0049063414335250854;-0.0008378304773941636
0.023345947265625;0.0535125732421875;-1.0115509033203125;0.0343790128827095;-0.006985471583902836;0.0003206445835530758
0.023345947265625;0.0535125732421875;-1.0115509033203125;0.0343790128827095;-0.006985471583902836;0.0003206445835530758
0.023345947265625;0.0535125732421875;-1.0115509033203125;0.0343790128827095;-0.006985471583902836;0.0003206445835530758
0.023345947265625;0.0535125732421875;-1.0115509033203125;0.0343790128827095;-0.006985471583902836;0.0003206445835530758
0.023345947265625;0.0535125732421875;-1.0115509033203125;0.0343790128827095;-0.006985471583902836;0.0003206445835530758
0.0232696533203125;0.0528106689453125;-1.0114593505859375;0.03960413485765457;-0.00478543434292078;-0.001549959764815867
0.0232696533203125;0.0528106689453125;-1.0114593505859375;0.03960413485765457;-0.00478543434292078;-0.001549959764815867
0.0232696533203125;0.0528106689453125;-1.0114593505859375;0.03960413485765457;-0.00478543434292078;-0.001549959764815867
0.0232696533203125;0.0528106689453125;-1.0114593505859375;0.03960413485765457;-0.00478543434292078;-0.001549959764815867
0.0232696533203125;0.0528106689453125;-1.0114593505859375;0.03960413485765457;-0.00478543434292078;-0.001549959764815867
0.02349853515625;0.0521392822265625;-1.0117034912109375;0.041668351739645004;-0.0009736517095007002;0.0015960324089974165
0.02349853515625;0.0521392822265625;-1.0117034912109375;0.041668351739645004;-0.0009736517095007002;0.0015960324089974165
0.02349853515625;0.0521392822265625;-1.0117034912109375;0.041668351739645004;-0.0009736517095007002;0.0015960324089974165
0.02349853515625;0.0521392822265625;-1.0117034912109375;0.041668351739645004;-0.0009736517095007002;0.0015960324089974165
0.02349853515625;0.0521392822265625;-1.0117034912109375;0.041668351739645004;-0.0009736517095007002;0.0015960324089974165
0.0239410400390625;0.0509185791015625;-1.01324462890625;0.043420445173978806;-0.0029739518649876118;0.0015893745003268123
0.0239410400390625;0.0509185791015625;-1.01324462890625;0.043420445173978806;-0.0029739518649876118;0.0015893745003268123
0.0239410400390625;0.0509185791015625;-1.01324462890625;0.043420445173978806;-0.0029739518649876118;0.0015893745003268123
0.0239410400390625;0.0509185791015625;-1.01324462890625;0.043420445173978806;-0.0029739518649876118;0.0015893745003268123
0.0239410400390625;0.0509185791015625;-1.01324462890625;0.043420445173978806;-0.0029739518649876118;0.0015893745003268123
0.02423095703125;0.0498046875;-1.0125885009765625;0.046608779579401016;-0.0011342403013259172;0.0025185514241456985
0.02423095703125;0.0498046875;-1.0125885009765625;0.046608779579401016;-0.0011342403013259172;0.0025185514241456985
0.02423095703125;0.0498046875;-1.0125885009765625;0.046608779579401016;-0.0011342403013259172;0.0025185514241456985
0.02423095703125;0.0498046875;-1.0125885009765625;0.046608779579401016;-0.0011342403013259172;0.0025185514241456985
0.02423095703125;0.0498046875;-1.0125885009765625;0.046608779579401016;-0.0011342403013259172;0.0025185514241456985
0.0245819091796875;0.049774169921875;-1.0131988525390625;0.04656723514199257;0.00227886694483459;0.0012042814632877707
0.0245819091796875;0.049774169921875;-1.0131988525390625;0.04656723514199257;0.00227886694483459;0.0012042814632877707
0.0245819091796875;0.049774169921875;-1.0131988525390625;0.04656723514199257;0.00227886694483459;0.0012042814632877707
0.0245819091796875;0.049774169921875;-1.0131988525390625;0.04656723514199257;0.00227886694483459;0.0012042814632877707
0.0245819091796875;0.049774169921875;-1.0131988525390625;0.04656723514199257;0.00227886694483459;0.0012042814632877707
0.0247802734375;0.048858642578125;-1.0131378173828125;0.04682796075940132;0.003498861100524664;0.004343882203102112
0.0247802734375;0.048858642578125;-1.0131378173828125;0.04682796075940132;0.003498861100524664;0.004343882203102112
0.0247802734375;0.048858642578125;-1.0131378173828125;0.04682796075940132;0.003498861100524664;0.004343882203102112
0.0247802734375;0.048858642578125;-1.0131378173828125;0.04682796075940132;0.003498861100524664;0.004343882203102112
0.0247802734375;0.048858642578125;-1.0131378173828125;0.04682796075940132;0.003498861100524664;0.004343882203102112
0.024658203125;0.047393798828125;-1.01385498046875;0.04411819204688072;-0.003525758860632777;0.0029555761720985174
0.024658203125;0.047393798828125;-1.01385498046875;0.04411819204688072;-0.003525758860632777;0.0029555761720985174
0.024658203125;0.047393798828125;-1.01385498046875;0.04411819204688072;-0.003525758860632777;0.0029555761720985174
0.024658203125;0.047393798828125;-1.01385498046875;0.04411819204688072;-0.003525758860632777;0.0029555761720985174
0.024658203125;0.047393798828125;-1.01385498046875;0.04411819204688072;-0.003525758860632777;0.0029555761720985174
0.02581787109375;0.046722412109375;-1.0126800537109375;0.04399248957633972;-7.98948312876746e-05;0.0023848607670515776
0.02581787109375;0.046722412109375;-1.0126800537109375;0.04399248957633972;-7.98948312876746e-05;0.0023848607670515776
0.02581787109375;0.046722412109375;-1.0126800537109375;0.04399248957633972;-7.98948312876746e-05;0.0023848607670515776
0.02581787109375;0.046722412109375;-1.0126800537109375;0.04399248957633972;-7.98948312876746e-05;0.0023848607670515776
0.02581787109375;0.046722412109375;-1.0126800537109375;0.04399248957633972;-7.98948312876746e-05;0.0023848607670515776
0.0251617431640625;0.04559326171875;-1.0116424560546875;0.04542633891105652;-0.003028813051059842;0.002709766384214163
0.0251617431640625;0.04559326171875;-1.0116424560546875;0.04542633891105652;-0.003028813051059842;0.002709766384214163
0.0251617431640625;0.04559326171875;-1.0116424560546875;0.04542633891105652;-0.003028813051059842;0.002709766384214163
0.0251617431640625;0.04559326171875;-1.0116424560546875;0.04542633891105652;-0.003028813051059842;0.002709766384214163
0.0251617431640625;0.04559326171875;-1.0116424560546875;0.04542633891105652;-0.003028813051059842;0.002709766384214163
0.0256500244140625;0.045379638671875;-1.013916015625;0.043114978820085526;-0.0009062737226486206;0.0004090615548193455
0.0256500244140625;0.045379638671875;-1.013916015625;0.043114978820085526;-0.0009062737226486206;0.0004090615548193455
0.0256500244140625;0.045379638671875;-1.013916015625;0.043114978820085526;-0.0009062737226486206;0.0004090615548193455
0.0256500244140625;0.045379638671875;-1.013916015625;0.043114978820085526;-0.0009062737226486206;0.0004090615548193455
0.0256500244140625;0.045379638671875;-1.013916015625;0.043114978820085526;-0.0009062737226486206;0.0004090615548193455
0.0255279541015625;0.0456695556640625;-1.013275146484375;0.04253600910305977;-0.002947852946817875;0.0044141896069049835
0.0255279541015625;0.0456695556640625;-1.013275146484375;0.04253600910305977;-0.002947852946817875;0.0044141896069049835
0.0255279541015625;0.0456695556640625;-1.013275146484375;0.04253600910305977;-0.002947852946817875;0.0044141896069049835
0.0255279541015625;0.0456695556640625;-1.013275146484375;0.04253600910305977;-0.002947852946817875;0.0044141896069049835
0.0255279541015625;0.0456695556640625;-1.013275146484375;0.043234556913375854;-0.00046631949953734875;0.005586779210716486
0.0254669189453125;0.04412841796875;-1.012969970703125;0.043234556913375854;-0.00046631949953734875;0.005586779210716486
0.0254669189453125;0.04412841796875;-1.012969970703125;0.043234556913375854;-0.00046631949953734875;0.005586779210716486
0.0254669189453125;0.04412841796875;-1.012969970703125;0.043234556913375854;-0.00046631949953734875;0.005586779210716486
0.0254669189453125;0.04412841796875;-1.012969970703125;0.043234556913375854;-0.00046631949953734875;0.005586779210716486
0.0254669189453125;0.04412841796875;-1.012969970703125;0.04153119772672653;-0.0028961875941604376;0.0014152037911117077
0.024139404296875;0.04351806640625;-1.0139312744140625;0.04153119772672653;-0.0028961875941604376;0.0014152037911117077
0.024139404296875;0.04351806640625;-1.0139312744140625;0.04153119772672653;-0.0028961875941604376;0.0014152037911117077
0.024139404296875;0.04351806640625;-1.0139312744140625;0.04153119772672653;-0.0028961875941604376;0.0014152037911117077
0.024139404296875;0.04351806640625;-1.0139312744140625;0.04153119772672653;-0.0028961875941604376;0.0014152037911117077
0.023712158203125;0.0441741943359375;-1.0145416259765625;0.03989122435450554;-0.004524444229900837;-0.00013662016135640442
0.023712158203125;0.0441741943359375;-1.0145416259765625;0.03989122435450554;-0.004524444229900837;-0.00013662016135640442
0.023712158203125;0.0441741943359375;-1.0145416259765625;0.03989122435450554;-0.004524444229900837;-0.00013662016135640442
0.023712158203125;0.0441741943359375;-1.0145416259765625;0.03989122435450554;-0.004524444229900837;-0.00013662016135640442
0.023712158203125;0.0441741943359375;-1.0145416259765625;0.03989122435450554;-0.004524444229900837;-0.00013662016135640442
0.023712158203125;0.0441741943359375;-1.0145416259765625;0.03939986974000931;-0.0038285604678094387;0.001549693406559527
0.0234375;0.0437469482421875;-1.01361083984375;0.03939986974000931;-0.0038285604678094387;0.001549693406559527
0.0234375;0.0437469482421875;-1.01361083984375;0.03939986974000931;-0.0038285604678094387;0.001549693406559527
0.0234375;0.0437469482421875;-1.01361083984375;0.03939986974000931;-0.0038285604678094387;0.001549693406559527
0.0234375;0.0437469482421875;-1.01361083984375;0.03939986974000931;-0.0038285604678094387;0.001549693406559527
0.0234375;0.0437469482421875;-1.01361083984375;0.03443680331110954;-0.0016666061710566282;0.0011970909545198083
0.023406982421875;0.0430145263671875;-1.01336669921875;0.03443680331110954;-0.0016666061710566282;0.0011970909545198083
0.023406982421875;0.0430145263671875;-1.01336669921875;0.03443680331110954;-0.0016666061710566282;0.0011970909545198083
0.023406982421875;0.0430145263671875;-1.01336669921875;0.03443680331110954;-0.0016666061710566282;0.0011970909545198083
0.023406982421875;0.0430145263671875;-1.01336669921875;0.03443680331110954;-0.0016666061710566282;0.0011970909545198083
0.022796630859375;0.0435333251953125;-1.013153076171875;0.03454173356294632;-0.0024855281226336956;0.0009922938188537955
0.022796630859375;0.0435333251953125;-1.013153076171875;0.03454173356294632;-0.0024855281226336956;0.0009922938188537955
0.022796630859375;0.0435333251953125;-1.013153076171875;0.03454173356294632;-0.0024855281226336956;0.0009922938188537955
0.022796630859375;0.0435333251953125;-1.013153076171875;0.03454173356294632;-0.0024855281226336956;0.0009922938188537955
0.022796630859375;0.0435333251953125;-1.013153076171875;0.03454173356294632;-0.0024855281226336956;0.0009922938188537955
0.0227813720703125;0.04290771484375;-1.0143585205078125;0.03301254287362099;-0.00048363005043938756;-8.122641156660393e-05
0.0227813720703125;0.04290771484375;-1.0143585205078125;0.03301254287362099;-0.00048363005043938756;-8.122641156660393e-05
0.0227813720703125;0.04290771484375;-1.0143585205078125;0.03301254287362099;-0.00048363005043938756;-8.122641156660393e-05
0.0227813720703125;0.04290771484375;-1.0143585205078125;0.03301254287362099;-0.00048363005043938756;-8.122641156660393e-05
0.0227813720703125;0.04290771484375;-1.0143585205078125;0.03301254287362099;-0.00048363005043938756;-8.122641156660393e-05
0.023193359375;0.0428009033203125;-1.0139617919921875;0.032344091683626175;-0.00017550231132190675;0.00020213393145240843
0.023193359375;0.0428009033203125;-1.0139617919921875;0.032344091683626175;-0.00017550231132190675;0.00020213393145240843
0.023193359375;0.0428009033203125;-1.0139617919921875;0.032344091683626175;-0.00017550231132190675;0.00020213393145240843
0.023193359375;0.0428009033203125;-1.0139617919921875;0.032344091683626175;-0.00017550231132190675;0.00020213393145240843
0.023193359375;0.0428009033203125;-1.0139617919921875;0.032344091683626175;-0.00017550231132190675;0.00020213393145240843
0.02276611328125;0.0424652099609375;-1.0136566162109375;0.033123333007097244;0.0013851100811734796;-0.0011944277212023735
0.02276611328125;0.0424652099609375;-1.0136566162109375;0.033123333007097244;0.0013851100811734796;-0.0011944277212023735
0.02276611328125;0.0424652099609375;-1.0136566162109375;0.033123333007097244;0.0013851100811734796;-0.0011944277212023735
0.02276611328125;0.0424652099609375;-1.0136566162109375;0.033123333007097244;0.0013851100811734796;-0.0011944277212023735
0.02276611328125;0.0424652099609375;-1.0136566162109375;0.033123333007097244;0.0013851100811734796;-0.0011944277212023735
0.0227508544921875;0.0425262451171875;-1.0128936767578125;0.033000558614730835;-0.0005001416429877281;-0.000553404854144901
0.0227508544921875;0.0425262451171875;-1.0128936767578125;0.033000558614730835;-0.0005001416429877281;-0.000553404854144901
0.0227508544921875;0.0425262451171875;-1.0128936767578125;0.033000558614730835;-0.0005001416429877281;-0.000553404854144901
0.0227508544921875;0.0425262451171875;-1.0128936767578125;0.033000558614730835;-0.0005001416429877281;-0.000553404854144901
0.0227508544921875;0.0425262451171875;-1.0128936767578125;0.033000558614730835;-0.0005001416429877281;-0.000553404854144901
0.0232696533203125;0.041046142578125;-1.014068603515625;0.028089424595236778;0.0032559807877987623;-0.0013398362789303064
0.0232696533203125;0.041046142578125;-1.014068603515625;0.028089424595236778;0.0032559807877987623;-0.0013398362789303064
0.0232696533203125;0.041046142578125;-1.014068603515625;0.028089424595236778;0.0032559807877987623;-0.0013398362789303064
0.0232696533203125;0.041046142578125;-1.014068603515625;0.028089424595236778;0.0032559807877987623;-0.0013398362789303064
0.0232696533203125;0.041046142578125;-1.014068603515625;0.028089424595236778;0.0032559807877987623;-0.0013398362789303064
0.0242919921875;0.0425262451171875;-1.013580322265625;0.030337665230035782;0.0012013519881293178;-0.00012650014832615852
0.0242919921875;0.0425262451171875;-1.013580322265625;0.030337665230035782;0.0012013519881293178;-0.00012650014832615852
0.0242919921875;0.0425262451171875;-1.013580322265625;0.030337665230035782;0.0012013519881293178;-0.00012650014832615852
0.0242919921875;0.0425262451171875;-1.013580322265625;0.030337665230035782;0.0012013519881293178;-0.00012650014832615852
0.0242919921875;0.0425262451171875;-1.013580322265625;0.030337665230035782;0.0012013519881293178;-0.00012650014832615852
0.023834228515625;0.0419921875;-1.0137481689453125;0.0314873531460762;-0.0002924150903709233;0.0008572715451009572
0.023834228515625;0.0419921875;-1.0137481689453125;0.0314873531460762;-0.0002924150903709233;0.0008572715451009572
0.023834228515625;0.0419921875;-1.0137481689453125;0.0314873531460762;-0.0002924150903709233;0.0008572715451009572
0.023834228515625;0.0419921875;-1.0137481689453125;0.0314873531460762;-0.0002924150903709233;0.0008572715451009572
0.023834228515625;0.0419921875;-1.0137481689453125;0.0314873531460762;-0.0002924150903709233;0.0008572715451009572
0.0241851806640625;0.0420684814453125;-1.014862060546875;0.03193396329879761;0.0030660973861813545;0.0026959178503602743
0.0241851806640625;0.0420684814453125;-1.014862060546875;0.03193396329879761;0.0030660973861813545;0.0026959178503602743
0.0241851806640625;0.0420684814453125;-1.014862060546875;0.03193396329879761;0.0030660973861813545;0.0026959178503602743
0.0241851806640625;0.0420684814453125;-1.014862060546875;0.03193396329879761;0.0030660973861813545;0.0026959178503602743
0.0241851806640625;0.0420684814453125;-1.014862060546875;0.03193396329879761;0.0030660973861813545;0.0026959178503602743
0.023895263671875;0.04168701171875;-1.01409912109375;0.030524352565407753;-0.003054911969229579;0.00016937704640440643
0.023895263671875;0.04168701171875;-1.01409912109375;0.030524352565407753;-0.003054911969229579;0.00016937704640440643
0.023895263671875;0.04168701171875;-1.01409912109375;0.030524352565407753;-0.003054911969229579;0.00016937704640440643
0.023895263671875;0.04168701171875;-1.01409912109375;0.030524352565407753;-0.003054911969229579;0.00016937704640440643
0.023895263671875;0.04168701171875;-1.01409912109375;0.030524352565407753;-0.003054911969229579;0.00016937704640440643
0.0237274169921875;0.04058837890625;-1.0141143798828125;0.027248932048678398;-0.006145510356873274;0.0027105652261525393
0.0237274169921875;0.04058837890625;-1.0141143798828125;0.027248932048678398;-0.006145510356873274;0.0027105652261525393
0.0237274169921875;0.04058837890625;-1.0141143798828125;0.027248932048678398;-0.006145510356873274;0.0027105652261525393
0.0237274169921875;0.04058837890625;-1.0141143798828125;0.027248932048678398;-0.006145510356873274;0.0027105652261525393
0.0237274169921875;0.04058837890625;-1.0141143798828125;0.027248932048678398;-0.006145510356873274;0.0027105652261525393
0.0248565673828125;0.0413818359375;-1.012054443359375;0.028684375807642937;-0.007288272958248854;-0.00011904330312972888
0.0248565673828125;0.0413818359375;-1.012054443359375;0.028684375807642937;-0.007288272958248854;-0.00011904330312972888
0.0248565673828125;0.0413818359375;-1.012054443359375;0.028684375807642937;-0.007288272958248854;-0.00011904330312972888
0.0248565673828125;0.0413818359375;-1.012054443359375;0.028684375807642937;-0.007288272958248854;-0.00011904330312972888
0.0248565673828125;0.0413818359375;-1.012054443359375;0.028684375807642937;-0.007288272958248854;-0.00011904330312972888
0.0243072509765625;0.0419158935546875;-1.010955810546875;0.02797757275402546;-0.006007292307913303;0.002989398315548897
0.0243072509765625;0.0419158935546875;-1.010955810546875;0.02797757275402546;-0.006007292307913303;0.002989398315548897
0.0243072509765625;0.0419158935546875;-1.010955810546875;0.02797757275402546;-0.006007292307913303;0.002989398315548897
0.0243072509765625;0.0419158935546875;-1.010955810546875;0.02797757275402546;-0.006007292307913303;0.002989398315548897
0.0243072509765625;0.0419158935546875;-1.010955810546875;0.02797757275402546;-0.006007292307913303;0.002989398315548897
0.022705078125;0.0405731201171875;-1.011810302734375;0.02617328055202961;-0.0015001586871221662;0.002180596347898245
0.022705078125;0.0405731201171875;-1.011810302734375;0.02617328055202961;-0.0015001586871221662;0.002180596347898245
0.022705078125;0.0405731201171875;-1.011810302734375;0.02617328055202961;-0.0015001586871221662;0.002180596347898245
0.022705078125;0.0405731201171875;-1.011810302734375;0.02617328055202961;-0.0015001586871221662;0.002180596347898245
0.022705078125;0.0405731201171875;-1.011810302734375;0.02617328055202961;-0.0015001586871221662;0.002180596347898245
0.02288818359375;0.038665771484375;-1.0124359130859375;0.02689499780535698;0.0043982104398310184;0.0005725796218030155
0.02288818359375;0.038665771484375;-1.0124359130859375;0.02689499780535698;0.0043982104398310184;0.0005725796218030155
0.02288818359375;0.038665771484375;-1.0124359130859375;0.02689499780535698;0.0043982104398310184;0.0005725796218030155
0.02288818359375;0.038665771484375;-1.0124359130859375;0.02689499780535698;0.0043982104398310184;0.0005725796218030155
0.02288818359375;0.038665771484375;-1.0124359130859375;0.02689499780535698;0.0043982104398310184;0.0005725796218030155
0.023834228515625;0.0366973876953125;-1.01300048828125;0.02256735973060131;0.002192314248532057;0.002885801251977682
0.023834228515625;0.0366973876953125;-1.01300048828125;0.02256735973060131;0.002192314248532057;0.002885801251977682
0.023834228515625;0.0366973876953125;-1.01300048828125;0.02256735973060131;0.002192314248532057;0.002885801251977682
0.023834228515625;0.0366973876953125;-1.01300048828125;0.02256735973060131;0.002192314248532057;0.002885801251977682
0.023834228515625;0.0366973876953125;-1.01300048828125;0.02256735973060131;0.002192314248532057;0.002885801251977682
0.0235137939453125;0.0358734130859375;-1.0135955810546875;0.020441891625523567;0.00324825756251812;0.0012042814632877707
0.0235137939453125;0.0358734130859375;-1.0135955810546875;0.020441891625523567;0.00324825756251812;0.0012042814632877707
0.0235137939453125;0.0358734130859375;-1.0135955810546875;0.020441891625523567;0.00324825756251812;0.0012042814632877707
0.0235137939453125;0.0358734130859375;-1.0135955810546875;0.020441891625523567;0.00324825756251812;0.0012042814632877707
0.0235137939453125;0.0358734130859375;-1.0135955810546875;0.020441891625523567;0.00324825756251812;0.0012042814632877707
0.0237884521484375;0.036102294921875;-1.0137481689453125;0.0222025066614151;0.0018540926976129413;0.0012988236267119646
0.0237884521484375;0.036102294921875;-1.0137481689453125;0.0222025066614151;0.0018540926976129413;0.0012988236267119646
0.0237884521484375;0.036102294921875;-1.0137481689453125;0.0222025066614151;0.0018540926976129413;0.0012988236267119646
0.0237884521484375;0.036102294921875;-1.0137481689453125;0.0222025066614151;0.0018540926976129413;0.0012988236267119646
0.0237884521484375;0.036102294921875;-1.0137481689453125;0.0222025066614151;0.0018540926976129413;0.0012988236267119646
0.0240325927734375;0.0377044677734375;-1.0141754150390625;0.01966717839241028;0.001193362521007657;0.0006668555433861911
0.0240325927734375;0.0377044677734375;-1.0141754150390625;0.01966717839241028;0.001193362521007657;0.0006668555433861911
0.0240325927734375;0.0377044677734375;-1.0141754150390625;0.01966717839241028;0.001193362521007657;0.0006668555433861911
0.0240325927734375;0.0377044677734375;-1.0141754150390625;0.01966717839241028;0.001193362521007657;0.0006668555433861911
0.0240325927734375;0.0377044677734375;-1.0141754150390625;0.01966717839241028;0.001193362521007657;0.0006668555433861911
0.024932861328125;0.037445068359375;-1.0141448974609375;0.021279189735651016;-0.0020692760590463877;0.001675128354690969
0.024932861328125;0.037445068359375;-1.0141448974609375;0.021279189735651016;-0.0020692760590463877;0.001675128354690969
0.024932861328125;0.037445068359375;-1.0141448974609375;0.021279189735651016;-0.0020692760590463877;0.001675128354690969
0.024932861328125;0.037445068359375;-1.0141448974609375;0.021279189735651016;-0.0020692760590463877;0.001675128354690969
0.024932861328125;0.037445068359375;-1.0141448974609375;0.021279189735651016;-0.0020692760590463877;0.001675128354690969
0.0244903564453125;0.0385284423828125;-1.0143585205078125;0.02016199380159378;-0.0011502192355692387;0.0032767534721642733
0.0244903564453125;0.0385284423828125;-1.0143585205078125;0.02016199380159378;-0.0011502192355692387;0.0032767534721642733
0.0244903564453125;0.0385284423828125;-1.0143585205078125;0.02016199380159378;-0.0011502192355692387;0.0032767534721642733
0.0244903564453125;0.0385284423828125;-1.0143585205078125;0.02016199380159378;-0.0011502192355692387;0.0032767534721642733
0.0244903564453125;0.0385284423828125;-1.0143585205078125;0.02016199380159378;-0.0011502192355692387;0.0032767534721642733
0.0241241455078125;0.0382232666015625;-1.0131378173828125;0.01966717839241028;-0.0064866612665355206;-0.0002972087822854519
0.0241241455078125;0.0382232666015625;-1.0131378173828125;0.01966717839241028;-0.0064866612665355206;-0.0002972087822854519
0.0241241455078125;0.0382232666015625;-1.0131378173828125;0.01966717839241028;-0.0064866612665355206;-0.0002972087822854519
0.0241241455078125;0.0382232666015625;-1.0131378173828125;0.01966717839241028;-0.0064866612665355206;-0.0002972087822854519
0.0241241455078125;0.0382232666015625;-1.0131378173828125;0.01966717839241028;-0.0064866612665355206;-0.0002972087822854519
0.024139404296875;0.03729248046875;-1.0118560791015625;0.018814966082572937;-0.0019443739438429475;0.0010820423485711217
0.024139404296875;0.03729248046875;-1.0118560791015625;0.018814966082572937;-0.0019443739438429475;0.0010820423485711217
0.024139404296875;0.03729248046875;-1.0118560791015625;0.018814966082572937;-0.0019443739438429475;0.0010820423485711217
0.024139404296875;0.03729248046875;-1.0118560791015625;0.018814966082572937;-0.0019443739438429475;0.0010820423485711217
0.024139404296875;0.03729248046875;-1.0118560791015625;0.018814966082572937;-0.0019443739438429475;0.0010820423485711217
0.0248260498046875;0.037628173828125;-1.009490966796875;0.01829698123037815;0.0018106831703335047;0.0002287655370309949
0.0248260498046875;0.037628173828125;-1.009490966796875;0.01829698123037815;0.0018106831703335047;0.0002287655370309949
0.0248260498046875;0.037628173828125;-1.009490966796875;0.01829698123037815;0.0018106831703335047;0.0002287655370309949
0.0248260498046875;0.037628173828125;-1.009490966796875;0.01829698123037815;0.0018106831703335047;0.0002287655370309949
0.0248260498046875;0.037628173828125;-1.009490966796875;0.01829698123037815;0.0018106831703335047;0.0002287655370309949
0.025909423828125;0.03802490234375;-1.011199951171875;0.017164872959256172;0.0031374699901789427;0.003938282374292612
0.025909423828125;0.03802490234375;-1.011199951171875;0.017164872959256172;0.0031374699901789427;0.003938282374292612
0.025909423828125;0.03802490234375;-1.011199951171875;0.017164872959256172;0.0031374699901789427;0.003938282374292612
0.025909423828125;0.03802490234375;-1.011199951171875;0.017164872959256172;0.0031374699901789427;0.003938282374292612
0.025909423828125;0.03802490234375;-1.011199951171875;0.017164872959256172;0.0031374699901789427;0.003938282374292612
0.02606201171875;0.0378875732421875;-1.0154266357421875;0.026335999369621277;0.0009214537567459047;0.004225904121994972
0.02606201171875;0.0378875732421875;-1.0154266357421875;0.026335999369621277;0.0009214537567459047;0.004225904121994972
0.02606201171875;0.0378875732421875;-1.0154266357421875;0.026335999369621277;0.0009214537567459047;0.004225904121994972
0.02606201171875;0.0378875732421875;-1.0154266357421875;0.026335999369621277;0.0009214537567459047;0.004225904121994972
0.0250091552734375;0.0382843017578125;-1.01898193359375;0.027053987607359886;-0.0018751317402347922;0.0015757924411445856
0.0250091552734375;0.0382843017578125;-1.01898193359375;0.027053987607359886;-0.0018751317402347922;0.0015757924411445856
0.0250091552734375;0.0382843017578125;-1.01898193359375;0.027053987607359886;-0.0018751317402347922;0.0015757924411445856
0.0250091552734375;0.0382843017578125;-1.01898193359375;0.027053987607359886;-0.0018751317402347922;0.0015757924411445856
