Acell X;Acell Y;Acell Z;Gyro X;Gyro Y;Gyro Z

0.0313568115234375;0.0401763916015625;-1.0077972412109375;-0.028331773355603218;-0.006716225761920214;0.0028852687682956457
0.021240234375;0.0373077392578125;-0.99737548828125;-0.027881965041160583;0.0132673354819417;0.0038314899429678917
0.021240234375;0.0373077392578125;-0.99737548828125;-0.027881965041160583;0.0132673354819417;0.0038314899429678917
0.021240234375;0.0373077392578125;-0.99737548828125;-0.027881965041160583;0.0132673354819417;0.0038314899429678917
0.021240234375;0.0373077392578125;-0.99737548828125;-0.027881965041160583;0.0132673354819417;0.0038314899429678917
0.0230712890625;0.0365142822265625;-1.006561279296875;-0.018424812704324722;0.01241991762071848;0.005097290500998497
0.0230712890625;0.0365142822265625;-1.006561279296875;-0.018424812704324722;0.01241991762071848;0.005097290500998497
0.0230712890625;0.0365142822265625;-1.006561279296875;-0.018424812704324722;0.01241991762071848;0.005097290500998497
0.0230712890625;0.0365142822265625;-1.006561279296875;-0.018424812704324722;0.01241991762071848;0.005097290500998497
0.0230712890625;0.0365142822265625;-1.006561279296875;-0.018424812704324722;0.01241991762071848;0.005097290500998497
0.0248260498046875;0.0357513427734375;-1.0172271728515625;-0.0007781756576150656;0.001067927572876215;0.005517537239938974
0.0248260498046875;0.0357513427734375;-1.0172271728515625;-0.0007781756576150656;0.001067927572876215;0.005517537239938974
0.0248260498046875;0.0357513427734375;-1.0172271728515625;-0.0007781756576150656;0.001067927572876215;0.005517537239938974
0.0248260498046875;0.0357513427734375;-1.0172271728515625;-0.0007781756576150656;0.001067927572876215;0.005517537239938974
0.0248260498046875;0.0357513427734375;-1.0172271728515625;-0.0007781756576150656;0.001067927572876215;0.005517537239938974
0.0239715576171875;0.0363922119140625;-1.0248870849609375;0.014625282026827335;-0.0010788465151563287;0.0019030949333682656
0.0239715576171875;0.0363922119140625;-1.0248870849609375;0.014625282026827335;-0.0010788465151563287;0.0019030949333682656
0.0239715576171875;0.0363922119140625;-1.0248870849609375;0.014625282026827335;-0.0010788465151563287;0.0019030949333682656
0.0239715576171875;0.0363922119140625;-1.0248870849609375;0.014625282026827335;-0.0010788465151563287;0.0019030949333682656
0.0239715576171875;0.0363922119140625;-1.0248870849609375;0.014625282026827335;-0.0010788465151563287;0.0019030949333682656
0.0245819091796875;0.0358428955078125;-1.0234527587890625;0.014561365358531475;-0.0022660838440060616;0.0014863101532682776
0.0245819091796875;0.0358428955078125;-1.0234527587890625;0.014561365358531475;-0.0022660838440060616;0.0014863101532682776
0.0245819091796875;0.0358428955078125;-1.0234527587890625;0.014561365358531475;-0.0022660838440060616;0.0014863101532682776
0.0245819091796875;0.0358428955078125;-1.0234527587890625;0.014561365358531475;-0.0022660838440060616;0.0014863101532682776
0.0245819091796875;0.0358428955078125;-1.0234527587890625;0.014561365358531475;-0.0022660838440060616;0.0014863101532682776
0.0249786376953125;0.0377655029296875;-1.01788330078125;0.005240834783762693;7.456851017195731e-05;0.0018676748732104897
0.0249786376953125;0.0377655029296875;-1.01788330078125;0.005240834783762693;7.456851017195731e-05;0.0018676748732104897
0.0249786376953125;0.0377655029296875;-1.01788330078125;0.005240834783762693;7.456851017195731e-05;0.0018676748732104897
0.0249786376953125;0.0377655029296875;-1.01788330078125;0.005240834783762693;7.456851017195731e-05;0.0018676748732104897
0.0249786376953125;0.0377655029296875;-1.01788330078125;0.005240834783762693;7.456851017195731e-05;0.0018676748732104897
0.0255279541015625;0.0394439697265625;-1.0144195556640625;-0.007816111668944359;0.003695668652653694;0.0024258734192699194
0.0255279541015625;0.0394439697265625;-1.0144195556640625;-0.007816111668944359;0.003695668652653694;0.0024258734192699194
0.0255279541015625;0.0394439697265625;-1.0144195556640625;-0.007816111668944359;0.003695668652653694;0.0024258734192699194
0.0255279541015625;0.0394439697265625;-1.0144195556640625;-0.007816111668944359;0.003695668652653694;0.0024258734192699194
0.0255279541015625;0.0394439697265625;-1.0144195556640625;-0.007816111668944359;0.003695668652653694;0.0024258734192699194
0.025115966796875;0.0397796630859375;-1.0111083984375;-0.017972076311707497;0.002161954063922167;-0.0005611280212178826
0.025115966796875;0.0397796630859375;-1.0111083984375;-0.017972076311707497;0.002161954063922167;-0.0005611280212178826
0.025115966796875;0.0397796630859375;-1.0111083984375;-0.017972076311707497;0.002161954063922167;-0.0005611280212178826
0.025115966796875;0.0397796630859375;-1.0111083984375;-0.017972076311707497;0.002161954063922167;-0.0005611280212178826
0.025115966796875;0.0397796630859375;-1.0111083984375;-0.017972076311707497;0.002161954063922167;-0.0005611280212178826
0.0260162353515625;0.040008544921875;-1.00885009765625;-0.023259783163666725;0.00047404266661033034;-0.001026115962304175
0.0260162353515625;0.040008544921875;-1.00885009765625;-0.023259783163666725;0.00047404266661033034;-0.001026115962304175
0.0260162353515625;0.040008544921875;-1.00885009765625;-0.023259783163666725;0.00047404266661033034;-0.001026115962304175
0.0260162353515625;0.040008544921875;-1.00885009765625;-0.023259783163666725;0.00047404266661033034;-0.001026115962304175
0.0260162353515625;0.040008544921875;-1.00885009765625;-0.023259783163666725;0.00047404266661033034;-0.001026115962304175
0.027801513671875;0.04168701171875;-1.0101318359375;-0.02905561961233616;0.0016532903537154198;-0.0006988134700804949
0.027801513671875;0.04168701171875;-1.0101318359375;-0.02905561961233616;0.0016532903537154198;-0.0006988134700804949
0.027801513671875;0.04168701171875;-1.0101318359375;-0.02905561961233616;0.0016532903537154198;-0.0006988134700804949
0.027801513671875;0.04168701171875;-1.0101318359375;-0.02905561961233616;0.0016532903537154198;-0.0006988134700804949
0.027801513671875;0.04168701171875;-1.0101318359375;-0.02905561961233616;0.0016532903537154198;-0.0006988134700804949
0.0270233154296875;0.0446624755859375;-1.0117645263671875;-0.023898940533399582;0.0003406183095648885;0.0002055960358120501
0.0270233154296875;0.0446624755859375;-1.0117645263671875;-0.023898940533399582;0.0003406183095648885;0.0002055960358120501
0.0270233154296875;0.0446624755859375;-1.0117645263671875;-0.023898940533399582;0.0003406183095648885;0.0002055960358120501
0.0270233154296875;0.0446624755859375;-1.0117645263671875;-0.023898940533399582;0.0003406183095648885;0.0002055960358120501
0.0270233154296875;0.0446624755859375;-1.0117645263671875;-0.023898940533399582;0.0003406183095648885;0.0002055960358120501
0.0270233154296875;0.048553466796875;-1.0120391845703125;-0.019630160182714462;-0.003011236200109124;0.0010306433541700244
0.0270233154296875;0.048553466796875;-1.0120391845703125;-0.019630160182714462;-0.003011236200109124;0.0010306433541700244
0.0270233154296875;0.048553466796875;-1.0120391845703125;-0.019630160182714462;-0.003011236200109124;0.0010306433541700244
0.0270233154296875;0.048553466796875;-1.0120391845703125;-0.019630160182714462;-0.003011236200109124;0.0010306433541700244
0.0270233154296875;0.048553466796875;-1.0120391845703125;-0.019630160182714462;-0.003011236200109124;0.0010306433541700244
0.0262603759765625;0.0510406494140625;-1.0124053955078125;-0.015870574861764908;0.000800279900431633;0.0019110844004899263
0.0262603759765625;0.0510406494140625;-1.0124053955078125;-0.015870574861764908;0.000800279900431633;0.0019110844004899263
0.0262603759765625;0.0510406494140625;-1.0124053955078125;-0.015870574861764908;0.000800279900431633;0.0019110844004899263
0.0262603759765625;0.0510406494140625;-1.0124053955078125;-0.015870574861764908;0.000800279900431633;0.0019110844004899263
0.0262603759765625;0.0510406494140625;-1.0124053955078125;-0.015870574861764908;0.000800279900431633;0.0019110844004899263
0.0261383056640625;0.051727294921875;-1.0136566162109375;-0.010232663713395596;-0.0020570256747305393;-0.00011611382069531828
0.0261383056640625;0.051727294921875;-1.0136566162109375;-0.010232663713395596;-0.0020570256747305393;-0.00011611382069531828
0.0261383056640625;0.051727294921875;-1.0136566162109375;-0.010232663713395596;-0.0020570256747305393;-0.00011611382069531828
0.0261383056640625;0.051727294921875;-1.0136566162109375;-0.010232663713395596;-0.0020570256747305393;-0.00011611382069531828
0.0261383056640625;0.051727294921875;-1.0136566162109375;-0.010232663713395596;-0.0020570256747305393;-0.00011611382069531828
0.0257415771484375;0.050811767578125;-1.013397216796875;-0.004487692844122648;-0.0031425300985574722;0.0026612968649715185
0.0257415771484375;0.050811767578125;-1.013397216796875;-0.004487692844122648;-0.0031425300985574722;0.0026612968649715185
0.0257415771484375;0.050811767578125;-1.013397216796875;-0.004487692844122648;-0.0031425300985574722;0.0026612968649715185
0.0257415771484375;0.050811767578125;-1.013397216796875;-0.004487692844122648;-0.0031425300985574722;0.0026612968649715185
0.0257415771484375;0.050811767578125;-1.013397216796875;-0.004487692844122648;-0.0031425300985574722;0.0026612968649715185
0.0239105224609375;0.048553466796875;-1.0138702392578125;-0.0016650082543492317;-0.0015337144723162055;0.004168645944446325
0.0239105224609375;0.048553466796875;-1.0138702392578125;-0.0016650082543492317;-0.0015337144723162055;0.004168645944446325
0.0239105224609375;0.048553466796875;-1.0138702392578125;-0.0016650082543492317;-0.0015337144723162055;0.004168645944446325
0.0239105224609375;0.048553466796875;-1.0138702392578125;-0.0016650082543492317;-0.0015337144723162055;0.004168645944446325
0.0239105224609375;0.048553466796875;-1.0138702392578125;-0.0016650082543492317;-0.0015337144723162055;0.004168645944446325
0.0235443115234375;0.04583740234375;-1.0138397216796875;0.0037971350830048323;-0.0031318773981183767;0.003088201628997922
0.0235443115234375;0.04583740234375;-1.0138397216796875;0.0037971350830048323;-0.0031318773981183767;0.003088201628997922
0.0235443115234375;0.04583740234375;-1.0138397216796875;0.0037971350830048323;-0.0031318773981183767;0.003088201628997922
0.0235443115234375;0.04583740234375;-1.0138397216796875;0.0037971350830048323;-0.0031318773981183767;0.003088201628997922
0.0235443115234375;0.04583740234375;-1.0138397216796875;0.0037971350830048323;-0.0031318773981183767;0.003088201628997922
0.0233154296875;0.042938232421875;-1.0140838623046875;0.00703926756978035;0.001210673013702035;0.003811249742284417
0.0233154296875;0.042938232421875;-1.0140838623046875;0.00703926756978035;0.001210673013702035;0.003811249742284417
0.0233154296875;0.042938232421875;-1.0140838623046875;0.00703926756978035;0.001210673013702035;0.003811249742284417
0.0233154296875;0.042938232421875;-1.0140838623046875;0.00703926756978035;0.001210673013702035;0.003811249742284417
0.0233154296875;0.042938232421875;-1.0140838623046875;0.00703926756978035;0.001210673013702035;0.003811249742284417
0.0234832763671875;0.0406036376953125;-1.012451171875;0.007262174040079117;0.00016964336100500077;0.0013403689954429865
0.0234832763671875;0.0406036376953125;-1.012451171875;0.007262174040079117;0.00016964336100500077;0.0013403689954429865
0.0234832763671875;0.0406036376953125;-1.012451171875;0.007262174040079117;0.00016964336100500077;0.0013403689954429865
0.0234832763671875;0.0406036376953125;-1.012451171875;0.007262174040079117;0.00016964336100500077;0.0013403689954429865
0.0234832763671875;0.0406036376953125;-1.012451171875;0.007262174040079117;0.00016964336100500077;0.0013403689954429865
0.0240936279296875;0.0399627685546875;-1.01123046875;0.007692540530115366;0.0010695254895836115;0.0044408212415874004
0.0240936279296875;0.0399627685546875;-1.01123046875;0.007692540530115366;0.0010695254895836115;0.0044408212415874004
0.0240936279296875;0.0399627685546875;-1.01123046875;0.007692540530115366;0.0010695254895836115;0.0044408212415874004
0.0240936279296875;0.0399627685546875;-1.01123046875;0.007692540530115366;0.0010695254895836115;0.0044408212415874004
0.0240936279296875;0.0399627685546875;-1.01123046875;0.007692540530115366;0.0010695254895836115;0.0044408212415874004
0.024200439453125;0.03961181640625;-1.0106964111328125;0.01164467167109251;-0.0032621060963720083;0.0013859090395271778
0.024200439453125;0.03961181640625;-1.0106964111328125;0.01164467167109251;-0.0032621060963720083;0.0013859090395271778
0.024200439453125;0.03961181640625;-1.0106964111328125;0.01164467167109251;-0.0032621060963720083;0.0013859090395271778
0.024200439453125;0.03961181640625;-1.0106964111328125;0.01164467167109251;-0.0032621060963720083;0.0013859090395271778
0.024200439453125;0.03961181640625;-1.0106964111328125;0.01164467167109251;-0.0032621060963720083;0.0013859090395271778
0.024078369140625;0.0394287109375;-1.01025390625;0.01185080036520958;-0.0009803095599636436;0.00017496968212071806
0.024078369140625;0.0394287109375;-1.01025390625;0.01185080036520958;-0.0009803095599636436;0.00017496968212071806
0.024078369140625;0.0394287109375;-1.01025390625;0.01185080036520958;-0.0009803095599636436;0.00017496968212071806
0.024078369140625;0.0394287109375;-1.01025390625;0.01185080036520958;-0.0009803095599636436;0.00017496968212071806
0.024078369140625;0.0394287109375;-1.01025390625;0.01185080036520958;-0.0009803095599636436;0.00017496968212071806
0.0240936279296875;0.0408935546875;-1.01123046875;0.01492142491042614;-0.0006103964988142252;0.0026075011119246483
0.0240936279296875;0.0408935546875;-1.01123046875;0.01492142491042614;-0.0006103964988142252;0.0026075011119246483
0.0240936279296875;0.0408935546875;-1.01123046875;0.01492142491042614;-0.0006103964988142252;0.0026075011119246483
0.0240936279296875;0.0408935546875;-1.01123046875;0.01492142491042614;-0.0006103964988142252;0.0026075011119246483
0.0240936279296875;0.0408935546875;-1.01123046875;0.01492142491042614;-0.0006103964988142252;0.0026075011119246483
0.02545166015625;0.04058837890625;-1.013885498046875;0.01919606514275074;-0.002977680414915085;0.0008186557097360492
0.02545166015625;0.04058837890625;-1.013885498046875;0.01919606514275074;-0.002977680414915085;0.0008186557097360492
0.02545166015625;0.04058837890625;-1.013885498046875;0.01919606514275074;-0.002977680414915085;0.0008186557097360492
0.02545166015625;0.04058837890625;-1.013885498046875;0.01919606514275074;-0.002977680414915085;0.0008186557097360492
0.02545166015625;0.04058837890625;-1.013885498046875;0.01919606514275074;-0.002977680414915085;0.0008186557097360492
0.0254058837890625;0.0405120849609375;-1.01519775390625;0.020002469420433044;-0.010016681626439095;-0.0020069582387804985
0.0254058837890625;0.0405120849609375;-1.01519775390625;0.020002469420433044;-0.010016681626439095;-0.0020069582387804985
0.0254058837890625;0.0405120849609375;-1.01519775390625;0.020002469420433044;-0.010016681626439095;-0.0020069582387804985
0.0254058837890625;0.0405120849609375;-1.01519775390625;0.020002469420433044;-0.010016681626439095;-0.0020069582387804985
0.0254058837890625;0.0405120849609375;-1.01519775390625;0.020002469420433044;-0.010016681626439095;-0.0020069582387804985
0.024810791015625;0.04058837890625;-1.017364501953125;0.021940186619758606;-0.014155765995383263;-0.000666589243337512
0.024810791015625;0.04058837890625;-1.017364501953125;0.021940186619758606;-0.014155765995383263;-0.000666589243337512
0.024810791015625;0.04058837890625;-1.017364501953125;0.021940186619758606;-0.014155765995383263;-0.000666589243337512
0.024810791015625;0.04058837890625;-1.017364501953125;0.021940186619758606;-0.014155765995383263;-0.000666589243337512
0.024810791015625;0.04058837890625;-1.017364501953125;0.021940186619758606;-0.014155765995383263;-0.000666589243337512
0.0255889892578125;0.0407562255859375;-1.0131378173828125;0.01281353272497654;-0.011404454708099365;0.0005608617211692035
0.0255889892578125;0.0407562255859375;-1.0131378173828125;0.01281353272497654;-0.011404454708099365;0.0005608617211692035
0.0255889892578125;0.0407562255859375;-1.0131378173828125;0.01281353272497654;-0.011404454708099365;0.0005608617211692035
0.0255889892578125;0.0407562255859375;-1.0131378173828125;0.01281353272497654;-0.011404454708099365;0.0005608617211692035
0.0255889892578125;0.0407562255859375;-1.0131378173828125;0.01281353272497654;-0.011404454708099365;0.0005608617211692035
0.0247344970703125;0.0416259765625;-1.0081787109375;0.00026045716367661953;-0.010756507515907288;0.001674861996434629
0.0247344970703125;0.0416259765625;-1.0081787109375;0.00026045716367661953;-0.010756507515907288;0.001674861996434629
0.0247344970703125;0.0416259765625;-1.0081787109375;0.00026045716367661953;-0.010756507515907288;0.001674861996434629
0.0247344970703125;0.0416259765625;-1.0081787109375;0.00026045716367661953;-0.010756507515907288;0.001674861996434629
0.0247344970703125;0.0416259765625;-1.0081787109375;0.00026045716367661953;-0.010756507515907288;0.001674861996434629
0.0243377685546875;0.04180908203125;-1.007965087890625;-0.002764893928542733;0.00031079089967533946;0.0018671422731131315
0.0243377685546875;0.04180908203125;-1.007965087890625;-0.002764893928542733;0.00031079089967533946;0.0018671422731131315
0.0243377685546875;0.04180908203125;-1.007965087890625;-0.002764893928542733;0.00031079089967533946;0.0018671422731131315
0.0243377685546875;0.04180908203125;-1.007965087890625;-0.002764893928542733;0.00031079089967533946;0.0018671422731131315
0.0243377685546875;0.04180908203125;-1.007965087890625;0.005112470127642155;-3.728425554072601e-06;0.0035127094015479088
0.023284912109375;0.0420074462890625;-1.006683349609375;0.005112470127642155;-3.728425554072601e-06;0.0035127094015479088
0.023284912109375;0.0420074462890625;-1.006683349609375;0.005112470127642155;-3.728425554072601e-06;0.0035127094015479088
0.023284912109375;0.0420074462890625;-1.006683349609375;0.005112470127642155;-3.728425554072601e-06;0.0035127094015479088
0.023284912109375;0.0420074462890625;-1.006683349609375;0.005112470127642155;-3.728425554072601e-06;0.0035127094015479088
0.0242156982421875;0.041778564453125;-1.011810302734375;0.011117898859083652;-0.003483681008219719;0.0044139232486486435
0.0242156982421875;0.041778564453125;-1.011810302734375;0.011117898859083652;-0.003483681008219719;0.0044139232486486435
0.0242156982421875;0.041778564453125;-1.011810302734375;0.011117898859083652;-0.003483681008219719;0.0044139232486486435
0.0242156982421875;0.041778564453125;-1.011810302734375;0.011117898859083652;-0.003483681008219719;0.0044139232486486435
0.0242156982421875;0.041778564453125;-1.011810302734375;0.011117898859083652;-0.003483681008219719;0.0044139232486486435
0.0242156982421875;0.041778564453125;-1.011810302734375;0.018123609945178032;0.0004857605672441423;0.0018394453218206763
0.0244598388671875;0.0416259765625;-1.016387939453125;0.018123609945178032;0.0004857605672441423;0.0018394453218206763
0.0244598388671875;0.0416259765625;-1.016387939453125;0.018123609945178032;0.0004857605672441423;0.0018394453218206763
0.0244598388671875;0.0416259765625;-1.016387939453125;0.018123609945178032;0.0004857605672441423;0.0018394453218206763
0.0244598388671875;0.0416259765625;-1.016387939453125;0.018123609945178032;0.0004857605672441423;0.0018394453218206763
0.025360107421875;0.0416717529296875;-1.01580810546875;0.019956929609179497;0.0020516992080956697;0.002213619416579604
0.025360107421875;0.0416717529296875;-1.01580810546875;0.019956929609179497;0.0020516992080956697;0.002213619416579604
0.025360107421875;0.0416717529296875;-1.01580810546875;0.019956929609179497;0.0020516992080956697;0.002213619416579604
0.025360107421875;0.0416717529296875;-1.01580810546875;0.019956929609179497;0.0020516992080956697;0.002213619416579604
0.025360107421875;0.0416717529296875;-1.01580810546875;0.019956929609179497;0.0020516992080956697;0.002213619416579604
0.025360107421875;0.0416717529296875;-1.01580810546875;0.02166747860610485;0.004316451493650675;0.003067961661145091
0.0243988037109375;0.04205322265625;-1.0146636962890625;0.02166747860610485;0.004316451493650675;0.003067961661145091
0.0243988037109375;0.04205322265625;-1.0146636962890625;0.02166747860610485;0.004316451493650675;0.003067961661145091
0.0243988037109375;0.04205322265625;-1.0146636962890625;0.02166747860610485;0.004316451493650675;0.003067961661145091
0.0243988037109375;0.04205322265625;-1.0146636962890625;0.02166747860610485;0.004316451493650675;0.003067961661145091
0.0247802734375;0.042022705078125;-1.0157623291015625;0.020001139491796494;0.00392736354842782;0.0031909996178001165
0.0247802734375;0.042022705078125;-1.0157623291015625;0.020001139491796494;0.00392736354842782;0.0031909996178001165
0.0247802734375;0.042022705078125;-1.0157623291015625;0.020001139491796494;0.00392736354842782;0.0031909996178001165
0.0247802734375;0.042022705078125;-1.0157623291015625;0.020001139491796494;0.00392736354842782;0.0031909996178001165
0.0247802734375;0.042022705078125;-1.0157623291015625;0.020001139491796494;0.00392736354842782;0.0031909996178001165
0.024383544921875;0.039764404296875;-1.0151519775390625;0.016515593975782394;0.006597981322556734;0.004462126176804304
0.024383544921875;0.039764404296875;-1.0151519775390625;0.016515593975782394;0.006597981322556734;0.004462126176804304
0.024383544921875;0.039764404296875;-1.0151519775390625;0.016515593975782394;0.006597981322556734;0.004462126176804304
0.024383544921875;0.039764404296875;-1.0151519775390625;0.016515593975782394;0.006597981322556734;0.004462126176804304
0.024383544921875;0.039764404296875;-1.0151519775390625;0.016515593975782394;0.006597981322556734;0.004462126176804304
0.0240631103515625;0.0390625;-1.0142059326171875;0.011383681558072567;0.0006700513185933232;0.003293531248345971
0.0240631103515625;0.0390625;-1.0142059326171875;0.011383681558072567;0.0006700513185933232;0.003293531248345971
0.0240631103515625;0.0390625;-1.0142059326171875;0.011383681558072567;0.0006700513185933232;0.003293531248345971
0.0240631103515625;0.0390625;-1.0142059326171875;0.011383681558072567;0.0006700513185933232;0.003293531248345971
0.0240631103515625;0.0390625;-1.0142059326171875;0.011383681558072567;0.0006700513185933232;0.003293531248345971
0.0254669189453125;0.037567138671875;-1.0132598876953125;0.011296063661575317;-0.00038828887045383453;0.0034993935842067003
0.0254669189453125;0.037567138671875;-1.0132598876953125;0.011296063661575317;-0.00038828887045383453;0.0034993935842067003
0.0254669189453125;0.037567138671875;-1.0132598876953125;0.011296063661575317;-0.00038828887045383453;0.0034993935842067003
0.0254669189453125;0.037567138671875;-1.0132598876953125;0.011296063661575317;-0.00038828887045383453;0.0034993935842067003
0.0254669189453125;0.037567138671875;-1.0132598876953125;0.011296063661575317;-0.00038828887045383453;0.0034993935842067003
0.0260162353515625;0.0377960205078125;-1.0145263671875;0.01323883980512619;0.000550475378986448;0.0035172367934137583
0.0260162353515625;0.0377960205078125;-1.0145263671875;0.01323883980512619;0.000550475378986448;0.0035172367934137583
0.0260162353515625;0.0377960205078125;-1.0145263671875;0.01323883980512619;0.000550475378986448;0.0035172367934137583
0.0260162353515625;0.0377960205078125;-1.0145263671875;0.01323883980512619;0.000550475378986448;0.0035172367934137583
0.0260162353515625;0.0377960205078125;-1.0145263671875;0.01323883980512619;0.000550475378986448;0.0035172367934137583
0.026641845703125;0.039306640625;-1.014312744140625;0.016324644908308983;-0.0017124125733971596;0.005702360533177853
0.026641845703125;0.039306640625;-1.014312744140625;0.016324644908308983;-0.0017124125733971596;0.005702360533177853
0.026641845703125;0.039306640625;-1.014312744140625;0.016324644908308983;-0.0017124125733971596;0.005702360533177853
0.026641845703125;0.039306640625;-1.014312744140625;0.016324644908308983;-0.0017124125733971596;0.005702360533177853
0.026641845703125;0.039306640625;-1.014312744140625;0.016324644908308983;-0.0017124125733971596;0.005702360533177853
0.02789306640625;0.0408782958984375;-1.0118865966796875;0.017376327887177467;-0.004824049770832062;0.0037268276792019606
0.02789306640625;0.0408782958984375;-1.0118865966796875;0.017376327887177467;-0.004824049770832062;0.0037268276792019606
0.02789306640625;0.0408782958984375;-1.0118865966796875;0.017376327887177467;-0.004824049770832062;0.0037268276792019606
0.02789306640625;0.0408782958984375;-1.0118865966796875;0.017376327887177467;-0.004824049770832062;0.0037268276792019606
0.02789306640625;0.0408782958984375;-1.0118865966796875;0.017376327887177467;-0.004824049770832062;0.0037268276792019606
0.0278778076171875;0.042205810546875;-1.01129150390625;0.016891099512577057;-0.005890646018087864;0.003829625668004155
0.0278778076171875;0.042205810546875;-1.01129150390625;0.016891099512577057;-0.005890646018087864;0.003829625668004155
0.0278778076171875;0.042205810546875;-1.01129150390625;0.016891099512577057;-0.005890646018087864;0.003829625668004155
0.0278778076171875;0.042205810546875;-1.01129150390625;0.016891099512577057;-0.005890646018087864;0.003829625668004155
0.0278778076171875;0.042205810546875;-1.01129150390625;0.016891099512577057;-0.005890646018087864;0.003829625668004155
0.0279693603515625;0.043304443359375;-1.010894775390625;0.02027065120637417;-0.005571332760155201;0.0016961672808974981
0.0279693603515625;0.043304443359375;-1.010894775390625;0.02027065120637417;-0.005571332760155201;0.0016961672808974981
0.0279693603515625;0.043304443359375;-1.010894775390625;0.02027065120637417;-0.005571332760155201;0.0016961672808974981
0.0279693603515625;0.043304443359375;-1.010894775390625;0.02027065120637417;-0.005571332760155201;0.0016961672808974981
0.0279693603515625;0.043304443359375;-1.010894775390625;0.02027065120637417;-0.005571332760155201;0.0016961672808974981
0.0272216796875;0.0423736572265625;-1.0102081298828125;0.018091386184096336;-0.0062368568032979965;0.002900714986026287
0.0272216796875;0.0423736572265625;-1.0102081298828125;0.018091386184096336;-0.0062368568032979965;0.002900714986026287
0.0272216796875;0.0423736572265625;-1.0102081298828125;0.018091386184096336;-0.0062368568032979965;0.002900714986026287
0.0272216796875;0.0423736572265625;-1.0102081298828125;0.018091386184096336;-0.0062368568032979965;0.002900714986026287
0.0272216796875;0.0423736572265625;-1.0102081298828125;0.018091386184096336;-0.0062368568032979965;0.002900714986026287
0.026519775390625;0.0416107177734375;-1.0100555419921875;0.015249792486429214;-0.002975283656269312;-8.149272616719827e-05
0.026519775390625;0.0416107177734375;-1.0100555419921875;0.015249792486429214;-0.002975283656269312;-8.149272616719827e-05
0.026519775390625;0.0416107177734375;-1.0100555419921875;0.015249792486429214;-0.002975283656269312;-8.149272616719827e-05
0.026519775390625;0.0416107177734375;-1.0100555419921875;0.015249792486429214;-0.002975283656269312;-8.149272616719827e-05
0.026519775390625;0.0416107177734375;-1.0100555419921875;0.015249792486429214;-0.002975283656269312;-8.149272616719827e-05
0.0264434814453125;0.0407257080078125;-1.0099334716796875;0.01811748556792736;-0.0008199872681871057;9.853696246864274e-05
0.0264434814453125;0.0407257080078125;-1.0099334716796875;0.01811748556792736;-0.0008199872681871057;9.853696246864274e-05
0.0264434814453125;0.0407257080078125;-1.0099334716796875;0.01811748556792736;-0.0008199872681871057;9.853696246864274e-05
0.0264434814453125;0.0407257080078125;-1.0099334716796875;0.01811748556792736;-0.0008199872681871057;9.853696246864274e-05
0.0264434814453125;0.0407257080078125;-1.0099334716796875;0.01811748556792736;-0.0008199872681871057;9.853696246864274e-05
0.0261688232421875;0.038909912109375;-1.010894775390625;0.017842380329966545;-0.0020663465838879347;-0.0020562265999615192
0.0261688232421875;0.038909912109375;-1.010894775390625;0.017842380329966545;-0.0020663465838879347;-0.0020562265999615192
0.0261688232421875;0.038909912109375;-1.010894775390625;0.017842380329966545;-0.0020663465838879347;-0.0020562265999615192
0.0261688232421875;0.038909912109375;-1.010894775390625;0.017842380329966545;-0.0020663465838879347;-0.0020562265999615192
0.0261688232421875;0.038909912109375;-1.010894775390625;0.017842380329966545;-0.0020663465838879347;-0.0020562265999615192
0.025909423828125;0.0399322509765625;-1.0119171142578125;0.015861254185438156;-0.002977414056658745;0.0007850998663343489
0.025909423828125;0.0399322509765625;-1.0119171142578125;0.015861254185438156;-0.002977414056658745;0.0007850998663343489
0.025909423828125;0.0399322509765625;-1.0119171142578125;0.015861254185438156;-0.002977414056658745;0.0007850998663343489
0.025909423828125;0.0399322509765625;-1.0119171142578125;0.015861254185438156;-0.002977414056658745;0.0007850998663343489
0.025909423828125;0.0399322509765625;-1.0119171142578125;0.015861254185438156;-0.002977414056658745;0.0007850998663343489
0.024627685546875;0.0390167236328125;-1.012939453125;0.02105788141489029;-0.0018492990639060736;0.0015611450653523207
0.024627685546875;0.0390167236328125;-1.012939453125;0.02105788141489029;-0.0018492990639060736;0.0015611450653523207
0.024627685546875;0.0390167236328125;-1.012939453125;0.02105788141489029;-0.0018492990639060736;0.0015611450653523207
0.024627685546875;0.0390167236328125;-1.012939453125;0.02105788141489029;-0.0018492990639060736;0.0015611450653523207
0.024627685546875;0.0390167236328125;-1.012939453125;0.02105788141489029;-0.0018492990639060736;0.0015611450653523207
0.02545166015625;0.038848876953125;-1.0131988525390625;0.021880531683564186;0.00019893812714144588;-0.0007321029552258551
0.02545166015625;0.038848876953125;-1.0131988525390625;0.021880531683564186;0.00019893812714144588;-0.0007321029552258551
0.02545166015625;0.038848876953125;-1.0131988525390625;0.021880531683564186;0.00019893812714144588;-0.0007321029552258551
0.02545166015625;0.038848876953125;-1.0131988525390625;0.021880531683564186;0.00019893812714144588;-0.0007321029552258551
0.02545166015625;0.038848876953125;-1.0131988525390625;0.021880531683564186;0.00019893812714144588;-0.0007321029552258551
0.02532958984375;0.0397186279296875;-1.0125885009765625;0.023424899205565453;-0.0022186795249581337;0.000319845654303208
0.02532958984375;0.0397186279296875;-1.0125885009765625;0.023424899205565453;-0.0022186795249581337;0.000319845654303208
0.02532958984375;0.0397186279296875;-1.0125885009765625;0.023424899205565453;-0.0022186795249581337;0.000319845654303208
0.02532958984375;0.0397186279296875;-1.0125885009765625;0.023424899205565453;-0.0022186795249581337;0.000319845654303208
0.02532958984375;0.0397186279296875;-1.0125885009765625;0.023424899205565453;-0.0022186795249581337;0.000319845654303208
0.0256500244140625;0.0386962890625;-1.0129241943359375;0.025487249717116356;0.0016263924771919847;3.462109361862531e-06
0.0256500244140625;0.0386962890625;-1.0129241943359375;0.025487249717116356;0.0016263924771919847;3.462109361862531e-06
0.0256500244140625;0.0386962890625;-1.0129241943359375;0.025487249717116356;0.0016263924771919847;3.462109361862531e-06
0.0256500244140625;0.0386962890625;-1.0129241943359375;0.025487249717116356;0.0016263924771919847;3.462109361862531e-06
0.0256500244140625;0.0386962890625;-1.0129241943359375;0.025487249717116356;0.0016263924771919847;3.462109361862531e-06
0.0249481201171875;0.0379180908203125;-1.0120849609375;0.02532905898988247;-0.00041678472189232707;0.0022386531345546246
0.0249481201171875;0.0379180908203125;-1.0120849609375;0.02532905898988247;-0.00041678472189232707;0.0022386531345546246
0.0249481201171875;0.0379180908203125;-1.0120849609375;0.02532905898988247;-0.00041678472189232707;0.0022386531345546246
0.0249481201171875;0.0379180908203125;-1.0120849609375;0.02532905898988247;-0.00041678472189232707;0.0022386531345546246
0.0249481201171875;0.0379180908203125;-1.0120849609375;0.02532905898988247;-0.00041678472189232707;0.0022386531345546246
0.025665283203125;0.037841796875;-1.0141754150390625;0.030557377263903618;0.00017683389887679368;-0.0005912217311561108
0.025665283203125;0.037841796875;-1.0141754150390625;0.030557377263903618;0.00017683389887679368;-0.0005912217311561108
0.025665283203125;0.037841796875;-1.0141754150390625;0.030557377263903618;0.00017683389887679368;-0.0005912217311561108
0.025665283203125;0.037841796875;-1.0141754150390625;0.030557377263903618;0.00017683389887679368;-0.0005912217311561108
0.025665283203125;0.037841796875;-1.0141754150390625;0.030557377263903618;0.00017683389887679368;-0.0005912217311561108
0.025360107421875;0.03643798828125;-1.0152435302734375;0.029461752623319626;-0.003154247999191284;-0.0009824400767683983
0.025360107421875;0.03643798828125;-1.0152435302734375;0.029461752623319626;-0.003154247999191284;-0.0009824400767683983
0.025360107421875;0.03643798828125;-1.0152435302734375;0.029461752623319626;-0.003154247999191284;-0.0009824400767683983
0.025360107421875;0.03643798828125;-1.0152435302734375;0.029461752623319626;-0.003154247999191284;-0.0009824400767683983
0.025360107421875;0.03643798828125;-1.0152435302734375;0.029461752623319626;-0.003154247999191284;-0.0009824400767683983
0.0243377685546875;0.035858154296875;-1.013824462890625;0.029714219272136688;-0.000642620783764869;0.0026293389964848757
0.0243377685546875;0.035858154296875;-1.013824462890625;0.029714219272136688;-0.000642620783764869;0.0026293389964848757
0.0243377685546875;0.035858154296875;-1.013824462890625;0.029714219272136688;-0.000642620783764869;0.0026293389964848757
0.0243377685546875;0.035858154296875;-1.013824462890625;0.029714219272136688;-0.000642620783764869;0.0026293389964848757
0.0243377685546875;0.035858154296875;-1.013824462890625;0.029714219272136688;-0.000642620783764869;0.0026293389964848757
0.0254364013671875;0.036468505859375;-1.013427734375;0.03147696703672409;-0.0024290692526847124;0.003992611076682806
0.0254364013671875;0.036468505859375;-1.013427734375;0.03147696703672409;-0.0024290692526847124;0.003992611076682806
0.0254364013671875;0.036468505859375;-1.013427734375;0.03147696703672409;-0.0024290692526847124;0.003992611076682806
0.0254364013671875;0.036468505859375;-1.013427734375;0.03147696703672409;-0.0024290692526847124;0.003992611076682806
0.0254364013671875;0.036468505859375;-1.013427734375;0.03147696703672409;-0.0024290692526847124;0.003992611076682806
0.0245361328125;0.03607177734375;-1.014068603515625;0.030011162161827087;-0.0035478631034493446;0.0040796962566673756
0.0245361328125;0.03607177734375;-1.014068603515625;0.030011162161827087;-0.0035478631034493446;0.0040796962566673756
0.0245361328125;0.03607177734375;-1.014068603515625;0.030011162161827087;-0.0035478631034493446;0.0040796962566673756
0.0245361328125;0.03607177734375;-1.014068603515625;0.030011162161827087;-0.0035478631034493446;0.0040796962566673756
0.0245361328125;0.03607177734375;-1.014068603515625;0.030011162161827087;-0.0035478631034493446;0.0040796962566673756
0.024444580078125;0.03558349609375;-1.0146484375;0.029204225167632103;-0.003306048223748803;0.0023422501981258392
0.024444580078125;0.03558349609375;-1.0146484375;0.029204225167632103;-0.003306048223748803;0.0023422501981258392
0.024444580078125;0.03558349609375;-1.0146484375;0.029204225167632103;-0.003306048223748803;0.0023422501981258392
0.024444580078125;0.03558349609375;-1.0146484375;0.029204225167632103;-0.003306048223748803;0.0023422501981258392
0.024444580078125;0.03558349609375;-1.0146484375;0.029204225167632103;-0.003306048223748803;0.0023422501981258392
0.0243377685546875;0.0343170166015625;-1.01416015625;0.027885161340236664;-0.0032871398143470287;0.0016756609547883272
0.0243377685546875;0.0343170166015625;-1.01416015625;0.027885161340236664;-0.0032871398143470287;0.0016756609547883272
0.0243377685546875;0.0343170166015625;-1.01416015625;0.027885161340236664;-0.0032871398143470287;0.0016756609547883272
0.0243377685546875;0.0343170166015625;-1.01416015625;0.027885161340236664;-0.0032871398143470287;0.0016756609547883272
0.0243377685546875;0.0343170166015625;-1.01416015625;0.027885161340236664;-0.0032871398143470287;0.0016756609547883272
0.0232391357421875;0.0334930419921875;-1.0135040283203125;0.027038009837269783;-0.0018530274974182248;0.0023494407068938017
0.0232391357421875;0.0334930419921875;-1.0135040283203125;0.027038009837269783;-0.0018530274974182248;0.0023494407068938017
0.0232391357421875;0.0334930419921875;-1.0135040283203125;0.027038009837269783;-0.0018530274974182248;0.0023494407068938017
0.0232391357421875;0.0334930419921875;-1.0135040283203125;0.027038009837269783;-0.0018530274974182248;0.0023494407068938017
0.0232391357421875;0.0334930419921875;-1.0135040283203125;0.027038009837269783;-0.0018530274974182248;0.0023494407068938017
0.0238189697265625;0.032806396484375;-1.01263427734375;0.02364913746714592;0.001234641415067017;0.003686613868921995
0.0238189697265625;0.032806396484375;-1.01263427734375;0.02364913746714592;0.001234641415067017;0.003686613868921995
0.0238189697265625;0.032806396484375;-1.01263427734375;0.02364913746714592;0.001234641415067017;0.003686613868921995
0.0238189697265625;0.032806396484375;-1.01263427734375;0.02364913746714592;0.001234641415067017;0.003686613868921995
0.0238189697265625;0.032806396484375;-1.01263427734375;0.02364913746714592;0.001234641415067017;0.003686613868921995
0.0244140625;0.0322113037109375;-1.0118255615234375;0.020654678344726562;-0.0016706009628251195;0.005304217804223299
0.0244140625;0.0322113037109375;-1.0118255615234375;0.020654678344726562;-0.0016706009628251195;0.005304217804223299
0.0244140625;0.0322113037109375;-1.0118255615234375;0.020654678344726562;-0.0016706009628251195;0.005304217804223299
0.0244140625;0.0322113037109375;-1.0118255615234375;0.020654678344726562;-0.0016706009628251195;0.005304217804223299
0.0244140625;0.0322113037109375;-1.0118255615234375;0.020654678344726562;-0.0016706009628251195;0.005304217804223299
0.02325439453125;0.0323486328125;-1.012359619140625;0.023331953212618828;0.0005307680112309754;0.003926298581063747
0.02325439453125;0.0323486328125;-1.012359619140625;0.023331953212618828;0.0005307680112309754;0.003926298581063747
0.02325439453125;0.0323486328125;-1.012359619140625;0.023331953212618828;0.0005307680112309754;0.003926298581063747
0.02325439453125;0.0323486328125;-1.012359619140625;0.023331953212618828;0.0005307680112309754;0.003926298581063747
0.02325439453125;0.0323486328125;-1.012359619140625;0.023331953212618828;0.0005307680112309754;0.003926298581063747
0.024261474609375;0.0328826904296875;-1.01190185546875;0.019645340740680695;-0.001184574095532298;0.003757453989237547
0.024261474609375;0.0328826904296875;-1.01190185546875;0.019645340740680695;-0.001184574095532298;0.003757453989237547
0.024261474609375;0.0328826904296875;-1.01190185546875;0.019645340740680695;-0.001184574095532298;0.003757453989237547
0.024261474609375;0.0328826904296875;-1.01190185546875;0.019645340740680695;-0.001184574095532298;0.003757453989237547
0.024261474609375;0.0328826904296875;-1.01190185546875;0.019645340740680695;-0.001184574095532298;0.003757453989237547
0.024505615234375;0.0326080322265625;-1.0135498046875;0.020594224333763123;-0.002840793924406171;0.0019244002178311348
0.024505615234375;0.0326080322265625;-1.0135498046875;0.020594224333763123;-0.002840793924406171;0.0019244002178311348
0.024505615234375;0.0326080322265625;-1.0135498046875;0.020594224333763123;-0.002840793924406171;0.0019244002178311348
0.024505615234375;0.0326080322265625;-1.0135498046875;0.020594224333763123;-0.002840793924406171;0.0019244002178311348
0.024505615234375;0.0326080322265625;-1.0135498046875;0.020594224333763123;-0.002840793924406171;0.0019244002178311348
0.02459716796875;0.032989501953125;-1.013916015625;0.022849123924970627;0.00016724651504773647;0.002865294925868511
0.02459716796875;0.032989501953125;-1.013916015625;0.022849123924970627;0.00016724651504773647;0.002865294925868511
0.02459716796875;0.032989501953125;-1.013916015625;0.022849123924970627;0.00016724651504773647;0.002865294925868511
0.02459716796875;0.032989501953125;-1.013916015625;0.022849123924970627;0.00016724651504773647;0.002865294925868511
0.02459716796875;0.032989501953125;-1.013916015625;0.022849123924970627;0.00016724651504773647;0.002865294925868511
0.0250396728515625;0.033843994140625;-1.0143280029296875;0.02665877528488636;-0.001898301183246076;0.0030836742371320724
0.0250396728515625;0.033843994140625;-1.0143280029296875;0.02665877528488636;-0.001898301183246076;0.0030836742371320724
0.0250396728515625;0.033843994140625;-1.0143280029296875;0.02665877528488636;-0.001898301183246076;0.0030836742371320724
0.0250396728515625;0.033843994140625;-1.0143280029296875;0.02665877528488636;-0.001898301183246076;0.0030836742371320724
0.0250396728515625;0.033843994140625;-1.0143280029296875;0.02665877528488636;-0.001898301183246076;0.0030836742371320724
0.0248870849609375;0.0339508056640625;-1.015228271484375;0.025399100035429;0.0019507654942572117;0.0041372207924723625
0.0248870849609375;0.0339508056640625;-1.015228271484375;0.025399100035429;0.0019507654942572117;0.0041372207924723625
0.0248870849609375;0.0339508056640625;-1.015228271484375;0.025399100035429;0.0019507654942572117;0.0041372207924723625
0.0248870849609375;0.0339508056640625;-1.015228271484375;0.025399100035429;0.0019507654942572117;0.0041372207924723625
0.0248870849609375;0.0339508056640625;-1.015228271484375;0.02786438725888729;0.00039547940832562745;0.0041183121502399445
0.0260467529296875;0.0345306396484375;-1.0157318115234375;0.02786438725888729;0.00039547940832562745;0.0041183121502399445
0.0260467529296875;0.0345306396484375;-1.0157318115234375;0.02786438725888729;0.00039547940832562745;0.0041183121502399445
0.0260467529296875;0.0345306396484375;-1.0157318115234375;0.02786438725888729;0.00039547940832562745;0.0041183121502399445
0.0260467529296875;0.0345306396484375;-1.0157318115234375;0.02786438725888729;0.00039547940832562745;0.0041183121502399445
0.0260467529296875;0.0345306396484375;-1.0157318115234375;0.02786438725888729;0.00039547940832562745;0.0041183121502399445
0.0256500244140625;0.034027099609375;-1.014892578125;0.02768009714782238;-0.004202734678983688;0.004062918480485678
0.0256500244140625;0.034027099609375;-1.014892578125;0.02768009714782238;-0.004202734678983688;0.004062918480485678
0.0256500244140625;0.034027099609375;-1.014892578125;0.02768009714782238;-0.004202734678983688;0.004062918480485678
0.0256500244140625;0.034027099609375;-1.014892578125;0.02768009714782238;-0.004202734678983688;0.004062918480485678
0.0254364013671875;0.0327301025390625;-1.0146484375;0.027353594079613686;-0.006589459255337715;0.003911118488758802
0.0254364013671875;0.0327301025390625;-1.0146484375;0.027353594079613686;-0.006589459255337715;0.003911118488758802
0.0254364013671875;0.0327301025390625;-1.0146484375;0.027353594079613686;-0.006589459255337715;0.003911118488758802
0.0254364013671875;0.0327301025390625;-1.0146484375;0.027353594079613686;-0.006589459255337715;0.003911118488758802
0.0254364013671875;0.0327301025390625;-1.0146484375;0.027353594079613686;-0.006589459255337715;0.003911118488758802
0.0254364013671875;0.0327301025390625;-1.0146484375;0.025225995108485222;-0.00484269205480814;0.005668005906045437
0.02557373046875;0.03277587890625;-1.0155181884765625;0.025225995108485222;-0.00484269205480814;0.005668005906045437
0.02557373046875;0.03277587890625;-1.0155181884765625;0.025225995108485222;-0.00484269205480814;0.005668005906045437
0.02557373046875;0.03277587890625;-1.0155181884765625;0.025225995108485222;-0.00484269205480814;0.005668005906045437
0.02557373046875;0.03277587890625;-1.0155181884765625;0.025225995108485222;-0.00484269205480814;0.005668005906045437
0.025634765625;0.032470703125;-1.016448974609375;0.029136046767234802;-0.0060325926169753075;0.0037172401789575815
0.025634765625;0.032470703125;-1.016448974609375;0.029136046767234802;-0.0060325926169753075;0.0037172401789575815
0.025634765625;0.032470703125;-1.016448974609375;0.029136046767234802;-0.0060325926169753075;0.0037172401789575815
0.025634765625;0.032470703125;-1.016448974609375;0.029136046767234802;-0.0060325926169753075;0.0037172401789575815
0.025634765625;0.032470703125;-1.016448974609375;0.029136046767234802;-0.0060325926169753075;0.0037172401789575815
0.0249786376953125;0.032623291015625;-1.0148162841796875;0.02286376990377903;-0.007610248867422342;0.0034384073223918676
0.0249786376953125;0.032623291015625;-1.0148162841796875;0.02286376990377903;-0.007610248867422342;0.0034384073223918676
0.0249786376953125;0.032623291015625;-1.0148162841796875;0.02286376990377903;-0.007610248867422342;0.0034384073223918676
0.0249786376953125;0.032623291015625;-1.0148162841796875;0.02286376990377903;-0.007610248867422342;0.0034384073223918676
0.0249786376953125;0.032623291015625;-1.0148162841796875;0.02286376990377903;-0.007610248867422342;0.0034384073223918676
0.025238037109375;0.0314788818359375;-1.012359619140625;0.022301044315099716;-0.008705873973667622;0.005489307455718517
0.025238037109375;0.0314788818359375;-1.012359619140625;0.022301044315099716;-0.008705873973667622;0.005489307455718517
0.025238037109375;0.0314788818359375;-1.012359619140625;0.022301044315099716;-0.008705873973667622;0.005489307455718517
0.025238037109375;0.0314788818359375;-1.012359619140625;0.022301044315099716;-0.008705873973667622;0.005489307455718517
0.025238037109375;0.0314788818359375;-1.012359619140625;0.022301044315099716;-0.008705873973667622;0.005489307455718517
0.024871826171875;0.02996826171875;-1.0120391845703125;0.022276010364294052;-0.0049550775438547134;0.0038133803755044937
0.024871826171875;0.02996826171875;-1.0120391845703125;0.022276010364294052;-0.0049550775438547134;0.0038133803755044937
0.024871826171875;0.02996826171875;-1.0120391845703125;0.022276010364294052;-0.0049550775438547134;0.0038133803755044937
0.024871826171875;0.02996826171875;-1.0120391845703125;0.022276010364294052;-0.0049550775438547134;0.0038133803755044937
0.024871826171875;0.02996826171875;-1.0120391845703125;0.022276010364294052;-0.0049550775438547134;0.0038133803755044937
0.0245819091796875;0.0290679931640625;-1.0112762451171875;0.02045334316790104;-0.0025928535033017397;0.0017627463676035404
0.0245819091796875;0.0290679931640625;-1.0112762451171875;0.02045334316790104;-0.0025928535033017397;0.0017627463676035404
0.0245819091796875;0.0290679931640625;-1.0112762451171875;0.02045334316790104;-0.0025928535033017397;0.0017627463676035404
0.0245819091796875;0.0290679931640625;-1.0112762451171875;0.02045334316790104;-0.0025928535033017397;0.0017627463676035404
0.0245819091796875;0.0290679931640625;-1.0112762451171875;0.02045334316790104;-0.0025928535033017397;0.0017627463676035404
0.025787353515625;0.0298614501953125;-1.0104522705078125;0.020490627735853195;-0.0005685848882421851;0.0034677020739763975
0.025787353515625;0.0298614501953125;-1.0104522705078125;0.020490627735853195;-0.0005685848882421851;0.0034677020739763975
0.025787353515625;0.0298614501953125;-1.0104522705078125;0.020490627735853195;-0.0005685848882421851;0.0034677020739763975
0.025787353515625;0.0298614501953125;-1.0104522705078125;0.020490627735853195;-0.0005685848882421851;0.0034677020739763975
0.025787353515625;0.0298614501953125;-1.0104522705078125;0.020490627735853195;-0.0005685848882421851;0.0034677020739763975
0.0273284912109375;0.029937744140625;-1.012298583984375;0.02466832846403122;0.00195156445261091;0.004649346694350243
0.0273284912109375;0.029937744140625;-1.012298583984375;0.02466832846403122;0.00195156445261091;0.004649346694350243
0.0273284912109375;0.029937744140625;-1.012298583984375;0.02466832846403122;0.00195156445261091;0.004649346694350243
0.0273284912109375;0.029937744140625;-1.012298583984375;0.02466832846403122;0.00195156445261091;0.004649346694350243
0.0273284912109375;0.029937744140625;-1.012298583984375;0.02466832846403122;0.00195156445261091;0.004649346694350243
0.02655029296875;0.03009033203125;-1.012908935546875;0.02437538094818592;-0.0031302794814109802;0.003451456781476736
0.02655029296875;0.03009033203125;-1.012908935546875;0.02437538094818592;-0.0031302794814109802;0.003451456781476736
0.02655029296875;0.03009033203125;-1.012908935546875;0.02437538094818592;-0.0031302794814109802;0.003451456781476736
0.02655029296875;0.03009033203125;-1.012908935546875;0.02437538094818592;-0.0031302794814109802;0.003451456781476736
0.02655029296875;0.03009033203125;-1.012908935546875;0.02437538094818592;-0.0031302794814109802;0.003451456781476736
0.0258026123046875;0.029388427734375;-1.015625;0.024715200066566467;-0.0009158611064776778;0.0046882289461791515
0.0258026123046875;0.029388427734375;-1.015625;0.024715200066566467;-0.0009158611064776778;0.0046882289461791515
0.0258026123046875;0.029388427734375;-1.015625;0.024715200066566467;-0.0009158611064776778;0.0046882289461791515
0.0258026123046875;0.029388427734375;-1.015625;0.024715200066566467;-0.0009158611064776778;0.0046882289461791515
0.0258026123046875;0.029388427734375;-1.015625;0.024715200066566467;-0.0009158611064776778;0.0046882289461791515
0.026641845703125;0.0290069580078125;-1.0155792236328125;0.018511632457375526;-0.001987250754609704;0.003951598424464464
0.026641845703125;0.0290069580078125;-1.0155792236328125;0.018511632457375526;-0.001987250754609704;0.003951598424464464
0.026641845703125;0.0290069580078125;-1.0155792236328125;0.018511632457375526;-0.001987250754609704;0.003951598424464464
0.026641845703125;0.0290069580078125;-1.0155792236328125;0.018511632457375526;-0.001987250754609704;0.003951598424464464
0.026641845703125;0.0290069580078125;-1.0155792236328125;0.018511632457375526;-0.001987250754609704;0.003951598424464464
0.02685546875;0.0288848876953125;-1.011474609375;0.01896463707089424;0.0002998719282913953;0.0028759476263076067
0.02685546875;0.0288848876953125;-1.011474609375;0.01896463707089424;0.0002998719282913953;0.0028759476263076067
0.02685546875;0.0288848876953125;-1.011474609375;0.01896463707089424;0.0002998719282913953;0.0028759476263076067
0.02685546875;0.0288848876953125;-1.011474609375;0.01896463707089424;0.0002998719282913953;0.0028759476263076067
0.02685546875;0.0288848876953125;-1.011474609375;0.01896463707089424;0.0002998719282913953;0.0028759476263076067
0.026092529296875;0.0290069580078125;-1.0096588134765625;0.011263573542237282;-0.0065468489192426205;0.001424791174940765
0.026092529296875;0.0290069580078125;-1.0096588134765625;0.011263573542237282;-0.0065468489192426205;0.001424791174940765
0.026092529296875;0.0290069580078125;-1.0096588134765625;0.011263573542237282;-0.0065468489192426205;0.001424791174940765
0.026092529296875;0.0290069580078125;-1.0096588134765625;0.011263573542237282;-0.0065468489192426205;0.001424791174940765
0.026092529296875;0.0290069580078125;-1.0096588134765625;0.011263573542237282;-0.0065468489192426205;0.001424791174940765
0.0277252197265625;0.02801513671875;-1.0083160400390625;0.006813164800405502;-0.0029382656794041395;0.0016101471846923232
0.0277252197265625;0.02801513671875;-1.0083160400390625;0.006813164800405502;-0.0029382656794041395;0.0016101471846923232
0.0277252197265625;0.02801513671875;-1.0083160400390625;0.006813164800405502;-0.0029382656794041395;0.0016101471846923232
0.0277252197265625;0.02801513671875;-1.0083160400390625;0.006813164800405502;-0.0029382656794041395;0.0016101471846923232
0.0277252197265625;0.02801513671875;-1.0083160400390625;0.006813164800405502;-0.0029382656794041395;0.0016101471846923232
0.028778076171875;0.0269775390625;-1.005584716796875;0.0006711165769957006;-0.005682120565325022;0.0012242551892995834
0.028778076171875;0.0269775390625;-1.005584716796875;0.0006711165769957006;-0.005682120565325022;0.0012242551892995834
0.028778076171875;0.0269775390625;-1.005584716796875;0.0006711165769957006;-0.005682120565325022;0.0012242551892995834
0.028778076171875;0.0269775390625;-1.005584716796875;0.0006711165769957006;-0.005682120565325022;0.0012242551892995834
0.028778076171875;0.0269775390625;-1.005584716796875;0.0006711165769957006;-0.005682120565325022;0.0012242551892995834
0.029449462890625;0.0289154052734375;-1.011871337890625;0.004347610287368298;-0.0030929953791201115;0.0036397422663867474
0.029449462890625;0.0289154052734375;-1.011871337890625;0.004347610287368298;-0.0030929953791201115;0.0036397422663867474
0.029449462890625;0.0289154052734375;-1.011871337890625;0.004347610287368298;-0.0030929953791201115;0.0036397422663867474
0.029449462890625;0.0289154052734375;-1.011871337890625;0.004347610287368298;-0.0030929953791201115;0.0036397422663867474
0.029449462890625;0.0289154052734375;-1.011871337890625;0.004347610287368298;-0.0030929953791201115;0.0036397422663867474
0.0303955078125;0.02911376953125;-1.011810302734375;0.003460245206952095;0.011211375705897808;0.005403287708759308
0.0303955078125;0.02911376953125;-1.011810302734375;0.003460245206952095;0.011211375705897808;0.005403287708759308
0.0303955078125;0.02911376953125;-1.011810302734375;0.003460245206952095;0.011211375705897808;0.005403287708759308
0.0303955078125;0.02911376953125;-1.011810302734375;0.003460245206952095;0.011211375705897808;0.005403287708759308
0.0303955078125;0.02911376953125;-1.011810302734375;0.003460245206952095;0.011211375705897808;0.005403287708759308
0.0299835205078125;0.0302886962890625;-0.998443603515625;-0.0018586200894787908;0.014909707009792328;0.006455502472817898
0.0299835205078125;0.0302886962890625;-0.998443603515625;-0.0018586200894787908;0.014909707009792328;0.006455502472817898
0.0299835205078125;0.0302886962890625;-0.998443603515625;-0.0018586200894787908;0.014909707009792328;0.006455502472817898
0.0299835205078125;0.0302886962890625;-0.998443603515625;-0.0018586200894787908;0.014909707009792328;0.006455502472817898
0.0299835205078125;0.0302886962890625;-0.998443603515625;-0.0018586200894787908;0.014909707009792328;0.006455502472817898
0.0251312255859375;0.0322418212890625;-1.00189208984375;-0.0030780816450715065;0.009347163140773773;0.0007560714147984982
0.0251312255859375;0.0322418212890625;-1.00189208984375;-0.0030780816450715065;0.009347163140773773;0.0007560714147984982
0.0251312255859375;0.0322418212890625;-1.00189208984375;-0.0030780816450715065;0.009347163140773773;0.0007560714147984982
0.0251312255859375;0.0322418212890625;-1.00189208984375;-0.0030780816450715065;0.009347163140773773;0.0007560714147984982
0.0251312255859375;0.0322418212890625;-1.00189208984375;-0.0030780816450715065;0.009347163140773773;0.0007560714147984982
0.0225982666015625;0.0330657958984375;-1.01849365234375;0.012533901259303093;-0.004429901950061321;-0.002581934677436948
0.0225982666015625;0.0330657958984375;-1.01849365234375;0.012533901259303093;-0.004429901950061321;-0.002581934677436948
0.0225982666015625;0.0330657958984375;-1.01849365234375;0.012533901259303093;-0.004429901950061321;-0.002581934677436948
0.0225982666015625;0.0330657958984375;-1.01849365234375;0.012533901259303093;-0.004429901950061321;-0.002581934677436948
0.0225982666015625;0.0330657958984375;-1.01849365234375;0.012533901259303093;-0.004429901950061321;-0.002581934677436948
0.021942138671875;0.032470703125;-1.0322723388671875;0.033720944076776505;-0.021022727712988853;-0.0023614249657839537
0.021942138671875;0.032470703125;-1.0322723388671875;0.033720944076776505;-0.021022727712988853;-0.0023614249657839537
0.021942138671875;0.032470703125;-1.0322723388671875;0.033720944076776505;-0.021022727712988853;-0.0023614249657839537
0.021942138671875;0.032470703125;-1.0322723388671875;0.033720944076776505;-0.021022727712988853;-0.0023614249657839537
0.021942138671875;0.032470703125;-1.0322723388671875;0.033720944076776505;-0.021022727712988853;-0.0023614249657839537
0.0245361328125;0.0314178466796875;-1.0314483642578125;0.035038143396377563;-0.029390113428235054;-0.0016378440195694566
0.0245361328125;0.0314178466796875;-1.0314483642578125;0.035038143396377563;-0.029390113428235054;-0.0016378440195694566
0.0245361328125;0.0314178466796875;-1.0314483642578125;0.035038143396377563;-0.029390113428235054;-0.0016378440195694566
0.0245361328125;0.0314178466796875;-1.0314483642578125;0.035038143396377563;-0.029390113428235054;-0.0016378440195694566
0.0245361328125;0.0314178466796875;-1.0314483642578125;0.035038143396377563;-0.029390113428235054;-0.0016378440195694566
0.028045654296875;0.03070068359375;-1.01324462890625;0.017614679411053658;-0.018699917942285538;0.00016192019393201917
0.028045654296875;0.03070068359375;-1.01324462890625;0.017614679411053658;-0.018699917942285538;0.00016192019393201917
0.028045654296875;0.03070068359375;-1.01324462890625;0.017614679411053658;-0.018699917942285538;0.00016192019393201917
0.028045654296875;0.03070068359375;-1.01324462890625;0.017614679411053658;-0.018699917942285538;0.00016192019393201917
0.028045654296875;0.03070068359375;-1.01324462890625;0.017614679411053658;-0.018699917942285538;0.00016192019393201917
0.0294952392578125;0.0296630859375;-1.0027923583984375;-0.0007267766632139683;-0.012880644761025906;0.0036844832357019186
0.0294952392578125;0.0296630859375;-1.0027923583984375;-0.0007267766632139683;-0.012880644761025906;0.0036844832357019186
0.0294952392578125;0.0296630859375;-1.0027923583984375;-0.0007267766632139683;-0.012880644761025906;0.0036844832357019186
0.0294952392578125;0.0296630859375;-1.0027923583984375;-0.0007267766632139683;-0.012880644761025906;0.0036844832357019186
0.0294952392578125;0.0296630859375;-1.0027923583984375;-0.0007267766632139683;-0.012880644761025906;0.0036844832357019186
0.026641845703125;0.027984619140625;-1.0035552978515625;-0.011833223514258862;-0.008942628279328346;0.006072806194424629
0.026641845703125;0.027984619140625;-1.0035552978515625;-0.011833223514258862;-0.008942628279328346;0.006072806194424629
0.026641845703125;0.027984619140625;-1.0035552978515625;-0.011833223514258862;-0.008942628279328346;0.006072806194424629
0.026641845703125;0.027984619140625;-1.0035552978515625;-0.011833223514258862;-0.008942628279328346;0.006072806194424629
0.026641845703125;0.027984619140625;-1.0035552978515625;-0.011833223514258862;-0.008942628279328346;0.006072806194424629
0.0228729248046875;0.0261077880859375;-1.0033721923828125;-0.006750580854713917;0.002528937766328454;0.00959963072091341
0.0228729248046875;0.0261077880859375;-1.0033721923828125;-0.006750580854713917;0.002528937766328454;0.00959963072091341
0.0228729248046875;0.0261077880859375;-1.0033721923828125;-0.006750580854713917;0.002528937766328454;0.00959963072091341
0.0228729248046875;0.0261077880859375;-1.0033721923828125;-0.006750580854713917;0.002528937766328454;0.00959963072091341
0.0228729248046875;0.0261077880859375;-1.0033721923828125;-0.006750580854713917;0.002528937766328454;0.00959963072091341
0.0236358642578125;0.0255126953125;-1.0062255859375;0.008020908571779728;0.005653624422848225;0.009553823620080948
0.0236358642578125;0.0255126953125;-1.0062255859375;0.008020908571779728;0.005653624422848225;0.009553823620080948
0.0236358642578125;0.0255126953125;-1.0062255859375;0.008020908571779728;0.005653624422848225;0.009553823620080948
0.0236358642578125;0.0255126953125;-1.0062255859375;0.008020908571779728;0.005653624422848225;0.009553823620080948
0.0236358642578125;0.0255126953125;-1.0062255859375;0.008020908571779728;0.005653624422848225;0.009553823620080948
0.0240478515625;0.02520751953125;-1.0165557861328125;0.028239892795681953;0.0038426751270890236;0.0065412563271820545
0.0240478515625;0.02520751953125;-1.0165557861328125;0.028239892795681953;0.0038426751270890236;0.0065412563271820545
0.0240478515625;0.02520751953125;-1.0165557861328125;0.028239892795681953;0.0038426751270890236;0.0065412563271820545
0.0240478515625;0.02520751953125;-1.0165557861328125;0.028239892795681953;0.0038426751270890236;0.0065412563271820545
0.0240478515625;0.02520751953125;-1.0165557861328125;0.028239892795681953;0.0038426751270890236;0.0065412563271820545
0.0244140625;0.0253143310546875;-1.0229034423828125;0.0394107885658741;0.0009518137667328119;0.005276254843920469
0.0244140625;0.0253143310546875;-1.0229034423828125;0.0394107885658741;0.0009518137667328119;0.005276254843920469
0.0244140625;0.0253143310546875;-1.0229034423828125;0.0394107885658741;0.0009518137667328119;0.005276254843920469
0.0244140625;0.0253143310546875;-1.0229034423828125;0.0394107885658741;0.0009518137667328119;0.005276254843920469
0.0244140625;0.0253143310546875;-1.0229034423828125;0.0394107885658741;0.0009518137667328119;0.005276254843920469
0.0245819091796875;0.0261077880859375;-1.022491455078125;0.039914924651384354;-0.001151018193922937;0.00227913330309093
0.0245819091796875;0.0261077880859375;-1.022491455078125;0.039914924651384354;-0.001151018193922937;0.00227913330309093
0.0245819091796875;0.0261077880859375;-1.022491455078125;0.039914924651384354;-0.001151018193922937;0.00227913330309093
0.0245819091796875;0.0261077880859375;-1.022491455078125;0.039914924651384354;-0.001151018193922937;0.00227913330309093
0.0245819091796875;0.0261077880859375;-1.022491455078125;0.039914924651384354;-0.001151018193922937;0.00227913330309093
0.0258636474609375;0.024627685546875;-1.02117919921875;0.03417608141899109;0.00026525085559114814;0.0017923073610290885
0.0258636474609375;0.024627685546875;-1.02117919921875;0.03417608141899109;0.00026525085559114814;0.0017923073610290885
0.0258636474609375;0.024627685546875;-1.02117919921875;0.03417608141899109;0.00026525085559114814;0.0017923073610290885
0.0258636474609375;0.024627685546875;-1.02117919921875;0.03417608141899109;0.00026525085559114814;0.0017923073610290885
0.0258636474609375;0.024627685546875;-1.02117919921875;0.03417608141899109;0.00026525085559114814;0.0017923073610290885
0.0255889892578125;0.023223876953125;-1.0185546875;0.02431359514594078;0.004971322603523731;-0.0001054611784638837
0.0255889892578125;0.023223876953125;-1.0185546875;0.02431359514594078;0.004971322603523731;-0.0001054611784638837
0.0255889892578125;0.023223876953125;-1.0185546875;0.02431359514594078;0.004971322603523731;-0.0001054611784638837
0.0255889892578125;0.023223876953125;-1.0185546875;0.02431359514594078;0.004971322603523731;-0.0001054611784638837
0.0255889892578125;0.023223876953125;-1.0185546875;0.02431359514594078;0.004971322603523731;-0.0001054611784638837
0.02557373046875;0.02069091796875;-1.01531982421875;0.009517871774733067;0.0049313753843307495;-0.0011803129455074668
0.02557373046875;0.02069091796875;-1.01531982421875;0.009517871774733067;0.0049313753843307495;-0.0011803129455074668
0.02557373046875;0.02069091796875;-1.01531982421875;0.009517871774733067;0.0049313753843307495;-0.0011803129455074668
0.02557373046875;0.02069091796875;-1.01531982421875;0.009517871774733067;0.0049313753843307495;-0.0011803129455074668
0.02557373046875;0.02069091796875;-1.01531982421875;0.009517871774733067;0.0049313753843307495;-0.0011803129455074668
0.0248565673828125;0.019561767578125;-1.0131072998046875;-0.003989947959780693;0.007282414007931948;-0.0022101574577391148
0.0248565673828125;0.019561767578125;-1.0131072998046875;-0.003989947959780693;0.007282414007931948;-0.0022101574577391148
0.0248565673828125;0.019561767578125;-1.0131072998046875;-0.003989947959780693;0.007282414007931948;-0.0022101574577391148
0.0248565673828125;0.019561767578125;-1.0131072998046875;-0.003989947959780693;0.007282414007931948;-0.0022101574577391148
0.0248565673828125;0.019561767578125;-1.0131072998046875;-0.003989947959780693;0.007282414007931948;-0.0022101574577391148
0.0261077880859375;0.0195465087890625;-1.012298583984375;-0.009473929181694984;0.002435727044939995;-0.003507383167743683
0.0261077880859375;0.0195465087890625;-1.012298583984375;-0.009473929181694984;0.002435727044939995;-0.003507383167743683
0.0261077880859375;0.0195465087890625;-1.012298583984375;-0.009473929181694984;0.002435727044939995;-0.003507383167743683
0.0261077880859375;0.0195465087890625;-1.012298583984375;-0.009473929181694984;0.002435727044939995;-0.003507383167743683
0.0261077880859375;0.0195465087890625;-1.012298583984375;-0.009473929181694984;0.002435727044939995;-0.003507383167743683
0.0270538330078125;0.0223541259765625;-1.0117034912109375;-0.01816941611468792;0.0021816615480929613;-0.002837331732735038
0.0270538330078125;0.0223541259765625;-1.0117034912109375;-0.01816941611468792;0.0021816615480929613;-0.002837331732735038
0.0270538330078125;0.0223541259765625;-1.0117034912109375;-0.01816941611468792;0.0021816615480929613;-0.002837331732735038
0.0270538330078125;0.0223541259765625;-1.0117034912109375;-0.01816941611468792;0.0021816615480929613;-0.002837331732735038
0.0270538330078125;0.0223541259765625;-1.0117034912109375;-0.020441891625523567;-0.001614940818399191;-0.0027475832030177116
0.026702880859375;0.02581787109375;-1.0116119384765625;-0.020441891625523567;-0.001614940818399191;-0.0027475832030177116
0.026702880859375;0.02581787109375;-1.0116119384765625;-0.020441891625523567;-0.001614940818399191;-0.0027475832030177116
0.026702880859375;0.02581787109375;-1.0116119384765625;-0.020441891625523567;-0.001614940818399191;-0.0027475832030177116
0.026702880859375;0.02581787109375;-1.0116119384765625;-0.020441891625523567;-0.001614940818399191;-0.0027475832030177116
0.026702880859375;0.02581787109375;-1.0116119384765625;-0.01489292923361063;-0.005939115304499865;0.0018271948210895061
0.0271453857421875;0.029998779296875;-1.01397705078125;-0.01489292923361063;-0.005939115304499865;0.0018271948210895061
0.0271453857421875;0.029998779296875;-1.01397705078125;-0.01489292923361063;-0.005939115304499865;0.0018271948210895061
0.0271453857421875;0.029998779296875;-1.01397705078125;-0.01489292923361063;-0.005939115304499865;0.0018271948210895061
0.0271453857421875;0.029998779296875;-1.01397705078125;-0.01489292923361063;-0.005939115304499865;0.0018271948210895061
0.0271453857421875;0.029998779296875;-1.01397705078125;-0.01489292923361063;-0.005939115304499865;0.0018271948210895061
0.0269775390625;0.03204345703125;-1.013702392578125;-0.007643804885447025;-0.009206281043589115;0.0035630431957542896
0.0269775390625;0.03204345703125;-1.013702392578125;-0.007643804885447025;-0.009206281043589115;0.0035630431957542896
0.0269775390625;0.03204345703125;-1.013702392578125;-0.007643804885447025;-0.009206281043589115;0.0035630431957542896
0.0269775390625;0.03204345703125;-1.013702392578125;-0.007643804885447025;-0.009206281043589115;0.0035630431957542896
0.0269775390625;0.03204345703125;-1.013702392578125;-0.007643804885447025;-0.009206281043589115;0.0035630431957542896
0.0257415771484375;0.0337677001953125;-1.0133514404296875;-0.0034059167373925447;-0.008737298659980297;0.007800398860126734
0.0257415771484375;0.0337677001953125;-1.0133514404296875;-0.0034059167373925447;-0.008737298659980297;0.007800398860126734
0.0257415771484375;0.0337677001953125;-1.0133514404296875;-0.0034059167373925447;-0.008737298659980297;0.007800398860126734
0.0257415771484375;0.0337677001953125;-1.0133514404296875;-0.0034059167373925447;-0.008737298659980297;0.007800398860126734
0.0261383056640625;0.0330963134765625;-1.0124053955078125;0.00766005041077733;-0.005188902840018272;0.006502374075353146
0.0261383056640625;0.0330963134765625;-1.0124053955078125;0.00766005041077733;-0.005188902840018272;0.006502374075353146
0.0261383056640625;0.0330963134765625;-1.0124053955078125;0.00766005041077733;-0.005188902840018272;0.006502374075353146
0.0261383056640625;0.0330963134765625;-1.0124053955078125;0.00766005041077733;-0.005188902840018272;0.006502374075353146
0.0261383056640625;0.0330963134765625;-1.0124053955078125;0.00766005041077733;-0.005188902840018272;0.006502374075353146
0.0254974365234375;0.0322265625;-1.0118865966796875;0.01101403497159481;-0.00455640209838748;0.004804342519491911
0.0254974365234375;0.0322265625;-1.0118865966796875;0.01101403497159481;-0.00455640209838748;0.004804342519491911
0.0254974365234375;0.0322265625;-1.0118865966796875;0.01101403497159481;-0.00455640209838748;0.004804342519491911
0.0254974365234375;0.0322265625;-1.0118865966796875;0.01101403497159481;-0.00455640209838748;0.004804342519491911
0.0254974365234375;0.0322265625;-1.0118865966796875;0.01101403497159481;-0.00455640209838748;0.004804342519491911
0.0256195068359375;0.0286712646484375;-1.0138092041015625;0.014750449918210506;-0.004631237126886845;0.003602990647777915
0.0256195068359375;0.0286712646484375;-1.0138092041015625;0.014750449918210506;-0.004631237126886845;0.003602990647777915
0.0256195068359375;0.0286712646484375;-1.0138092041015625;0.014750449918210506;-0.004631237126886845;0.003602990647777915
0.0256195068359375;0.0286712646484375;-1.0138092041015625;0.014750449918210506;-0.004631237126886845;0.003602990647777915
0.0256195068359375;0.0286712646484375;-1.0138092041015625;0.014750449918210506;-0.004631237126886845;0.003602990647777915
0.02490234375;0.02655029296875;-1.014190673828125;0.01281433179974556;-0.005656021647155285;0.0062701464630663395
0.02490234375;0.02655029296875;-1.014190673828125;0.01281433179974556;-0.005656021647155285;0.0062701464630663395
0.02490234375;0.02655029296875;-1.014190673828125;0.01281433179974556;-0.005656021647155285;0.0062701464630663395
0.02490234375;0.02655029296875;-1.014190673828125;0.01281433179974556;-0.005656021647155285;0.0062701464630663395
0.02490234375;0.02655029296875;-1.014190673828125;0.01281433179974556;-0.005656021647155285;0.0062701464630663395
0.025146484375;0.0252685546875;-1.013397216796875;0.012344550341367722;-0.004246943164616823;0.005342300981283188
0.025146484375;0.0252685546875;-1.013397216796875;0.012344550341367722;-0.004246943164616823;0.005342300981283188
0.025146484375;0.0252685546875;-1.013397216796875;0.012344550341367722;-0.004246943164616823;0.005342300981283188
0.025146484375;0.0252685546875;-1.013397216796875;0.012344550341367722;-0.004246943164616823;0.005342300981283188
0.025146484375;0.0252685546875;-1.013397216796875;0.012344550341367722;-0.004246943164616823;0.005342300981283188
0.0260162353515625;0.02532958984375;-1.012237548828125;0.011596201919019222;-0.0029888655990362167;0.005816077347844839
0.0260162353515625;0.02532958984375;-1.012237548828125;0.011596201919019222;-0.0029888655990362167;0.005816077347844839
0.0260162353515625;0.02532958984375;-1.012237548828125;0.011596201919019222;-0.0029888655990362167;0.005816077347844839
0.0260162353515625;0.02532958984375;-1.012237548828125;0.011596201919019222;-0.0029888655990362167;0.005816077347844839
0.0260162353515625;0.02532958984375;-1.012237548828125;0.011596201919019222;-0.0029888655990362167;0.005816077347844839
0.02618408203125;0.0240020751953125;-1.0121002197265625;0.006649114191532135;-0.000609863898716867;0.005932724103331566
0.02618408203125;0.0240020751953125;-1.0121002197265625;0.006649114191532135;-0.000609863898716867;0.005932724103331566
0.02618408203125;0.0240020751953125;-1.0121002197265625;0.006649114191532135;-0.000609863898716867;0.005932724103331566
0.02618408203125;0.0240020751953125;-1.0121002197265625;0.006649114191532135;-0.000609863898716867;0.005932724103331566
0.02618408203125;0.0240020751953125;-1.0121002197265625;0.006649114191532135;-0.000609863898716867;0.005932724103331566
0.0268707275390625;0.02362060546875;-1.01080322265625;0.009210809133946896;0.002374740783125162;0.0038775624707341194
0.0268707275390625;0.02362060546875;-1.01080322265625;0.009210809133946896;0.002374740783125162;0.0038775624707341194
0.0268707275390625;0.02362060546875;-1.01080322265625;0.009210809133946896;0.002374740783125162;0.0038775624707341194
0.0268707275390625;0.02362060546875;-1.01080322265625;0.009210809133946896;0.002374740783125162;0.0038775624707341194
0.0268707275390625;0.02362060546875;-1.01080322265625;0.009210809133946896;0.002374740783125162;0.0038775624707341194
0.025909423828125;0.023529052734375;-1.01287841796875;0.01101589947938919;-0.00475480780005455;0.0025355955585837364
0.025909423828125;0.023529052734375;-1.01287841796875;0.01101589947938919;-0.00475480780005455;0.0025355955585837364
0.025909423828125;0.023529052734375;-1.01287841796875;0.01101589947938919;-0.00475480780005455;0.0025355955585837364
0.025909423828125;0.023529052734375;-1.01287841796875;0.01101589947938919;-0.00475480780005455;0.0025355955585837364
0.025909423828125;0.023529052734375;-1.01287841796875;0.01101589947938919;-0.00475480780005455;0.0025355955585837364
0.025970458984375;0.023681640625;-1.0143585205078125;0.010689395479857922;-0.0067937239073216915;0.0017752632265910506
0.025970458984375;0.023681640625;-1.0143585205078125;0.010689395479857922;-0.0067937239073216915;0.0017752632265910506
0.025970458984375;0.023681640625;-1.0143585205078125;0.010689395479857922;-0.0067937239073216915;0.0017752632265910506
0.025970458984375;0.023681640625;-1.0143585205078125;0.010689395479857922;-0.0067937239073216915;0.0017752632265910506
0.025970458984375;0.023681640625;-1.0143585205078125;0.010689395479857922;-0.0067937239073216915;0.0017752632265910506
0.0257568359375;0.023895263671875;-1.0176239013671875;0.014961904846131802;-0.012748286128044128;0.0006476807757280767
0.0257568359375;0.023895263671875;-1.0176239013671875;0.014961904846131802;-0.012748286128044128;0.0006476807757280767
0.0257568359375;0.023895263671875;-1.0176239013671875;0.014961904846131802;-0.012748286128044128;0.0006476807757280767
0.0257568359375;0.023895263671875;-1.0176239013671875;0.014961904846131802;-0.012748286128044128;0.0006476807757280767
0.0257568359375;0.023895263671875;-1.0176239013671875;0.014961904846131802;-0.012748286128044128;0.0006476807757280767
0.0268707275390625;0.025909423828125;-1.019683837890625;0.012176771648228168;-0.011740279383957386;-1.2783173588104546e-05
0.0268707275390625;0.025909423828125;-1.019683837890625;0.012176771648228168;-0.011740279383957386;-1.2783173588104546e-05
0.0268707275390625;0.025909423828125;-1.019683837890625;0.012176771648228168;-0.011740279383957386;-1.2783173588104546e-05
0.0268707275390625;0.025909423828125;-1.019683837890625;0.012176771648228168;-0.011740279383957386;-1.2783173588104546e-05
0.0268707275390625;0.025909423828125;-1.019683837890625;0.012176771648228168;-0.011740279383957386;-1.2783173588104546e-05
0.027923583984375;0.0254058837890625;-1.01312255859375;0.0026732811238616705;-0.011549330316483974;0.00047936898772604764
0.027923583984375;0.0254058837890625;-1.01312255859375;0.0026732811238616705;-0.011549330316483974;0.00047936898772604764
0.027923583984375;0.0254058837890625;-1.01312255859375;0.0026732811238616705;-0.011549330316483974;0.00047936898772604764
0.027923583984375;0.0254058837890625;-1.01312255859375;0.0026732811238616705;-0.011549330316483974;0.00047936898772604764
0.027923583984375;0.0254058837890625;-1.01312255859375;0.0026732811238616705;-0.011549330316483974;0.00047936898772604764
0.02618408203125;0.02569580078125;-1.0068817138671875;-0.010579939931631088;-0.009178850799798965;0.0008772452711127698
0.02618408203125;0.02569580078125;-1.0068817138671875;-0.010579939931631088;-0.009178850799798965;0.0008772452711127698
0.02618408203125;0.02569580078125;-1.0068817138671875;-0.010579939931631088;-0.009178850799798965;0.0008772452711127698
0.02618408203125;0.02569580078125;-1.0068817138671875;-0.010579939931631088;-0.009178850799798965;0.0008772452711127698
0.02618408203125;0.02569580078125;-1.0068817138671875;-0.010579939931631088;-0.009178850799798965;0.0008772452711127698
0.0239410400390625;0.02496337890625;-1.003662109375;-0.018446652218699455;0.0007954862085171044;0.0014615427935495973
0.0239410400390625;0.02496337890625;-1.003662109375;-0.018446652218699455;0.0007954862085171044;0.0014615427935495973
0.0239410400390625;0.02496337890625;-1.003662109375;-0.018446652218699455;0.0007954862085171044;0.0014615427935495973
0.0239410400390625;0.02496337890625;-1.003662109375;-0.018446652218699455;0.0007954862085171044;0.0014615427935495973
0.0239410400390625;0.02496337890625;-1.003662109375;-0.018446652218699455;0.0007954862085171044;0.0014615427935495973
0.0243682861328125;0.0252532958984375;-1.0082550048828125;-0.010466489009559155;-0.0015757924411445856;0.002986468840390444
0.0243682861328125;0.0252532958984375;-1.0082550048828125;-0.010466489009559155;-0.0015757924411445856;0.002986468840390444
0.0243682861328125;0.0252532958984375;-1.0082550048828125;-0.010466489009559155;-0.0015757924411445856;0.002986468840390444
0.0243682861328125;0.0252532958984375;-1.0082550048828125;-0.010466489009559155;-0.0015757924411445856;0.002986468840390444
0.0243682861328125;0.0252532958984375;-1.0082550048828125;-0.010466489009559155;-0.0015757924411445856;0.002986468840390444
0.0258636474609375;0.026031494140625;-1.0179443359375;0.001925199176184833;0.0011917646043002605;0.0014676681021228433
0.0258636474609375;0.026031494140625;-1.0179443359375;0.001925199176184833;0.0011917646043002605;0.0014676681021228433
0.0258636474609375;0.026031494140625;-1.0179443359375;0.001925199176184833;0.0011917646043002605;0.0014676681021228433
0.0258636474609375;0.026031494140625;-1.0179443359375;0.001925199176184833;0.0011917646043002605;0.0014676681021228433
0.0258636474609375;0.026031494140625;-1.0179443359375;0.001925199176184833;0.0011917646043002605;0.0014676681021228433
0.0264892578125;0.0260467529296875;-1.0166015625;0.002701510675251484;-0.00017710021347738802;0.0007856325246393681
0.0264892578125;0.0260467529296875;-1.0166015625;0.002701510675251484;-0.00017710021347738802;0.0007856325246393681
0.0264892578125;0.0260467529296875;-1.0166015625;0.002701510675251484;-0.00017710021347738802;0.0007856325246393681
0.0264892578125;0.0260467529296875;-1.0166015625;0.002701510675251484;-0.00017710021347738802;0.0007856325246393681
0.0264892578125;0.0260467529296875;-1.0166015625;0.002701510675251484;-0.00017710021347738802;0.0007856325246393681
0.026702880859375;0.028228759765625;-1.0140838623046875;0.0057010287418961525;0.0021403825376182795;-4.5273736759554595e-06
0.026702880859375;0.028228759765625;-1.0140838623046875;0.0057010287418961525;0.0021403825376182795;-4.5273736759554595e-06
0.026702880859375;0.028228759765625;-1.0140838623046875;0.0057010287418961525;0.0021403825376182795;-4.5273736759554595e-06
0.026702880859375;0.028228759765625;-1.0140838623046875;0.0057010287418961525;0.0021403825376182795;-4.5273736759554595e-06
0.026702880859375;0.028228759765625;-1.0140838623046875;0.0057010287418961525;0.0021403825376182795;-4.5273736759554595e-06
0.026214599609375;0.028167724609375;-1.01336669921875;0.0018847191240638494;0.0029345371294766665;0.0044077979400753975
0.026214599609375;0.028167724609375;-1.01336669921875;0.0018847191240638494;0.0029345371294766665;0.0044077979400753975
0.026214599609375;0.028167724609375;-1.01336669921875;0.0018847191240638494;0.0029345371294766665;0.0044077979400753975
0.026214599609375;0.028167724609375;-1.01336669921875;0.0018847191240638494;0.0029345371294766665;0.0044077979400753975
0.026214599609375;0.028167724609375;-1.01336669921875;0.0018847191240638494;0.0029345371294766665;0.0044077979400753975
0.02520751953125;0.0257110595703125;-1.0171051025390625;0.004661330953240395;-0.0015787219163030386;0.0037827540654689074
0.02520751953125;0.0257110595703125;-1.0171051025390625;0.004661330953240395;-0.0015787219163030386;0.0037827540654689074
0.02520751953125;0.0257110595703125;-1.0171051025390625;0.004661330953240395;-0.0015787219163030386;0.0037827540654689074
0.02520751953125;0.0257110595703125;-1.0171051025390625;0.004661330953240395;-0.0015787219163030386;0.0037827540654689074
0.02520751953125;0.0257110595703125;-1.0171051025390625;0.004661330953240395;-0.0015787219163030386;0.0037827540654689074
0.0246429443359375;0.0232696533203125;-1.0188751220703125;0.0009108011145144701;-0.0012522183824330568;0.0034021881874650717
0.0246429443359375;0.0232696533203125;-1.0188751220703125;0.0009108011145144701;-0.0012522183824330568;0.0034021881874650717
0.0246429443359375;0.0232696533203125;-1.0188751220703125;0.0009108011145144701;-0.0012522183824330568;0.0034021881874650717
0.0246429443359375;0.0232696533203125;-1.0188751220703125;0.0009108011145144701;-0.0012522183824330568;0.0034021881874650717
0.0246429443359375;0.0232696533203125;-1.0188751220703125;0.0009108011145144701;-0.0012522183824330568;0.0034021881874650717
0.0253448486328125;0.0211029052734375;-1.0180206298828125;0.001133174984715879;-0.002920954953879118;0.004957207944244146
0.0253448486328125;0.0211029052734375;-1.0180206298828125;0.001133174984715879;-0.002920954953879118;0.004957207944244146
0.0253448486328125;0.0211029052734375;-1.0180206298828125;0.001133174984715879;-0.002920954953879118;0.004957207944244146
0.0253448486328125;0.0211029052734375;-1.0180206298828125;0.001133174984715879;-0.002920954953879118;0.004957207944244146
0.0253448486328125;0.0211029052734375;-1.0180206298828125;0.001133174984715879;-0.002920954953879118;0.004957207944244146
0.0262298583984375;0.020965576171875;-1.0167083740234375;-4.76705827168189e-05;-0.006573214195668697;0.005797701422125101
0.0262298583984375;0.020965576171875;-1.0167083740234375;-4.76705827168189e-05;-0.006573214195668697;0.005797701422125101
0.0262298583984375;0.020965576171875;-1.0167083740234375;-4.76705827168189e-05;-0.006573214195668697;0.005797701422125101
0.0262298583984375;0.020965576171875;-1.0167083740234375;-4.76705827168189e-05;-0.006573214195668697;0.005797701422125101
0.0262298583984375;0.020965576171875;-1.0167083740234375;-4.76705827168189e-05;-0.006573214195668697;0.005797701422125101
0.0270538330078125;0.0220184326171875;-1.0140533447265625;-0.002543052425608039;-0.008009190671145916;0.004019775427877903
0.0270538330078125;0.0220184326171875;-1.0140533447265625;-0.002543052425608039;-0.008009190671145916;0.004019775427877903
0.0270538330078125;0.0220184326171875;-1.0140533447265625;-0.002543052425608039;-0.008009190671145916;0.004019775427877903
0.0270538330078125;0.0220184326171875;-1.0140533447265625;-0.002543052425608039;-0.008009190671145916;0.004019775427877903
0.0270538330078125;0.0220184326171875;-1.0140533447265625;-0.002543052425608039;-0.008009190671145916;0.004019775427877903
0.0274505615234375;0.023223876953125;-1.0144500732421875;-0.005021390039473772;-0.007921572774648666;0.003772367723286152
0.0274505615234375;0.023223876953125;-1.0144500732421875;-0.005021390039473772;-0.007921572774648666;0.003772367723286152
0.0274505615234375;0.023223876953125;-1.0144500732421875;-0.005021390039473772;-0.007921572774648666;0.003772367723286152
0.0274505615234375;0.023223876953125;-1.0144500732421875;-0.005021390039473772;-0.007921572774648666;0.003772367723286152
0.0274505615234375;0.023223876953125;-1.0144500732421875;-0.005021390039473772;-0.007921572774648666;0.003772367723286152
0.0275421142578125;0.0243377685546875;-1.015106201171875;-0.006028064992278814;-0.0065532405860722065;0.0028091021813452244
0.0275421142578125;0.0243377685546875;-1.015106201171875;-0.006028064992278814;-0.0065532405860722065;0.0028091021813452244
0.0275421142578125;0.0243377685546875;-1.015106201171875;-0.006028064992278814;-0.0065532405860722065;0.0028091021813452244
0.0275421142578125;0.0243377685546875;-1.015106201171875;-0.006028064992278814;-0.0065532405860722065;0.0028091021813452244
0.0275421142578125;0.0243377685546875;-1.015106201171875;-0.006028064992278814;-0.0065532405860722065;0.0028091021813452244
0.0266876220703125;0.0252227783203125;-1.01519775390625;-0.004219246096909046;-0.006505569908767939;0.001820536912418902
0.0266876220703125;0.0252227783203125;-1.01519775390625;-0.004219246096909046;-0.006505569908767939;0.001820536912418902
0.0266876220703125;0.0252227783203125;-1.01519775390625;-0.004219246096909046;-0.006505569908767939;0.001820536912418902
0.0266876220703125;0.0252227783203125;-1.01519775390625;-0.004219246096909046;-0.006505569908767939;0.001820536912418902
0.0266876220703125;0.0252227783203125;-1.01519775390625;-0.004219246096909046;-0.006505569908767939;0.001820536912418902
0.0258636474609375;0.0268096923828125;-1.01239013671875;-0.005708485841751099;-0.01137116551399231;0.0017329188995063305
0.0258636474609375;0.0268096923828125;-1.01239013671875;-0.005708485841751099;-0.01137116551399231;0.0017329188995063305
0.0258636474609375;0.0268096923828125;-1.01239013671875;-0.005708485841751099;-0.01137116551399231;0.0017329188995063305
0.0258636474609375;0.0268096923828125;-1.01239013671875;-0.005708485841751099;-0.01137116551399231;0.0017329188995063305
0.0258636474609375;0.0268096923828125;-1.01239013671875;-0.005708485841751099;-0.01137116551399231;0.0017329188995063305
0.0258941650390625;0.0272216796875;-1.012725830078125;-0.007668306119740009;-0.00777643034234643;0.00028389296494424343
0.0258941650390625;0.0272216796875;-1.012725830078125;-0.007668306119740009;-0.00777643034234643;0.00028389296494424343
0.0258941650390625;0.0272216796875;-1.012725830078125;-0.007668306119740009;-0.00777643034234643;0.00028389296494424343
0.0258941650390625;0.0272216796875;-1.012725830078125;-0.007668306119740009;-0.00777643034234643;0.00028389296494424343
0.0258941650390625;0.0272216796875;-1.012725830078125;-0.007668306119740009;-0.00777643034234643;0.00028389296494424343
0.025299072265625;0.0270843505859375;-1.0098724365234375;-0.009938650764524937;-0.00595429539680481;0.0022277343086898327
0.025299072265625;0.0270843505859375;-1.0098724365234375;-0.009938650764524937;-0.00595429539680481;0.0022277343086898327
0.025299072265625;0.0270843505859375;-1.0098724365234375;-0.009938650764524937;-0.00595429539680481;0.0022277343086898327
0.025299072265625;0.0270843505859375;-1.0098724365234375;-0.009938650764524937;-0.00595429539680481;0.0022277343086898327
0.025299072265625;0.0270843505859375;-1.0098724365234375;-0.009938650764524937;-0.00595429539680481;0.0022277343086898327
0.02545166015625;0.02642822265625;-1.0106048583984375;-0.007706655655056238;-0.006731938570737839;-0.00047883635852485895
0.02545166015625;0.02642822265625;-1.0106048583984375;-0.007706655655056238;-0.006731938570737839;-0.00047883635852485895
0.02545166015625;0.02642822265625;-1.0106048583984375;-0.007706655655056238;-0.006731938570737839;-0.00047883635852485895
0.02545166015625;0.02642822265625;-1.0106048583984375;-0.007706655655056238;-0.006731938570737839;-0.00047883635852485895
0.02545166015625;0.02642822265625;-1.0106048583984375;-0.007706655655056238;-0.006731938570737839;-0.00047883635852485895
0.0252532958984375;0.02685546875;-1.0111846923828125;-0.006849383935332298;-0.004809402395039797;-0.000601075473241508
0.0252532958984375;0.02685546875;-1.0111846923828125;-0.006849383935332298;-0.004809402395039797;-0.000601075473241508
0.0252532958984375;0.02685546875;-1.0111846923828125;-0.006849383935332298;-0.004809402395039797;-0.000601075473241508
0.0252532958984375;0.02685546875;-1.0111846923828125;-0.006849383935332298;-0.004809402395039797;-0.000601075473241508
0.0252532958984375;0.02685546875;-1.0111846923828125;-0.006849383935332298;-0.004809402395039797;-0.000601075473241508
0.024383544921875;0.026092529296875;-1.0130157470703125;-0.004593953024595976;-0.003296727081760764;0.0002580603177193552
0.024383544921875;0.026092529296875;-1.0130157470703125;-0.004593953024595976;-0.003296727081760764;0.0002580603177193552
0.024383544921875;0.026092529296875;-1.0130157470703125;-0.004593953024595976;-0.003296727081760764;0.0002580603177193552
0.024383544921875;0.026092529296875;-1.0130157470703125;-0.004593953024595976;-0.003296727081760764;0.0002580603177193552
0.024383544921875;0.026092529296875;-1.0130157470703125;-0.004593953024595976;-0.003296727081760764;0.0002580603177193552
0.024688720703125;0.0264129638671875;-1.0135040283203125;0.0013137373607605696;-0.00361683894880116;-0.0007017429452389479
0.024688720703125;0.0264129638671875;-1.0135040283203125;0.0013137373607605696;-0.00361683894880116;-0.0007017429452389479
0.024688720703125;0.0264129638671875;-1.0135040283203125;0.0013137373607605696;-0.00361683894880116;-0.0007017429452389479
0.024688720703125;0.0264129638671875;-1.0135040283203125;0.0013137373607605696;-0.00361683894880116;-0.0007017429452389479
0.024688720703125;0.0264129638671875;-1.0135040283203125;0.0013137373607605696;-0.00361683894880116;-0.0007017429452389479
0.0251922607421875;0.025970458984375;-1.0123291015625;-0.0028075044974684715;-0.003376888344064355;-0.0008088020258583128
0.0251922607421875;0.025970458984375;-1.0123291015625;-0.0028075044974684715;-0.003376888344064355;-0.0008088020258583128
0.0251922607421875;0.025970458984375;-1.0123291015625;-0.0028075044974684715;-0.003376888344064355;-0.0008088020258583128
0.0251922607421875;0.025970458984375;-1.0123291015625;-0.0028075044974684715;-0.003376888344064355;-0.0008088020258583128
0.0251922607421875;0.025970458984375;-1.0123291015625;-0.0028075044974684715;-0.003376888344064355;-0.0008088020258583128
0.02508544921875;0.0261688232421875;-1.0123748779296875;-0.0021843246649950743;0.0011289139511063695;0.0013233247445896268
0.02508544921875;0.0261688232421875;-1.0123748779296875;-0.0021843246649950743;0.0011289139511063695;0.0013233247445896268
0.02508544921875;0.0261688232421875;-1.0123748779296875;-0.0021843246649950743;0.0011289139511063695;0.0013233247445896268
0.02508544921875;0.0261688232421875;-1.0123748779296875;-0.0021843246649950743;0.0011289139511063695;0.0013233247445896268
0.02508544921875;0.0261688232421875;-1.0123748779296875;-0.0017949705943465233;0.0011291803093627095;0.0010801780736073852
0.0255889892578125;0.0251617431640625;-1.0132598876953125;-0.0017949705943465233;0.0011291803093627095;0.0010801780736073852
0.0255889892578125;0.0251617431640625;-1.0132598876953125;-0.0017949705943465233;0.0011291803093627095;0.0010801780736073852
0.0255889892578125;0.0251617431640625;-1.0132598876953125;-0.0017949705943465233;0.0011291803093627095;0.0010801780736073852
0.0255889892578125;0.0251617431640625;-1.0132598876953125;-0.0017949705943465233;0.0011291803093627095;0.0010801780736073852
0.0255889892578125;0.0251617431640625;-1.0132598876953125;-0.0007150587625801563;0.005240568425506353;0.003397660795599222
0.024322509765625;0.025238037109375;-1.012451171875;-0.0007150587625801563;0.005240568425506353;0.003397660795599222
0.024322509765625;0.025238037109375;-1.012451171875;-0.0007150587625801563;0.005240568425506353;0.003397660795599222
0.024322509765625;0.025238037109375;-1.012451171875;-0.0007150587625801563;0.005240568425506353;0.003397660795599222
0.024322509765625;0.025238037109375;-1.012451171875;-0.0007150587625801563;0.005240568425506353;0.003397660795599222
0.024322509765625;0.025238037109375;-1.012451171875;-0.0007150587625801563;0.005240568425506353;0.003397660795599222
0.0253448486328125;0.025543212890625;-1.014678955078125;-9.028115891851485e-05;0.004510063212364912;0.0014381069922819734
0.0253448486328125;0.025543212890625;-1.014678955078125;-9.028115891851485e-05;0.004510063212364912;0.0014381069922819734
0.0253448486328125;0.025543212890625;-1.014678955078125;-9.028115891851485e-05;0.004510063212364912;0.0014381069922819734
0.0253448486328125;0.025543212890625;-1.014678955078125;-9.028115891851485e-05;0.004510063212364912;0.0014381069922819734
0.0253448486328125;0.025543212890625;-1.014678955078125;-0.0018189389957115054;0.0003049319493584335;0.004712196998298168
0.0262603759765625;0.0247650146484375;-1.015106201171875;-0.0018189389957115054;0.0003049319493584335;0.004712196998298168
0.0262603759765625;0.0247650146484375;-1.015106201171875;-0.0018189389957115054;0.0003049319493584335;0.004712196998298168
0.0262603759765625;0.0247650146484375;-1.015106201171875;-0.0018189389957115054;0.0003049319493584335;0.004712196998298168
0.0262603759765625;0.0247650146484375;-1.015106201171875;-0.0018189389957115054;0.0003049319493584335;0.004712196998298168
0.0262603759765625;0.0247650146484375;-1.015106201171875;-0.0018189389957115054;0.0003049319493584335;0.004712196998298168
0.02655029296875;0.0254058837890625;-1.0149383544921875;0.0015981629258021712;0.001544100814498961;0.002749713836237788
0.02655029296875;0.0254058837890625;-1.0149383544921875;0.0015981629258021712;0.001544100814498961;0.002749713836237788
0.02655029296875;0.0254058837890625;-1.0149383544921875;0.0015981629258021712;0.001544100814498961;0.002749713836237788
0.02655029296875;0.0254058837890625;-1.0149383544921875;0.0015981629258021712;0.001544100814498961;0.002749713836237788
0.0265045166015625;0.026031494140625;-1.01409912109375;0.002043443499132991;0.0006093312404118478;0.002883404493331909
0.0265045166015625;0.026031494140625;-1.01409912109375;0.002043443499132991;0.0006093312404118478;0.002883404493331909
0.0265045166015625;0.026031494140625;-1.01409912109375;0.002043443499132991;0.0006093312404118478;0.002883404493331909
0.0265045166015625;0.026031494140625;-1.01409912109375;0.002043443499132991;0.0006093312404118478;0.002883404493331909
0.0265045166015625;0.026031494140625;-1.01409912109375;0.002043443499132991;0.0006093312404118478;0.002883404493331909
0.027130126953125;0.025299072265625;-1.0133514404296875;-0.0018839201657101512;-0.0007938882918097079;-3.408846168895252e-05
0.027130126953125;0.025299072265625;-1.0133514404296875;-0.0018839201657101512;-0.0007938882918097079;-3.408846168895252e-05
0.027130126953125;0.025299072265625;-1.0133514404296875;-0.0018839201657101512;-0.0007938882918097079;-3.408846168895252e-05
0.027130126953125;0.025299072265625;-1.0133514404296875;-0.0018839201657101512;-0.0007938882918097079;-3.408846168895252e-05
0.027130126953125;0.025299072265625;-1.0133514404296875;-0.0018839201657101512;-0.0007938882918097079;-3.408846168895252e-05
0.027862548828125;0.02532958984375;-1.013885498046875;-0.0004543352697510272;-0.004387291613966227;0.0021281319204717875
0.027862548828125;0.02532958984375;-1.013885498046875;-0.0004543352697510272;-0.004387291613966227;0.0021281319204717875
0.027862548828125;0.02532958984375;-1.013885498046875;-0.0004543352697510272;-0.004387291613966227;0.0021281319204717875
0.027862548828125;0.02532958984375;-1.013885498046875;-0.0004543352697510272;-0.004387291613966227;0.0021281319204717875
0.027862548828125;0.02532958984375;-1.013885498046875;-0.0004543352697510272;-0.004387291613966227;0.0021281319204717875
0.027099609375;0.02593994140625;-1.0140380859375;-0.002650910522788763;-0.005934055428951979;0.004751878324896097
0.027099609375;0.02593994140625;-1.0140380859375;-0.002650910522788763;-0.005934055428951979;0.004751878324896097
0.027099609375;0.02593994140625;-1.0140380859375;-0.002650910522788763;-0.005934055428951979;0.004751878324896097
0.027099609375;0.02593994140625;-1.0140380859375;-0.002650910522788763;-0.005934055428951979;0.004751878324896097
0.027099609375;0.02593994140625;-1.0140380859375;-0.002650910522788763;-0.005934055428951979;0.004751878324896097
0.0270843505859375;0.0255126953125;-1.01348876953125;-0.003970507066696882;-0.0036999296862632036;0.005372128449380398
0.0270843505859375;0.0255126953125;-1.01348876953125;-0.003970507066696882;-0.0036999296862632036;0.005372128449380398
0.0270843505859375;0.0255126953125;-1.01348876953125;-0.003970507066696882;-0.0036999296862632036;0.005372128449380398
0.0270843505859375;0.0255126953125;-1.01348876953125;-0.003970507066696882;-0.0036999296862632036;0.005372128449380398
0.0270843505859375;0.0255126953125;-1.01348876953125;-0.003970507066696882;-0.0036999296862632036;0.005372128449380398
0.0258026123046875;0.026031494140625;-1.013824462890625;-0.002469549188390374;-0.005645368713885546;0.0021603561472147703
0.0258026123046875;0.026031494140625;-1.013824462890625;-0.002469549188390374;-0.005645368713885546;0.0021603561472147703
0.0258026123046875;0.026031494140625;-1.013824462890625;-0.002469549188390374;-0.005645368713885546;0.0021603561472147703
0.0258026123046875;0.026031494140625;-1.013824462890625;-0.002469549188390374;-0.005645368713885546;0.0021603561472147703
0.0258026123046875;0.026031494140625;-1.013824462890625;-0.002469549188390374;-0.005645368713885546;0.0021603561472147703
0.026153564453125;0.0264129638671875;-1.014923095703125;-0.0021675468888133764;-0.005242698825895786;0.0033401367254555225
0.026153564453125;0.0264129638671875;-1.014923095703125;-0.0021675468888133764;-0.005242698825895786;0.0033401367254555225
0.026153564453125;0.0264129638671875;-1.014923095703125;-0.0021675468888133764;-0.005242698825895786;0.0033401367254555225
0.026153564453125;0.0264129638671875;-1.014923095703125;-0.0021675468888133764;-0.005242698825895786;0.0033401367254555225
0.026153564453125;0.0264129638671875;-1.014923095703125;-0.0021675468888133764;-0.005242698825895786;0.0033401367254555225
0.0252227783203125;0.02630615234375;-1.0138702392578125;-0.003454386256635189;-0.0004122573300264776;0.0026069683954119682
0.0252227783203125;0.02630615234375;-1.0138702392578125;-0.003454386256635189;-0.0004122573300264776;0.0026069683954119682
0.0252227783203125;0.02630615234375;-1.0138702392578125;-0.003454386256635189;-0.0004122573300264776;0.0026069683954119682
0.0252227783203125;0.02630615234375;-1.0138702392578125;-0.003454386256635189;-0.0004122573300264776;0.0026069683954119682
0.0252227783203125;0.02630615234375;-1.0138702392578125;-0.003454386256635189;-0.0004122573300264776;0.0026069683954119682
0.0242767333984375;0.0252532958984375;-1.0125579833984375;-0.0007680556736886501;-0.0031960594933480024;0.0008021441171877086
0.0242767333984375;0.0252532958984375;-1.0125579833984375;-0.0007680556736886501;-0.0031960594933480024;0.0008021441171877086
0.0242767333984375;0.0252532958984375;-1.0125579833984375;-0.0007680556736886501;-0.0031960594933480024;0.0008021441171877086
0.0242767333984375;0.0252532958984375;-1.0125579833984375;-0.0007680556736886501;-0.0031960594933480024;0.0008021441171877086
0.0242767333984375;0.0252532958984375;-1.0125579833984375;-0.0007680556736886501;-0.0031960594933480024;0.0008021441171877086
0.0240631103515625;0.024993896484375;-1.013153076171875;-0.004988899454474449;-0.004240018781274557;0.0004689826746471226
0.0240631103515625;0.024993896484375;-1.013153076171875;-0.004988899454474449;-0.004240018781274557;0.0004689826746471226
0.0240631103515625;0.024993896484375;-1.013153076171875;-0.004988899454474449;-0.004240018781274557;0.0004689826746471226
0.0240631103515625;0.024993896484375;-1.013153076171875;-0.004988899454474449;-0.004240018781274557;0.0004689826746471226
0.0240631103515625;0.024993896484375;-1.013153076171875;-0.004988899454474449;-0.004240018781274557;0.0004689826746471226
0.0243682861328125;0.0247344970703125;-1.013092041015625;-0.004534564446657896;-0.002960369922220707;-0.0017827199772000313
0.0243682861328125;0.0247344970703125;-1.013092041015625;-0.004534564446657896;-0.002960369922220707;-0.0017827199772000313
0.0243682861328125;0.0247344970703125;-1.013092041015625;-0.004534564446657896;-0.002960369922220707;-0.0017827199772000313
0.0243682861328125;0.0247344970703125;-1.013092041015625;-0.004534564446657896;-0.002960369922220707;-0.0017827199772000313
0.0243682861328125;0.0247344970703125;-1.013092041015625;-0.004534564446657896;-0.002960369922220707;-0.0017827199772000313
0.0245513916015625;0.024932861328125;-1.014404296875;-0.006609965581446886;-0.002375007141381502;0.00014168016787152737
0.0245513916015625;0.024932861328125;-1.014404296875;-0.006609965581446886;-0.002375007141381502;0.00014168016787152737
0.0245513916015625;0.024932861328125;-1.014404296875;-0.006609965581446886;-0.002375007141381502;0.00014168016787152737
0.0245513916015625;0.024932861328125;-1.014404296875;-0.006609965581446886;-0.002375007141381502;0.00014168016787152737
0.0245513916015625;0.024932861328125;-1.014404296875;-0.006609965581446886;-0.002375007141381502;0.00014168016787152737
0.0246124267578125;0.02490234375;-1.0139923095703125;-0.004118045791983604;-0.0007163903210312128;0.000316916179144755
0.0246124267578125;0.02490234375;-1.0139923095703125;-0.004118045791983604;-0.0007163903210312128;0.000316916179144755
0.0246124267578125;0.02490234375;-1.0139923095703125;-0.004118045791983604;-0.0007163903210312128;0.000316916179144755
0.0246124267578125;0.02490234375;-1.0139923095703125;-0.004118045791983604;-0.0007163903210312128;0.000316916179144755
0.0246124267578125;0.02490234375;-1.0139923095703125;-0.004118045791983604;-0.0007163903210312128;0.000316916179144755
0.0255584716796875;0.023651123046875;-1.013824462890625;-0.005026184022426605;-0.005420864559710026;0.0012170645641162992
0.0255584716796875;0.023651123046875;-1.013824462890625;-0.005026184022426605;-0.005420864559710026;0.0012170645641162992
0.0255584716796875;0.023651123046875;-1.013824462890625;-0.005026184022426605;-0.005420864559710026;0.0012170645641162992
0.0255584716796875;0.023651123046875;-1.013824462890625;-0.005026184022426605;-0.005420864559710026;0.0012170645641162992
0.0255584716796875;0.023651123046875;-1.013824462890625;-0.005026184022426605;-0.005420864559710026;0.0012170645641162992
0.0260467529296875;0.025177001953125;-1.013671875;-0.0003046656202059239;-0.0029590383637696505;0.0021022993605583906
0.0260467529296875;0.025177001953125;-1.013671875;-0.0003046656202059239;-0.0029590383637696505;0.0021022993605583906
0.0260467529296875;0.025177001953125;-1.013671875;-0.0003046656202059239;-0.0029590383637696505;0.0021022993605583906
0.0260467529296875;0.025177001953125;-1.013671875;-0.0003046656202059239;-0.0029590383637696505;0.0021022993605583906
0.0260467529296875;0.025177001953125;-1.013671875;-0.0003046656202059239;-0.0029590383637696505;0.0021022993605583906
0.02630615234375;0.026153564453125;-1.0133209228515625;-0.004775580484420061;-0.0017355820164084435;0.003922037314623594
0.02630615234375;0.026153564453125;-1.0133209228515625;-0.004775580484420061;-0.0017355820164084435;0.003922037314623594
0.02630615234375;0.026153564453125;-1.0133209228515625;-0.004775580484420061;-0.0017355820164084435;0.003922037314623594
0.02630615234375;0.026153564453125;-1.0133209228515625;-0.004775580484420061;-0.0017355820164084435;0.003922037314623594
0.02630615234375;0.026153564453125;-1.0133209228515625;-0.004775580484420061;-0.0017355820164084435;0.003922037314623594
0.02655029296875;0.0253143310546875;-1.015228271484375;0.0011598066193982959;-0.002463690238073468;0.002142513170838356
0.02655029296875;0.0253143310546875;-1.015228271484375;0.0011598066193982959;-0.002463690238073468;0.002142513170838356
0.02655029296875;0.0253143310546875;-1.015228271484375;0.0011598066193982959;-0.002463690238073468;0.002142513170838356
0.02655029296875;0.0253143310546875;-1.015228271484375;0.0011598066193982959;-0.002463690238073468;0.002142513170838356
0.02655029296875;0.0253143310546875;-1.015228271484375;0.0011598066193982959;-0.002463690238073468;0.002142513170838356
0.0266265869140625;0.0269012451171875;-1.0145263671875;0.0012580773327499628;-0.003472495824098587;0.003403253620490432
0.0266265869140625;0.0269012451171875;-1.0145263671875;0.0012580773327499628;-0.003472495824098587;0.003403253620490432
0.0266265869140625;0.0269012451171875;-1.0145263671875;0.0012580773327499628;-0.003472495824098587;0.003403253620490432
0.0266265869140625;0.0269012451171875;-1.0145263671875;0.0012580773327499628;-0.003472495824098587;0.003403253620490432
0.0266265869140625;0.0269012451171875;-1.0145263671875;0.0012580773327499628;-0.003472495824098587;0.003403253620490432
0.0264892578125;0.0266876220703125;-1.013763427734375;-0.00261868629604578;-0.005957757588475943;0.0027110979426652193
0.0264892578125;0.0266876220703125;-1.013763427734375;-0.00261868629604578;-0.005957757588475943;0.0027110979426652193
0.0264892578125;0.0266876220703125;-1.013763427734375;-0.00261868629604578;-0.005957757588475943;0.0027110979426652193
0.0264892578125;0.0266876220703125;-1.013763427734375;-0.00261868629604578;-0.005957757588475943;0.0027110979426652193
0.0264892578125;0.0266876220703125;-1.013763427734375;-0.00261868629604578;-0.005957757588475943;0.0027110979426652193
0.0261993408203125;0.0259857177734375;-1.0121002197265625;-0.001502555445767939;-0.004478371702134609;0.0034791536163538694
0.0261993408203125;0.0259857177734375;-1.0121002197265625;-0.001502555445767939;-0.004478371702134609;0.0034791536163538694
0.0261993408203125;0.0259857177734375;-1.0121002197265625;-0.001502555445767939;-0.004478371702134609;0.0034791536163538694
0.0261993408203125;0.0259857177734375;-1.0121002197265625;-0.001502555445767939;-0.004478371702134609;0.0034791536163538694
0.0261993408203125;0.0259857177734375;-1.0121002197265625;-0.001502555445767939;-0.004478371702134609;0.0034791536163538694
0.0257415771484375;0.0251922607421875;-1.0124969482421875;-0.0033603766933083534;-0.0015398397808894515;0.0010849718237295747
0.0257415771484375;0.0251922607421875;-1.0124969482421875;-0.0033603766933083534;-0.0015398397808894515;0.0010849718237295747
0.0257415771484375;0.0251922607421875;-1.0124969482421875;-0.0033603766933083534;-0.0015398397808894515;0.0010849718237295747
0.0257415771484375;0.0251922607421875;-1.0124969482421875;-0.0033603766933083534;-0.0015398397808894515;0.0010849718237295747
0.0257415771484375;0.0251922607421875;-1.0124969482421875;-0.0033603766933083534;-0.0015398397808894515;0.0010849718237295747
0.0268707275390625;0.0255126953125;-1.01324462890625;-0.0008058725506998599;0.00039175100391730666;0.004239486064761877
0.0268707275390625;0.0255126953125;-1.01324462890625;-0.0008058725506998599;0.00039175100391730666;0.004239486064761877
0.0268707275390625;0.0255126953125;-1.01324462890625;-0.0008058725506998599;0.00039175100391730666;0.004239486064761877
0.0268707275390625;0.0255126953125;-1.01324462890625;-0.0008058725506998599;0.00039175100391730666;0.004239486064761877
0.0268707275390625;0.0255126953125;-1.01324462890625;-0.0008058725506998599;0.00039175100391730666;0.004239486064761877
0.0274810791015625;0.0252227783203125;-1.0131683349609375;0.0002495381922926754;0.0003235740587115288;0.003674895968288183
0.0274810791015625;0.0252227783203125;-1.0131683349609375;0.0002495381922926754;0.0003235740587115288;0.003674895968288183
0.0274810791015625;0.0252227783203125;-1.0131683349609375;0.0002495381922926754;0.0003235740587115288;0.003674895968288183
0.0274810791015625;0.0252227783203125;-1.0131683349609375;0.0002495381922926754;0.0003235740587115288;0.003674895968288183
0.0274810791015625;0.0252227783203125;-1.0131683349609375;0.0002495381922926754;0.0003235740587115288;0.003674895968288183
0.0261077880859375;0.02606201171875;-1.014373779296875;-0.0013933659065514803;-0.003373426152393222;0.0026762105990201235
0.0261077880859375;0.02606201171875;-1.014373779296875;-0.0013933659065514803;-0.003373426152393222;0.0026762105990201235
0.0261077880859375;0.02606201171875;-1.014373779296875;-0.0013933659065514803;-0.003373426152393222;0.0026762105990201235
0.0261077880859375;0.02606201171875;-1.014373779296875;-0.0013933659065514803;-0.003373426152393222;0.0026762105990201235
0.0261077880859375;0.02606201171875;-1.014373779296875;-0.0013933659065514803;-0.003373426152393222;0.0026762105990201235
0.0254364013671875;0.0261077880859375;-1.0168609619140625;0.003501524217426777;-0.00395719101652503;0.0037529265973716974
0.0254364013671875;0.0261077880859375;-1.0168609619140625;0.003501524217426777;-0.00395719101652503;0.0037529265973716974
0.0254364013671875;0.0261077880859375;-1.0168609619140625;0.003501524217426777;-0.00395719101652503;0.0037529265973716974
0.0254364013671875;0.0261077880859375;-1.0168609619140625;0.003501524217426777;-0.00395719101652503;0.0037529265973716974
0.0254364013671875;0.0261077880859375;-1.0168609619140625;0.003501524217426777;-0.00395719101652503;0.0037529265973716974
0.0247344970703125;0.025970458984375;-1.0187530517578125;0.004315386060625315;-0.0030064424499869347;0.002332130214199424
0.0247344970703125;0.025970458984375;-1.0187530517578125;0.004315386060625315;-0.0030064424499869347;0.002332130214199424
0.0247344970703125;0.025970458984375;-1.0187530517578125;0.004315386060625315;-0.0030064424499869347;0.002332130214199424
0.0247344970703125;0.025970458984375;-1.0187530517578125;0.004315386060625315;-0.0030064424499869347;0.002332130214199424
0.0247344970703125;0.025970458984375;-1.0187530517578125;0.004315386060625315;-0.0030064424499869347;0.002332130214199424
0.02667236328125;0.02532958984375;-1.0153045654296875;0.00290444353595376;-0.00016218650853261352;0.0030740867368876934
0.02667236328125;0.02532958984375;-1.0153045654296875;0.00290444353595376;-0.00016218650853261352;0.0030740867368876934
0.02667236328125;0.02532958984375;-1.0153045654296875;0.00290444353595376;-0.00016218650853261352;0.0030740867368876934
0.02667236328125;0.02532958984375;-1.0153045654296875;0.00290444353595376;-0.00016218650853261352;0.0030740867368876934
0.02667236328125;0.02532958984375;-1.0153045654296875;0.00290444353595376;-0.00016218650853261352;0.0030740867368876934
0.026702880859375;0.023956298828125;-1.01251220703125;-0.00020000340009573847;-0.004340420011430979;0.004396612755954266
0.026702880859375;0.023956298828125;-1.01251220703125;-0.00020000340009573847;-0.004340420011430979;0.004396612755954266
0.026702880859375;0.023956298828125;-1.01251220703125;-0.00020000340009573847;-0.004340420011430979;0.004396612755954266
0.026702880859375;0.023956298828125;-1.01251220703125;-0.00020000340009573847;-0.004340420011430979;0.004396612755954266
0.026702880859375;0.023956298828125;-1.01251220703125;-0.00020000340009573847;-0.004340420011430979;0.004396612755954266
0.0258941650390625;0.023834228515625;-1.0132293701171875;-0.00567093538120389;-0.005548429675400257;-7.057376933516935e-05
0.0258941650390625;0.023834228515625;-1.0132293701171875;-0.00567093538120389;-0.005548429675400257;-7.057376933516935e-05
0.0258941650390625;0.023834228515625;-1.0132293701171875;-0.00567093538120389;-0.005548429675400257;-7.057376933516935e-05
0.0258941650390625;0.023834228515625;-1.0132293701171875;-0.00567093538120389;-0.005548429675400257;-7.057376933516935e-05
0.0258941650390625;0.023834228515625;-1.0132293701171875;-0.00567093538120389;-0.005548429675400257;-7.057376933516935e-05
0.0275115966796875;0.0239410400390625;-1.0106353759765625;-0.008145811036229134;-0.006283994764089584;-0.003448260948061943
0.0275115966796875;0.0239410400390625;-1.0106353759765625;-0.008145811036229134;-0.006283994764089584;-0.003448260948061943
0.0275115966796875;0.0239410400390625;-1.0106353759765625;-0.008145811036229134;-0.006283994764089584;-0.003448260948061943
0.0275115966796875;0.0239410400390625;-1.0106353759765625;-0.008145811036229134;-0.006283994764089584;-0.003448260948061943
0.0275115966796875;0.0239410400390625;-1.0106353759765625;-0.008145811036229134;-0.006283994764089584;-0.003448260948061943
0.027252197265625;0.0240325927734375;-1.0079803466796875;-0.009246761910617352;-0.004420847166329622;-0.001574194524437189
0.027252197265625;0.0240325927734375;-1.0079803466796875;-0.009246761910617352;-0.004420847166329622;-0.001574194524437189
0.027252197265625;0.0240325927734375;-1.0079803466796875;-0.009246761910617352;-0.004420847166329622;-0.001574194524437189
0.027252197265625;0.0240325927734375;-1.0079803466796875;-0.009246761910617352;-0.004420847166329622;-0.001574194524437189
0.027252197265625;0.0240325927734375;-1.0079803466796875;-0.009246761910617352;-0.004420847166329622;-0.001574194524437189
0.0276031494140625;0.024566650390625;-1.01324462890625;-0.00347409350797534;-0.0028767467010766268;0.0006807039608247578
0.0276031494140625;0.024566650390625;-1.01324462890625;-0.00347409350797534;-0.0028767467010766268;0.0006807039608247578
0.0276031494140625;0.024566650390625;-1.01324462890625;-0.00347409350797534;-0.0028767467010766268;0.0006807039608247578
0.0276031494140625;0.024566650390625;-1.01324462890625;-0.00347409350797534;-0.0028767467010766268;0.0006807039608247578
0.0276031494140625;0.024566650390625;-1.01324462890625;-0.00347409350797534;-0.0028767467010766268;0.0006807039608247578
0.0282135009765625;0.0251007080078125;-1.0095367431640625;-0.010356234386563301;0.014553376473486423;0.005478122271597385
0.0282135009765625;0.0251007080078125;-1.0095367431640625;-0.010356234386563301;0.014553376473486423;0.005478122271597385
0.0282135009765625;0.0251007080078125;-1.0095367431640625;-0.010356234386563301;0.014553376473486423;0.005478122271597385
0.0282135009765625;0.0251007080078125;-1.0095367431640625;-0.010356234386563301;0.014553376473486423;0.005478122271597385
0.0282135009765625;0.0251007080078125;-1.0095367431640625;-0.010356234386563301;0.014553376473486423;0.005478122271597385
0.025726318359375;0.026763916015625;-1.0000152587890625;-0.017491109669208527;0.013553093187510967;0.002516420790925622
0.025726318359375;0.026763916015625;-1.0000152587890625;-0.017491109669208527;0.013553093187510967;0.002516420790925622
0.025726318359375;0.026763916015625;-1.0000152587890625;-0.017491109669208527;0.013553093187510967;0.002516420790925622
0.025726318359375;0.026763916015625;-1.0000152587890625;-0.017491109669208527;0.013553093187510967;0.002516420790925622
0.025726318359375;0.026763916015625;-1.0000152587890625;-0.017491109669208527;0.013553093187510967;0.002516420790925622
0.021820068359375;0.0289154052734375;-1.008209228515625;-0.014830078929662704;0.002749713836237788;0.0021734058391302824
0.021820068359375;0.0289154052734375;-1.008209228515625;-0.014830078929662704;0.002749713836237788;0.0021734058391302824
0.021820068359375;0.0289154052734375;-1.008209228515625;-0.014830078929662704;0.002749713836237788;0.0021734058391302824
0.021820068359375;0.0289154052734375;-1.008209228515625;-0.014830078929662704;0.002749713836237788;0.0021734058391302824
0.0204620361328125;0.0288848876953125;-1.0242462158203125;0.0021377194207161665;-0.01209847442805767;0.0009097357979044318
0.0204620361328125;0.0288848876953125;-1.0242462158203125;0.0021377194207161665;-0.01209847442805767;0.0009097357979044318
0.0204620361328125;0.0288848876953125;-1.0242462158203125;0.0021377194207161665;-0.01209847442805767;0.0009097357979044318
0.0204620361328125;0.0288848876953125;-1.0242462158203125;0.0021377194207161665;-0.01209847442805767;0.0009097357979044318
0.0204620361328125;0.0288848876953125;-1.0242462158203125;0.0021377194207161665;-0.01209847442805767;0.0009097357979044318
0.019500732421875;0.0290069580078125;-1.034912109375;0.011441739276051521;-0.02400999516248703;-0.00013422331539914012
0.019500732421875;0.0290069580078125;-1.034912109375;0.011441739276051521;-0.02400999516248703;-0.00013422331539914012
0.019500732421875;0.0290069580078125;-1.034912109375;0.011441739276051521;-0.02400999516248703;-0.00013422331539914012
0.019500732421875;0.0290069580078125;-1.034912109375;0.011441739276051521;-0.02400999516248703;-0.00013422331539914012
0.019500732421875;0.0290069580078125;-1.034912109375;0.011441739276051521;-0.02400999516248703;-0.00013422331539914012
0.0234832763671875;0.02935791015625;-1.0241241455078125;0.0020181434229016304;-0.026934677734971046;-0.0006223807577043772
0.0234832763671875;0.02935791015625;-1.0241241455078125;0.0020181434229016304;-0.026934677734971046;-0.0006223807577043772
0.0234832763671875;0.02935791015625;-1.0241241455078125;0.0020181434229016304;-0.026934677734971046;-0.0006223807577043772
0.0234832763671875;0.02935791015625;-1.0241241455078125;0.0020181434229016304;-0.026934677734971046;-0.0006223807577043772
0.0234832763671875;0.02935791015625;-1.0241241455078125;0.0020181434229016304;-0.026934677734971046;-0.0006223807577043772
0.0285186767578125;0.0296173095703125;-1.0065765380859375;-0.01720055751502514;-0.01859205961227417;0.002424541860818863
0.0285186767578125;0.0296173095703125;-1.0065765380859375;-0.01720055751502514;-0.01859205961227417;0.002424541860818863
0.0285186767578125;0.0296173095703125;-1.0065765380859375;-0.01720055751502514;-0.01859205961227417;0.002424541860818863
0.0285186767578125;0.0296173095703125;-1.0065765380859375;-0.01720055751502514;-0.01859205961227417;0.002424541860818863
0.0285186767578125;0.0296173095703125;-1.0065765380859375;-0.01720055751502514;-0.01859205961227417;0.002424541860818863
0.0297088623046875;0.029693603515625;-1.00140380859375;-0.03001702018082142;-0.015904132276773453;0.006091182120144367
0.0297088623046875;0.029693603515625;-1.00140380859375;-0.03001702018082142;-0.015904132276773453;0.006091182120144367
0.0297088623046875;0.029693603515625;-1.00140380859375;-0.03001702018082142;-0.015904132276773453;0.006091182120144367
0.0297088623046875;0.029693603515625;-1.00140380859375;-0.03001702018082142;-0.015904132276773453;0.006091182120144367
0.0297088623046875;0.029693603515625;-1.00140380859375;-0.03001702018082142;-0.015904132276773453;0.006091182120144367
0.027130126953125;0.02740478515625;-1.005584716796875;-0.03332999348640442;-0.002302569104358554;0.010458500124514103
0.027130126953125;0.02740478515625;-1.005584716796875;-0.03332999348640442;-0.002302569104358554;0.010458500124514103
0.027130126953125;0.02740478515625;-1.005584716796875;-0.03332999348640442;-0.002302569104358554;0.010458500124514103
0.027130126953125;0.02740478515625;-1.005584716796875;-0.03332999348640442;-0.002302569104358554;0.010458500124514103
0.027130126953125;0.02740478515625;-1.005584716796875;-0.03332999348640442;-0.002302569104358554;0.010458500124514103
0.025146484375;0.025665283203125;-1.0035400390625;-0.017957961186766624;0.009521866217255592;0.008262723684310913
0.025146484375;0.025665283203125;-1.0035400390625;-0.017957961186766624;0.009521866217255592;0.008262723684310913
0.025146484375;0.025665283203125;-1.0035400390625;-0.017957961186766624;0.009521866217255592;0.008262723684310913
0.025146484375;0.025665283203125;-1.0035400390625;-0.017957961186766624;0.009521866217255592;0.008262723684310913
0.025146484375;0.025665283203125;-1.0035400390625;-0.017957961186766624;0.009521866217255592;0.008262723684310913
0.0253448486328125;0.0255584716796875;-1.0115509033203125;0.0036045885644853115;0.008894424885511398;0.004942560568451881
0.0253448486328125;0.0255584716796875;-1.0115509033203125;0.0036045885644853115;0.008894424885511398;0.004942560568451881
0.0253448486328125;0.0255584716796875;-1.0115509033203125;0.0036045885644853115;0.008894424885511398;0.004942560568451881
0.0253448486328125;0.0255584716796875;-1.0115509033203125;0.0036045885644853115;0.008894424885511398;0.004942560568451881
0.0253448486328125;0.0255584716796875;-1.0115509033203125;0.0036045885644853115;0.008894424885511398;0.004942560568451881
0.02606201171875;0.0246734619140625;-1.023284912109375;0.020189955830574036;0.0007696535321883857;0.0016764599131420255
0.02606201171875;0.0246734619140625;-1.023284912109375;0.020189955830574036;0.0007696535321883857;0.0016764599131420255
0.02606201171875;0.0246734619140625;-1.023284912109375;0.020189955830574036;0.0007696535321883857;0.0016764599131420255
0.02606201171875;0.0246734619140625;-1.023284912109375;0.020189955830574036;0.0007696535321883857;0.0016764599131420255
0.02606201171875;0.0246734619140625;-1.023284912109375;0.020189955830574036;0.0007696535321883857;0.0016764599131420255
0.026611328125;0.0256195068359375;-1.024078369140625;0.01944240741431713;-0.003973702434450388;0.0032674323301762342
0.026611328125;0.0256195068359375;-1.024078369140625;0.01944240741431713;-0.003973702434450388;0.0032674323301762342
0.026611328125;0.0256195068359375;-1.024078369140625;0.01944240741431713;-0.003973702434450388;0.0032674323301762342
0.026611328125;0.0256195068359375;-1.024078369140625;0.01944240741431713;-0.003973702434450388;0.0032674323301762342
0.026611328125;0.0256195068359375;-1.024078369140625;0.01944240741431713;-0.003973702434450388;0.0032674323301762342
0.0258026123046875;0.025299072265625;-1.0179443359375;0.008138886652886868;-0.0008620652370154858;0.00041811628034338355
0.0258026123046875;0.025299072265625;-1.0179443359375;0.008138886652886868;-0.0008620652370154858;0.00041811628034338355
0.0258026123046875;0.025299072265625;-1.0179443359375;0.008138886652886868;-0.0008620652370154858;0.00041811628034338355
0.0258026123046875;0.025299072265625;-1.0179443359375;0.008138886652886868;-0.0008620652370154858;0.00041811628034338355
0.0258026123046875;0.025299072265625;-1.0179443359375;0.008138886652886868;-0.0008620652370154858;0.00041811628034338355
0.025970458984375;0.024566650390625;-1.0135650634765625;-0.008014250546693802;-0.0015185344964265823;0.00040187101694755256
0.025970458984375;0.024566650390625;-1.0135650634765625;-0.008014250546693802;-0.0015185344964265823;0.00040187101694755256
