Acell X;Acell Y;Acell Z;Gyro X;Gyro Y;Gyro Z

0.0287628173828125;0.0402679443359375;-1.0059661865234375;-0.022591860964894295;-0.0006713828770443797;0.0003989415417890996
0.0287628173828125;0.0402679443359375;-1.0059661865234375;-0.014824752695858479;-0.005575061310082674;0.0038535939529538155
0.0287628173828125;0.0402679443359375;-1.0059661865234375;-0.014824752695858479;-0.005575061310082674;0.0038535939529538155
0.0306243896484375;0.050689697265625;-1.0095672607421875;-0.014824752695858479;-0.005575061310082674;0.0038535939529538155
0.0306243896484375;0.050689697265625;-1.0095672607421875;-0.014824752695858479;-0.005575061310082674;0.0038535939529538155
0.0306243896484375;0.050689697265625;-1.0095672607421875;-0.014824752695858479;-0.005575061310082674;0.0038535939529538155
0.0306243896484375;0.050689697265625;-1.0095672607421875;-0.008323709480464458;-0.0020240023732185364;0.004454935900866985
0.0306243896484375;0.050689697265625;-1.0095672607421875;-0.008323709480464458;-0.0020240023732185364;0.004454935900866985
0.028350830078125;0.0588531494140625;-1.01153564453125;-0.008323709480464458;-0.0020240023732185364;0.004454935900866985
0.028350830078125;0.0588531494140625;-1.01153564453125;-0.008323709480464458;-0.0020240023732185364;0.004454935900866985
0.028350830078125;0.0588531494140625;-1.01153564453125;-0.008323709480464458;-0.0020240023732185364;0.004454935900866985
0.028350830078125;0.0588531494140625;-1.01153564453125;-0.007144462317228317;-0.0009680590592324734;0.0027427896857261658
0.028350830078125;0.0588531494140625;-1.01153564453125;-0.007144462317228317;-0.0009680590592324734;0.0027427896857261658
0.0265655517578125;0.061309814453125;-1.0105133056640625;-0.007144462317228317;-0.0009680590592324734;0.0027427896857261658
0.0265655517578125;0.061309814453125;-1.0105133056640625;-0.007144462317228317;-0.0009680590592324734;0.0027427896857261658
0.0265655517578125;0.061309814453125;-1.0105133056640625;-0.009888583794236183;-0.0001637844106880948;0.0014359764754772186
0.0265655517578125;0.061309814453125;-1.0105133056640625;-0.009888583794236183;-0.0001637844106880948;0.0014359764754772186
0.0265655517578125;0.061309814453125;-1.0105133056640625;-0.009888583794236183;-0.0001637844106880948;0.0014359764754772186
0.0277862548828125;0.0616302490234375;-1.0100250244140625;-0.009888583794236183;-0.0001637844106880948;0.0014359764754772186
0.0277862548828125;0.0616302490234375;-1.0100250244140625;-0.009888583794236183;-0.0001637844106880948;0.0014359764754772186
0.0277862548828125;0.0616302490234375;-1.0100250244140625;-0.012603675946593285;-0.001606418751180172;-0.00012836436508223414
0.0277862548828125;0.0616302490234375;-1.0100250244140625;-0.012603675946593285;-0.001606418751180172;-0.00012836436508223414
0.0277862548828125;0.0616302490234375;-1.0100250244140625;-0.012603675946593285;-0.001606418751180172;-0.00012836436508223414
0.0280914306640625;0.0604400634765625;-1.01025390625;-0.012603675946593285;-0.001606418751180172;-0.00012836436508223414
0.0280914306640625;0.0604400634765625;-1.01025390625;-0.012603675946593285;-0.001606418751180172;-0.00012836436508223414
0.0280914306640625;0.0604400634765625;-1.01025390625;-0.010823885910212994;0.002788329729810357;0.0018849853659048676
0.0280914306640625;0.0604400634765625;-1.01025390625;-0.010823885910212994;0.002788329729810357;0.0018849853659048676
0.0280914306640625;0.0604400634765625;-1.01025390625;-0.010823885910212994;0.002788329729810357;0.0018849853659048676
0.028900146484375;0.0592193603515625;-1.0126495361328125;-0.010823885910212994;0.002788329729810357;0.0018849853659048676
0.028900146484375;0.0592193603515625;-1.0126495361328125;-0.010823885910212994;0.002788329729810357;0.0018849853659048676
0.028900146484375;0.0592193603515625;-1.0126495361328125;-0.011626029387116432;0.0028722193092107773;0.000737695605494082
0.028900146484375;0.0592193603515625;-1.0126495361328125;-0.011626029387116432;0.0028722193092107773;0.000737695605494082
0.028900146484375;0.0592193603515625;-1.0126495361328125;-0.011626029387116432;0.0028722193092107773;0.000737695605494082
0.028289794921875;0.0584716796875;-1.0133514404296875;-0.011626029387116432;0.0028722193092107773;0.000737695605494082
0.028289794921875;0.0584716796875;-1.0133514404296875;-0.011626029387116432;0.0028722193092107773;0.000737695605494082
0.028289794921875;0.0584716796875;-1.0133514404296875;-0.011626029387116432;0.0028722193092107773;0.000737695605494082
0.028289794921875;0.0584716796875;-1.0133514404296875;-0.006204632576555014;9.667274571256712e-05;-0.0008625978953205049
0.028289794921875;0.0584716796875;-1.0133514404296875;-0.006204632576555014;9.667274571256712e-05;-0.0008625978953205049
0.027801513671875;0.05908203125;-1.0147247314453125;-0.006204632576555014;9.667274571256712e-05;-0.0008625978953205049
0.027801513671875;0.05908203125;-1.0147247314453125;-0.006204632576555014;9.667274571256712e-05;-0.0008625978953205049
0.027801513671875;0.05908203125;-1.0147247314453125;-0.007163104135543108;0.0013938985066488385;0.00027297402266412973
0.027801513671875;0.05908203125;-1.0147247314453125;-0.007163104135543108;0.0013938985066488385;0.00027297402266412973
0.027801513671875;0.05908203125;-1.0147247314453125;-0.007163104135543108;0.0013938985066488385;0.00027297402266412973
0.028472900390625;0.0598297119140625;-1.014862060546875;-0.007163104135543108;0.0013938985066488385;0.00027297402266412973
0.028472900390625;0.0598297119140625;-1.014862060546875;-0.007163104135543108;0.0013938985066488385;0.00027297402266412973
0.028472900390625;0.0598297119140625;-1.014862060546875;-0.011019893921911716;-0.002995789982378483;-0.0012708604335784912
0.028472900390625;0.0598297119140625;-1.014862060546875;-0.011019893921911716;-0.002995789982378483;-0.0012708604335784912
0.028472900390625;0.0598297119140625;-1.014862060546875;-0.011019893921911716;-0.002995789982378483;-0.0012708604335784912
0.0288238525390625;0.059234619140625;-1.0119476318359375;-0.011019893921911716;-0.002995789982378483;-0.0012708604335784912
0.0288238525390625;0.059234619140625;-1.0119476318359375;-0.011019893921911716;-0.002995789982378483;-0.0012708604335784912
0.0288238525390625;0.059234619140625;-1.0119476318359375;-0.013568539172410965;-0.0029784792568534613;0.0009174589649774134
0.0288238525390625;0.059234619140625;-1.0119476318359375;-0.013568539172410965;-0.0029784792568534613;0.0009174589649774134
0.0288238525390625;0.059234619140625;-1.0119476318359375;-0.013568539172410965;-0.0029784792568534613;0.0009174589649774134
0.029144287109375;0.058868408203125;-1.0119781494140625;-0.013568539172410965;-0.0029784792568534613;0.0009174589649774134
0.029144287109375;0.058868408203125;-1.0119781494140625;-0.013568539172410965;-0.0029784792568534613;0.0009174589649774134
0.029144287109375;0.058868408203125;-1.0119781494140625;-0.014993064105510712;-0.004451740067452192;0.0014767227694392204
0.029144287109375;0.058868408203125;-1.0119781494140625;-0.014993064105510712;-0.004451740067452192;0.0014767227694392204
0.029144287109375;0.058868408203125;-1.0119781494140625;-0.014993064105510712;-0.004451740067452192;0.0014767227694392204
0.0304718017578125;0.059051513671875;-1.0149993896484375;-0.014993064105510712;-0.004451740067452192;0.0014767227694392204
0.0304718017578125;0.059051513671875;-1.0149993896484375;-0.014993064105510712;-0.004451740067452192;0.0014767227694392204
0.0304718017578125;0.059051513671875;-1.0149993896484375;-0.02196575328707695;-0.004511927254498005;0.003308178624138236
0.0304718017578125;0.059051513671875;-1.0149993896484375;-0.02196575328707695;-0.004511927254498005;0.003308178624138236
0.0304718017578125;0.059051513671875;-1.0149993896484375;-0.02196575328707695;-0.004511927254498005;0.003308178624138236
0.0298309326171875;0.0589599609375;-1.015380859375;-0.02196575328707695;-0.004511927254498005;0.003308178624138236
0.0298309326171875;0.0589599609375;-1.015380859375;-0.02196575328707695;-0.004511927254498005;0.003308178624138236
0.0298309326171875;0.0589599609375;-1.015380859375;-0.02756291814148426;-0.005572131834924221;0.0023310647811740637
0.0298309326171875;0.0589599609375;-1.015380859375;-0.02756291814148426;-0.005572131834924221;0.0023310647811740637
0.0298309326171875;0.0589599609375;-1.015380859375;-0.02756291814148426;-0.005572131834924221;0.0023310647811740637
0.029388427734375;0.0590972900390625;-1.0130462646484375;-0.02756291814148426;-0.005572131834924221;0.0023310647811740637
0.029388427734375;0.0590972900390625;-1.0130462646484375;-0.02756291814148426;-0.005572131834924221;0.0023310647811740637
0.029388427734375;0.0590972900390625;-1.0130462646484375;-0.02521773800253868;-0.0076187714003026485;0.0026900589000433683
0.029388427734375;0.0590972900390625;-1.0130462646484375;-0.02521773800253868;-0.0076187714003026485;0.0026900589000433683
0.029388427734375;0.0590972900390625;-1.0130462646484375;-0.02521773800253868;-0.0076187714003026485;0.0026900589000433683
0.0293426513671875;0.060394287109375;-1.0127410888671875;-0.02521773800253868;-0.0076187714003026485;0.0026900589000433683
0.0293426513671875;0.060394287109375;-1.0127410888671875;-0.02521773800253868;-0.0076187714003026485;0.0026900589000433683
0.0293426513671875;0.060394287109375;-1.0127410888671875;-0.027239343151450157;-0.00996128749102354;0.002266616327688098
0.0293426513671875;0.060394287109375;-1.0127410888671875;-0.027239343151450157;-0.00996128749102354;0.002266616327688098
0.0293426513671875;0.060394287109375;-1.0127410888671875;-0.027239343151450157;-0.00996128749102354;0.002266616327688098
0.029296875;0.0610809326171875;-1.0120086669921875;-0.027239343151450157;-0.00996128749102354;0.002266616327688098
0.029296875;0.0610809326171875;-1.0120086669921875;-0.027239343151450157;-0.00996128749102354;0.002266616327688098
0.029296875;0.0610809326171875;-1.0120086669921875;-0.02713441476225853;-0.008555138483643532;0.005377987399697304
0.029296875;0.0610809326171875;-1.0120086669921875;-0.02713441476225853;-0.008555138483643532;0.005377987399697304
0.029296875;0.0610809326171875;-1.0120086669921875;-0.02713441476225853;-0.008555138483643532;0.005377987399697304
0.030853271484375;0.062957763671875;-1.0143280029296875;-0.02713441476225853;-0.008555138483643532;0.005377987399697304
0.030853271484375;0.062957763671875;-1.0143280029296875;-0.02713441476225853;-0.008555138483643532;0.005377987399697304
0.030853271484375;0.062957763671875;-1.0143280029296875;-0.03111930377781391;-0.009127185679972172;0.005319930613040924
0.030853271484375;0.062957763671875;-1.0143280029296875;-0.03111930377781391;-0.009127185679972172;0.005319930613040924
0.030853271484375;0.062957763671875;-1.0143280029296875;-0.03111930377781391;-0.009127185679972172;0.005319930613040924
0.0323333740234375;0.0640716552734375;-1.0141754150390625;-0.03111930377781391;-0.009127185679972172;0.005319930613040924
0.0323333740234375;0.0640716552734375;-1.0141754150390625;-0.03111930377781391;-0.009127185679972172;0.005319930613040924
0.0323333740234375;0.0640716552734375;-1.0141754150390625;-0.029560022056102753;0.0002623213513288647;0.006621683482080698
0.0323333740234375;0.0640716552734375;-1.0141754150390625;-0.029560022056102753;0.0002623213513288647;0.006621683482080698
0.0323333740234375;0.0640716552734375;-1.0141754150390625;-0.029560022056102753;0.0002623213513288647;0.006621683482080698
0.0303802490234375;0.065032958984375;-1.0132293701171875;-0.029560022056102753;0.0002623213513288647;0.006621683482080698
0.0303802490234375;0.065032958984375;-1.0132293701171875;-0.029560022056102753;0.0002623213513288647;0.006621683482080698
0.0303802490234375;0.065032958984375;-1.0132293701171875;-0.030523020774126053;0.0060387179255485535;0.008327971212565899
0.0303802490234375;0.065032958984375;-1.0132293701171875;-0.030523020774126053;0.0060387179255485535;0.008327971212565899
0.0303802490234375;0.065032958984375;-1.0132293701171875;-0.030523020774126053;0.0060387179255485535;0.008327971212565899
0.0274200439453125;0.06427001953125;-1.0115966796875;-0.030523020774126053;0.0060387179255485535;0.008327971212565899
0.0274200439453125;0.06427001953125;-1.0115966796875;-0.030523020774126053;0.0060387179255485535;0.008327971212565899
0.0274200439453125;0.06427001953125;-1.0115966796875;-0.03327193483710289;0.013278255239129066;0.0036224317736923695
0.0274200439453125;0.06427001953125;-1.0115966796875;-0.03327193483710289;0.013278255239129066;0.0036224317736923695
0.0274200439453125;0.06427001953125;-1.0115966796875;-0.03327193483710289;0.013278255239129066;0.0036224317736923695
0.024810791015625;0.0641326904296875;-1.0076446533203125;-0.03327193483710289;0.013278255239129066;0.0036224317736923695
0.024810791015625;0.0641326904296875;-1.0076446533203125;-0.03327193483710289;0.013278255239129066;0.0036224317736923695
0.024810791015625;0.0641326904296875;-1.0076446533203125;-0.035355858504772186;0.009647301398217678;0.003174487967044115
0.024810791015625;0.0641326904296875;-1.0076446533203125;-0.035355858504772186;0.009647301398217678;0.003174487967044115
0.024810791015625;0.0641326904296875;-1.0076446533203125;-0.035355858504772186;0.009647301398217678;0.003174487967044115
0.023193359375;0.0641937255859375;-1.0066375732421875;-0.035355858504772186;0.009647301398217678;0.003174487967044115
0.023193359375;0.0641937255859375;-1.0066375732421875;-0.035355858504772186;0.009647301398217678;0.003174487967044115
0.023193359375;0.0641937255859375;-1.0066375732421875;-0.03467408940196037;0.0012511530658230186;0.0016977651976048946
0.023193359375;0.0641937255859375;-1.0066375732421875;-0.03467408940196037;0.0012511530658230186;0.0016977651976048946
0.023193359375;0.0641937255859375;-1.0066375732421875;-0.03467408940196037;0.0012511530658230186;0.0016977651976048946
0.024261474609375;0.064300537109375;-1.0111236572265625;-0.03467408940196037;0.0012511530658230186;0.0016977651976048946
0.024261474609375;0.064300537109375;-1.0111236572265625;-0.03467408940196037;0.0012511530658230186;0.0016977651976048946
0.024261474609375;0.064300537109375;-1.0111236572265625;-0.02509869448840618;-0.002766757970675826;0.0005965480813756585
0.024261474609375;0.064300537109375;-1.0111236572265625;-0.02509869448840618;-0.002766757970675826;0.0005965480813756585
0.0259857177734375;0.0637054443359375;-1.0179290771484375;-0.02509869448840618;-0.002766757970675826;0.0005965480813756585
0.0259857177734375;0.0637054443359375;-1.0179290771484375;-0.02509869448840618;-0.002766757970675826;0.0005965480813756585
0.0259857177734375;0.0637054443359375;-1.0179290771484375;-0.02509869448840618;-0.002766757970675826;0.0005965480813756585
0.0259857177734375;0.0637054443359375;-1.0179290771484375;-0.021703431382775307;-0.0054794540628790855;-0.001088966615498066
0.0259857177734375;0.0637054443359375;-1.0179290771484375;-0.021703431382775307;-0.0054794540628790855;-0.001088966615498066
0.0278167724609375;0.06488037109375;-1.017730712890625;-0.021703431382775307;-0.0054794540628790855;-0.001088966615498066
0.0278167724609375;0.06488037109375;-1.017730712890625;-0.021703431382775307;-0.0054794540628790855;-0.001088966615498066
0.0278167724609375;0.06488037109375;-1.017730712890625;-0.021703431382775307;-0.0054794540628790855;-0.001088966615498066
0.0278167724609375;0.06488037109375;-1.017730712890625;-0.023974575102329254;-0.008402805775403976;0.0035627768374979496
0.0278167724609375;0.06488037109375;-1.017730712890625;-0.023974575102329254;-0.008402805775403976;0.0035627768374979496
0.0278167724609375;0.06488037109375;-1.017730712890625;-0.023974575102329254;-0.008402805775403976;0.0035627768374979496
0.0298309326171875;0.064605712890625;-1.015106201171875;-0.023974575102329254;-0.008402805775403976;0.0035627768374979496
0.0298309326171875;0.064605712890625;-1.015106201171875;-0.023974575102329254;-0.008402805775403976;0.0035627768374979496
0.0298309326171875;0.064605712890625;-1.015106201171875;-0.04002092033624649;0.008817460387945175;0.003163569141179323
0.0298309326171875;0.064605712890625;-1.015106201171875;-0.04002092033624649;0.008817460387945175;0.003163569141179323
0.033447265625;0.0648956298828125;-1.000396728515625;-0.04002092033624649;0.008817460387945175;0.003163569141179323
0.033447265625;0.0648956298828125;-1.000396728515625;-0.04002092033624649;0.008817460387945175;0.003163569141179323
0.033447265625;0.0648956298828125;-1.000396728515625;-0.04002092033624649;0.008817460387945175;0.003163569141179323
0.033447265625;0.0648956298828125;-1.000396728515625;-0.0755980908870697;0.02201581932604313;0.0049217878840863705
0.033447265625;0.0648956298828125;-1.000396728515625;-0.0755980908870697;0.02201581932604313;0.0049217878840863705
0.033447265625;0.0648956298828125;-1.000396728515625;-0.0755980908870697;0.02201581932604313;0.0049217878840863705
0.0316314697265625;0.0633392333984375;-0.978973388671875;-0.0755980908870697;0.02201581932604313;0.0049217878840863705
0.0316314697265625;0.0633392333984375;-0.978973388671875;-0.0755980908870697;0.02201581932604313;0.0049217878840863705
0.0316314697265625;0.0633392333984375;-0.978973388671875;-0.07641913741827011;0.013344300910830498;-0.0002364887041039765
0.0316314697265625;0.0633392333984375;-0.978973388671875;-0.07641913741827011;0.013344300910830498;-0.0002364887041039765
0.0281982421875;0.0663604736328125;-0.9986572265625;-0.07641913741827011;0.013344300910830498;-0.0002364887041039765
0.0281982421875;0.0663604736328125;-0.9986572265625;-0.07641913741827011;0.013344300910830498;-0.0002364887041039765
0.0281982421875;0.0663604736328125;-0.9986572265625;-0.07641913741827011;0.013344300910830498;-0.0002364887041039765
0.0281982421875;0.0663604736328125;-0.9986572265625;-0.041488319635391235;-0.022039787843823433;-0.0007707187905907631
0.0281982421875;0.0663604736328125;-0.9986572265625;-0.041488319635391235;-0.022039787843823433;-0.0007707187905907631
0.025970458984375;0.0720062255859375;-1.0385284423828125;-0.041488319635391235;-0.022039787843823433;-0.0007707187905907631
0.025970458984375;0.0720062255859375;-1.0385284423828125;-0.041488319635391235;-0.022039787843823433;-0.0007707187905907631
0.025970458984375;0.0720062255859375;-1.0385284423828125;-0.041488319635391235;-0.022039787843823433;-0.0007707187905907631
0.025970458984375;0.0720062255859375;-1.0385284423828125;-0.024943966418504715;-0.026498984545469284;-0.002144643571227789
0.025970458984375;0.0720062255859375;-1.0385284423828125;-0.024943966418504715;-0.026498984545469284;-0.002144643571227789
0.02197265625;0.07318115234375;-1.0219268798828125;-0.024943966418504715;-0.026498984545469284;-0.002144643571227789
0.02197265625;0.07318115234375;-1.0219268798828125;-0.024943966418504715;-0.026498984545469284;-0.002144643571227789
0.02197265625;0.07318115234375;-1.0219268798828125;-0.024943966418504715;-0.026498984545469284;-0.002144643571227789
0.02197265625;0.07318115234375;-1.0219268798828125;-0.024829182773828506;-0.010164753533899784;0.0003025351034011692
0.02197265625;0.07318115234375;-1.0219268798828125;-0.024829182773828506;-0.010164753533899784;0.0003025351034011692
0.0269775390625;0.07513427734375;-0.994140625;-0.024829182773828506;-0.010164753533899784;0.0003025351034011692
0.0269775390625;0.07513427734375;-0.994140625;-0.024829182773828506;-0.010164753533899784;0.0003025351034011692
0.0269775390625;0.07513427734375;-0.994140625;-0.024829182773828506;-0.010164753533899784;0.0003025351034011692
0.0269775390625;0.07513427734375;-0.994140625;-0.024640364572405815;0.004972920753061771;0.004418184049427509
0.0269775390625;0.07513427734375;-0.994140625;-0.024640364572405815;0.004972920753061771;0.004418184049427509
0.033447265625;0.0759735107421875;-0.9961395263671875;-0.024640364572405815;0.004972920753061771;0.004418184049427509
0.033447265625;0.0759735107421875;-0.9961395263671875;-0.024640364572405815;0.004972920753061771;0.004418184049427509
0.033447265625;0.0759735107421875;-0.9961395263671875;-0.024640364572405815;0.004972920753061771;0.004418184049427509
0.033447265625;0.0759735107421875;-0.9961395263671875;-0.025293372571468353;0.005083175376057625;0.009755425155162811
0.033447265625;0.0759735107421875;-0.9961395263671875;-0.025293372571468353;0.005083175376057625;0.009755425155162811
0.0337677001953125;0.070709228515625;-1.002288818359375;-0.025293372571468353;0.005083175376057625;0.009755425155162811
0.0337677001953125;0.070709228515625;-1.002288818359375;-0.025293372571468353;0.005083175376057625;0.009755425155162811
0.0337677001953125;0.070709228515625;-1.002288818359375;-0.025293372571468353;0.005083175376057625;0.009755425155162811
0.0337677001953125;0.070709228515625;-1.002288818359375;-0.012146944180130959;-0.0019528960110619664;0.010331999510526657
0.0337677001953125;0.070709228515625;-1.002288818359375;-0.012146944180130959;-0.0019528960110619664;0.010331999510526657
0.030731201171875;0.0631256103515625;-1.01226806640625;-0.012146944180130959;-0.0019528960110619664;0.010331999510526657
0.030731201171875;0.0631256103515625;-1.01226806640625;-0.012146944180130959;-0.0019528960110619664;0.010331999510526657
0.030731201171875;0.0631256103515625;-1.01226806640625;-0.012146944180130959;-0.0019528960110619664;0.010331999510526657
0.030731201171875;0.0631256103515625;-1.01226806640625;0.009081379510462284;-0.01031522173434496;0.012122442945837975
0.030731201171875;0.0631256103515625;-1.01226806640625;0.009081379510462284;-0.01031522173434496;0.012122442945837975
0.0323944091796875;0.05731201171875;-1.0264129638671875;0.009081379510462284;-0.01031522173434496;0.012122442945837975
0.0323944091796875;0.05731201171875;-1.0264129638671875;0.009081379510462284;-0.01031522173434496;0.012122442945837975
0.0323944091796875;0.05731201171875;-1.0264129638671875;0.009081379510462284;-0.01031522173434496;0.012122442945837975
0.0323944091796875;0.05731201171875;-1.0264129638671875;0.018511632457375526;-0.006370547693222761;0.014297712594270706
0.0323944091796875;0.05731201171875;-1.0264129638671875;0.018511632457375526;-0.006370547693222761;0.014297712594270706
0.034820556640625;0.054656982421875;-1.0339202880859375;0.018511632457375526;-0.006370547693222761;0.014297712594270706
0.034820556640625;0.054656982421875;-1.0339202880859375;0.018511632457375526;-0.006370547693222761;0.014297712594270706
0.034820556640625;0.054656982421875;-1.0339202880859375;0.018511632457375526;-0.006370547693222761;0.014297712594270706
0.034820556640625;0.054656982421875;-1.0339202880859375;0.007285876199603081;-9.986854274757206e-05;0.009436111897230148
0.034820556640625;0.054656982421875;-1.0339202880859375;0.007285876199603081;-9.986854274757206e-05;0.009436111897230148
0.03375244140625;0.0543212890625;-1.026519775390625;0.007285876199603081;-9.986854274757206e-05;0.009436111897230148
0.03375244140625;0.0543212890625;-1.026519775390625;0.007285876199603081;-9.986854274757206e-05;0.009436111897230148
0.03375244140625;0.0543212890625;-1.026519775390625;0.007285876199603081;-9.986854274757206e-05;0.009436111897230148
0.03375244140625;0.0543212890625;-1.026519775390625;-0.017660751938819885;0.0011294466676190495;0.006759369280189276
0.03375244140625;0.0543212890625;-1.026519775390625;-0.017660751938819885;0.0011294466676190495;0.006759369280189276
0.030548095703125;0.0554656982421875;-1.015716552734375;-0.017660751938819885;0.0011294466676190495;0.006759369280189276
0.030548095703125;0.0554656982421875;-1.015716552734375;-0.017660751938819885;0.0011294466676190495;0.006759369280189276
0.030548095703125;0.0554656982421875;-1.015716552734375;-0.017660751938819885;0.0011294466676190495;0.006759369280189276
0.030548095703125;0.0554656982421875;-1.015716552734375;-0.044200219213962555;0.006632869131863117;0.005458415020257235
0.030548095703125;0.0554656982421875;-1.015716552734375;-0.044200219213962555;0.006632869131863117;0.005458415020257235
0.02880859375;0.056182861328125;-1.00885009765625;-0.044200219213962555;0.006632869131863117;0.005458415020257235
0.02880859375;0.056182861328125;-1.00885009765625;-0.044200219213962555;0.006632869131863117;0.005458415020257235
0.02880859375;0.056182861328125;-1.00885009765625;-0.044200219213962555;0.006632869131863117;0.005458415020257235
0.02880859375;0.056182861328125;-1.00885009765625;-0.055394817143678665;0.010481935925781727;0.002414954360574484
0.02880859375;0.056182861328125;-1.00885009765625;-0.055394817143678665;0.010481935925781727;0.002414954360574484
0.028594970703125;0.0592498779296875;-1.0102386474609375;-0.055394817143678665;0.010481935925781727;0.002414954360574484
0.028594970703125;0.0592498779296875;-1.0102386474609375;-0.055394817143678665;0.010481935925781727;0.002414954360574484
0.028594970703125;0.0592498779296875;-1.0102386474609375;-0.06311691552400589;0.00887684803456068;0.0017707358347252011
0.028594970703125;0.0592498779296875;-1.0102386474609375;-0.06311691552400589;0.00887684803456068;0.0017707358347252011
0.028594970703125;0.0592498779296875;-1.0102386474609375;-0.06311691552400589;0.00887684803456068;0.0017707358347252011
0.0296478271484375;0.0656585693359375;-1.00823974609375;-0.06311691552400589;0.00887684803456068;0.0017707358347252011
0.0296478271484375;0.0656585693359375;-1.00823974609375;-0.06311691552400589;0.00887684803456068;0.0017707358347252011
0.0296478271484375;0.0656585693359375;-1.00823974609375;-0.06311691552400589;0.00887684803456068;0.0017707358347252011
0.0296478271484375;0.0656585693359375;-1.00823974609375;-0.06861314922571182;0.005826730281114578;0.00021651499264407903
0.0296478271484375;0.0656585693359375;-1.00823974609375;-0.06861314922571182;0.005826730281114578;0.00021651499264407903
0.0302581787109375;0.07318115234375;-1.007171630859375;-0.06861314922571182;0.005826730281114578;0.00021651499264407903
0.0302581787109375;0.07318115234375;-1.007171630859375;-0.06861314922571182;0.005826730281114578;0.00021651499264407903
0.0302581787109375;0.07318115234375;-1.007171630859375;-0.06410601735115051;0.006713029928505421;-0.0021441110875457525
0.0302581787109375;0.07318115234375;-1.007171630859375;-0.06410601735115051;0.006713029928505421;-0.0021441110875457525
0.0302581787109375;0.07318115234375;-1.007171630859375;-0.06410601735115051;0.006713029928505421;-0.0021441110875457525
0.030853271484375;0.07977294921875;-1.0079345703125;-0.06410601735115051;0.006713029928505421;-0.0021441110875457525
0.030853271484375;0.07977294921875;-1.0079345703125;-0.06410601735115051;0.006713029928505421;-0.0021441110875457525
0.030853271484375;0.07977294921875;-1.0079345703125;-0.06410601735115051;0.006713029928505421;-0.0021441110875457525
0.030853271484375;0.07977294921875;-1.0079345703125;-0.05687393620610237;0.006130862981081009;-0.003709783311933279
0.030853271484375;0.07977294921875;-1.0079345703125;-0.05687393620610237;0.006130862981081009;-0.003709783311933279
0.030487060546875;0.0831298828125;-1.008544921875;-0.05687393620610237;0.006130862981081009;-0.003709783311933279
0.030487060546875;0.0831298828125;-1.008544921875;-0.05687393620610237;0.006130862981081009;-0.003709783311933279
0.030487060546875;0.0831298828125;-1.008544921875;-0.04568785801529884;0.005589975044131279;-0.004780640359967947
0.030487060546875;0.0831298828125;-1.008544921875;-0.04568785801529884;0.005589975044131279;-0.004780640359967947
0.030487060546875;0.0831298828125;-1.008544921875;-0.04568785801529884;0.005589975044131279;-0.004780640359967947
0.0291595458984375;0.084442138671875;-1.0125274658203125;-0.04568785801529884;0.005589975044131279;-0.004780640359967947
0.0291595458984375;0.084442138671875;-1.0125274658203125;-0.04568785801529884;0.005589975044131279;-0.004780640359967947
0.0291595458984375;0.084442138671875;-1.0125274658203125;-0.026430808007717133;0.0014769891276955605;-0.005290902219712734
0.0291595458984375;0.084442138671875;-1.0125274658203125;-0.026430808007717133;0.0014769891276955605;-0.005290902219712734
0.0291595458984375;0.084442138671875;-1.0125274658203125;-0.026430808007717133;0.0014769891276955605;-0.005290902219712734
0.02880859375;0.0846099853515625;-1.016571044921875;-0.026430808007717133;0.0014769891276955605;-0.005290902219712734
0.02880859375;0.0846099853515625;-1.016571044921875;-0.026430808007717133;0.0014769891276955605;-0.005290902219712734
0.02880859375;0.0846099853515625;-1.016571044921875;-0.011988219805061817;-0.0007502124644815922;0.00039494677912443876
0.02880859375;0.0846099853515625;-1.016571044921875;-0.011988219805061817;-0.0007502124644815922;0.00039494677912443876
0.02880859375;0.0846099853515625;-1.016571044921875;-0.011988219805061817;-0.0007502124644815922;0.00039494677912443876
0.0296173095703125;0.0808563232421875;-1.0164642333984375;-0.011988219805061817;-0.0007502124644815922;0.00039494677912443876
0.0296173095703125;0.0808563232421875;-1.0164642333984375;-0.011988219805061817;-0.0007502124644815922;0.00039494677912443876
0.0296173095703125;0.0808563232421875;-1.0164642333984375;-0.002130262553691864;-0.0016612798208370805;-0.0010671286145225167
0.0296173095703125;0.0808563232421875;-1.0164642333984375;-0.002130262553691864;-0.0016612798208370805;-0.0010671286145225167
0.0296173095703125;0.0808563232421875;-1.0164642333984375;-0.002130262553691864;-0.0016612798208370805;-0.0010671286145225167
0.0301513671875;0.0771942138671875;-1.0164794921875;-0.002130262553691864;-0.0016612798208370805;-0.0010671286145225167
0.0301513671875;0.0771942138671875;-1.0164794921875;-0.002130262553691864;-0.0016612798208370805;-0.0010671286145225167
0.0301513671875;0.0771942138671875;-1.0164794921875;-0.002130262553691864;-0.0016612798208370805;-0.0010671286145225167
0.0301513671875;0.0771942138671875;-1.0164794921875;-0.0029047098942101;-0.006616623606532812;0.0016636766958981752
0.0301513671875;0.0771942138671875;-1.0164794921875;-0.0029047098942101;-0.006616623606532812;0.0016636766958981752
0.0290069580078125;0.072967529296875;-1.015350341796875;-0.0029047098942101;-0.006616623606532812;0.0016636766958981752
0.0290069580078125;0.072967529296875;-1.015350341796875;-0.0029047098942101;-0.006616623606532812;0.0016636766958981752
0.0290069580078125;0.072967529296875;-1.015350341796875;-0.011215370148420334;-0.0057039582170546055;0.0065415226854383945
0.0290069580078125;0.072967529296875;-1.015350341796875;-0.011215370148420334;-0.0057039582170546055;0.0065415226854383945
0.0290069580078125;0.072967529296875;-1.015350341796875;-0.011215370148420334;-0.0057039582170546055;0.0065415226854383945
0.028564453125;0.0691680908203125;-1.0132598876953125;-0.011215370148420334;-0.0057039582170546055;0.0065415226854383945
0.028564453125;0.0691680908203125;-1.0132598876953125;-0.011215370148420334;-0.0057039582170546055;0.0065415226854383945
0.028564453125;0.0691680908203125;-1.0132598876953125;-0.017257284373044968;-0.009066198952496052;0.0056799896992743015
0.028564453125;0.0691680908203125;-1.0132598876953125;-0.017257284373044968;-0.009066198952496052;0.0056799896992743015
0.028564453125;0.0691680908203125;-1.0132598876953125;-0.017257284373044968;-0.009066198952496052;0.0056799896992743015
0.0282745361328125;0.0668182373046875;-1.012908935546875;-0.017257284373044968;-0.009066198952496052;0.0056799896992743015
0.0282745361328125;0.0668182373046875;-1.012908935546875;-0.017257284373044968;-0.009066198952496052;0.0056799896992743015
0.0282745361328125;0.0668182373046875;-1.012908935546875;-0.018989935517311096;-0.009297627955675125;0.006744455546140671
0.0282745361328125;0.0668182373046875;-1.012908935546875;-0.018989935517311096;-0.009297627955675125;0.006744455546140671
0.0282745361328125;0.0668182373046875;-1.012908935546875;-0.018989935517311096;-0.009297627955675125;0.006744455546140671
0.02935791015625;0.06610107421875;-1.0123443603515625;-0.018989935517311096;-0.009297627955675125;0.006744455546140671
0.02935791015625;0.06610107421875;-1.0123443603515625;-0.018989935517311096;-0.009297627955675125;0.006744455546140671
0.02935791015625;0.06610107421875;-1.0123443603515625;-0.01804158464074135;-0.012413525953888893;0.006617156323045492
0.02935791015625;0.06610107421875;-1.0123443603515625;-0.01804158464074135;-0.012413525953888893;0.006617156323045492
0.02935791015625;0.06610107421875;-1.0123443603515625;-0.01804158464074135;-0.012413525953888893;0.006617156323045492
0.0302886962890625;0.066162109375;-1.01043701171875;-0.01804158464074135;-0.012413525953888893;0.006617156323045492
0.0302886962890625;0.066162109375;-1.01043701171875;-0.01804158464074135;-0.012413525953888893;0.006617156323045492
0.0302886962890625;0.066162109375;-1.01043701171875;-0.018743060529232025;-0.01506976317614317;0.008286692202091217
0.0302886962890625;0.066162109375;-1.01043701171875;-0.018743060529232025;-0.01506976317614317;0.008286692202091217
0.0302886962890625;0.066162109375;-1.01043701171875;-0.018743060529232025;-0.01506976317614317;0.008286692202091217
0.028839111328125;0.067657470703125;-1.0072784423828125;-0.018743060529232025;-0.01506976317614317;0.008286692202091217
0.028839111328125;0.067657470703125;-1.0072784423828125;-0.018743060529232025;-0.01506976317614317;0.008286692202091217
0.028839111328125;0.067657470703125;-1.0072784423828125;-0.020204603672027588;-0.0169715266674757;0.0046661244705319405
0.028839111328125;0.067657470703125;-1.0072784423828125;-0.020204603672027588;-0.0169715266674757;0.0046661244705319405
0.028839111328125;0.067657470703125;-1.0072784423828125;-0.020204603672027588;-0.0169715266674757;0.0046661244705319405
0.0282135009765625;0.0694732666015625;-1.0103302001953125;-0.020204603672027588;-0.0169715266674757;0.0046661244705319405
0.0282135009765625;0.0694732666015625;-1.0103302001953125;-0.020204603672027588;-0.0169715266674757;0.0046661244705319405
0.0282135009765625;0.0694732666015625;-1.0103302001953125;-0.02003815583884716;-0.01091683004051447;0.0052205948159098625
0.0282135009765625;0.0694732666015625;-1.0103302001953125;-0.02003815583884716;-0.01091683004051447;0.0052205948159098625
0.0282135009765625;0.0694732666015625;-1.0103302001953125;-0.02003815583884716;-0.01091683004051447;0.0052205948159098625
0.027984619140625;0.0719757080078125;-1.009857177734375;-0.02003815583884716;-0.01091683004051447;0.0052205948159098625
0.027984619140625;0.0719757080078125;-1.009857177734375;-0.02003815583884716;-0.01091683004051447;0.0052205948159098625
0.027984619140625;0.0719757080078125;-1.009857177734375;-0.02532266639173031;-0.011328288353979588;0.0026322684716433287
0.027984619140625;0.0719757080078125;-1.009857177734375;-0.02532266639173031;-0.011328288353979588;0.0026322684716433287
0.027984619140625;0.0719757080078125;-1.009857177734375;-0.02532266639173031;-0.011328288353979588;0.0026322684716433287
0.0270843505859375;0.0739898681640625;-1.0037841796875;-0.02532266639173031;-0.011328288353979588;0.0026322684716433287
0.0270843505859375;0.0739898681640625;-1.0037841796875;-0.02532266639173031;-0.011328288353979588;0.0026322684716433287
0.0270843505859375;0.0739898681640625;-1.0037841796875;-0.0377335287630558;-0.008744755759835243;9.58738019107841e-05
0.0270843505859375;0.0739898681640625;-1.0037841796875;-0.0377335287630558;-0.008744755759835243;9.58738019107841e-05
0.0270843505859375;0.0739898681640625;-1.0037841796875;-0.0377335287630558;-0.008744755759835243;9.58738019107841e-05
0.025787353515625;0.0761871337890625;-1.0002288818359375;-0.0377335287630558;-0.008744755759835243;9.58738019107841e-05
0.025787353515625;0.0761871337890625;-1.0002288818359375;-0.0377335287630558;-0.008744755759835243;9.58738019107841e-05
0.025787353515625;0.0761871337890625;-1.0002288818359375;-0.03750769421458244;-0.007416104432195425;0.002728408435359597
0.025787353515625;0.0761871337890625;-1.0002288818359375;-0.03750769421458244;-0.007416104432195425;0.002728408435359597
0.025787353515625;0.0761871337890625;-1.0002288818359375;-0.03750769421458244;-0.007416104432195425;0.002728408435359597
0.0249481201171875;0.076873779296875;-1.0024871826171875;-0.03750769421458244;-0.007416104432195425;0.002728408435359597
0.0249481201171875;0.076873779296875;-1.0024871826171875;-0.03750769421458244;-0.007416104432195425;0.002728408435359597
0.0249481201171875;0.076873779296875;-1.0024871826171875;-0.02978106588125229;-0.010329869575798512;0.0004665858286898583
0.0249481201171875;0.076873779296875;-1.0024871826171875;-0.02978106588125229;-0.010329869575798512;0.0004665858286898583
0.0249481201171875;0.076873779296875;-1.0024871826171875;-0.02978106588125229;-0.010329869575798512;0.0004665858286898583
0.0260772705078125;0.075958251953125;-1.0079803466796875;-0.02978106588125229;-0.010329869575798512;0.0004665858286898583
0.0260772705078125;0.075958251953125;-1.0079803466796875;-0.02978106588125229;-0.010329869575798512;0.0004665858286898583
0.0260772705078125;0.075958251953125;-1.0079803466796875;-0.01864665560424328;-0.012970393523573875;0.003628823207691312
0.0260772705078125;0.075958251953125;-1.0079803466796875;-0.01864665560424328;-0.012970393523573875;0.003628823207691312
0.0260772705078125;0.075958251953125;-1.0079803466796875;-0.01864665560424328;-0.012970393523573875;0.003628823207691312
0.028350830078125;0.0758514404296875;-1.006927490234375;-0.01864665560424328;-0.012970393523573875;0.003628823207691312
0.028350830078125;0.0758514404296875;-1.006927490234375;-0.01864665560424328;-0.012970393523573875;0.003628823207691312
0.028350830078125;0.0758514404296875;-1.006927490234375;-0.015807459130883217;-0.005578257143497467;0.007553790230304003
0.028350830078125;0.0758514404296875;-1.006927490234375;-0.015807459130883217;-0.005578257143497467;0.007553790230304003
0.028350830078125;0.0758514404296875;-1.006927490234375;-0.015807459130883217;-0.005578257143497467;0.007553790230304003
0.0294189453125;0.073883056640625;-1.006591796875;-0.015807459130883217;-0.005578257143497467;0.007553790230304003
0.0294189453125;0.073883056640625;-1.006591796875;-0.015807459130883217;-0.005578257143497467;0.007553790230304003
0.0294189453125;0.073883056640625;-1.006591796875;-0.014226339757442474;-0.005003813188523054;0.007104514632374048
0.0294189453125;0.073883056640625;-1.006591796875;-0.014226339757442474;-0.005003813188523054;0.007104514632374048
0.0294189453125;0.073883056640625;-1.006591796875;-0.014226339757442474;-0.005003813188523054;0.007104514632374048
0.0295867919921875;0.0714874267578125;-1.01043701171875;-0.014226339757442474;-0.005003813188523054;0.007104514632374048
0.0295867919921875;0.0714874267578125;-1.01043701171875;-0.014226339757442474;-0.005003813188523054;0.007104514632374048
0.0295867919921875;0.0714874267578125;-1.01043701171875;-0.006372145377099514;-0.00592420157045126;0.00800093449652195
0.0295867919921875;0.0714874267578125;-1.01043701171875;-0.006372145377099514;-0.00592420157045126;0.00800093449652195
0.0276641845703125;0.0694122314453125;-1.0152587890625;-0.006372145377099514;-0.00592420157045126;0.00800093449652195
0.0276641845703125;0.0694122314453125;-1.0152587890625;-0.006372145377099514;-0.00592420157045126;0.00800093449652195
0.0276641845703125;0.0694122314453125;-1.0152587890625;-0.006372145377099514;-0.00592420157045126;0.00800093449652195
0.0276641845703125;0.0694122314453125;-1.0152587890625;-0.0017084177816286683;-0.005306348204612732;0.007802795618772507
0.0276641845703125;0.0694122314453125;-1.0152587890625;-0.0017084177816286683;-0.005306348204612732;0.007802795618772507
0.0276641845703125;0.0694122314453125;-1.0152587890625;-0.0017084177816286683;-0.005306348204612732;0.007802795618772507
0.0272216796875;0.0676422119140625;-1.017822265625;-0.0017084177816286683;-0.005306348204612732;0.007802795618772507
0.0272216796875;0.0676422119140625;-1.017822265625;-0.0017084177816286683;-0.005306348204612732;0.007802795618772507
0.0272216796875;0.0676422119140625;-1.017822265625;-0.0010016148444265127;-0.004540956113487482;0.005726861767470837
0.0272216796875;0.0676422119140625;-1.017822265625;-0.0010016148444265127;-0.004540956113487482;0.005726861767470837
0.027740478515625;0.066619873046875;-1.0178070068359375;-0.0010016148444265127;-0.004540956113487482;0.005726861767470837
0.027740478515625;0.066619873046875;-1.0178070068359375;-0.0010016148444265127;-0.004540956113487482;0.005726861767470837
0.027740478515625;0.066619873046875;-1.0178070068359375;-0.0010016148444265127;-0.004540956113487482;0.005726861767470837
0.027740478515625;0.066619873046875;-1.0178070068359375;-0.0063785370439291;-0.004824049770832062;0.00881160143762827
0.027740478515625;0.066619873046875;-1.0178070068359375;-0.0063785370439291;-0.004824049770832062;0.00881160143762827
0.029022216796875;0.0673980712890625;-1.016876220703125;-0.0063785370439291;-0.004824049770832062;0.00881160143762827
0.029022216796875;0.0673980712890625;-1.016876220703125;-0.0063785370439291;-0.004824049770832062;0.00881160143762827
0.029022216796875;0.0673980712890625;-1.016876220703125;-0.0063785370439291;-0.004824049770832062;0.00881160143762827
0.029022216796875;0.0673980712890625;-1.016876220703125;-0.011991681531071663;-0.005408880300819874;0.006022472400218248
0.029022216796875;0.0673980712890625;-1.016876220703125;-0.011991681531071663;-0.005408880300819874;0.006022472400218248
0.0303192138671875;0.069488525390625;-1.0147705078125;-0.011991681531071663;-0.005408880300819874;0.006022472400218248
0.0303192138671875;0.069488525390625;-1.0147705078125;-0.011991681531071663;-0.005408880300819874;0.006022472400218248
0.0303192138671875;0.069488525390625;-1.0147705078125;-0.011991681531071663;-0.005408880300819874;0.006022472400218248
0.0303192138671875;0.069488525390625;-1.0147705078125;-0.0242582019418478;-0.003596865339204669;0.0070493873208761215
0.0303192138671875;0.069488525390625;-1.0147705078125;-0.0242582019418478;-0.003596865339204669;0.0070493873208761215
0.030426025390625;0.0723419189453125;-1.013031005859375;-0.0242582019418478;-0.003596865339204669;0.0070493873208761215
0.030426025390625;0.0723419189453125;-1.013031005859375;-0.0242582019418478;-0.003596865339204669;0.0070493873208761215
0.030426025390625;0.0723419189453125;-1.013031005859375;-0.0242582019418478;-0.003596865339204669;0.0070493873208761215
0.030426025390625;0.0723419189453125;-1.013031005859375;-0.027935227379202843;-0.0010527475969865918;0.005891977343708277
0.030426025390625;0.0723419189453125;-1.013031005859375;-0.027935227379202843;-0.0010527475969865918;0.005891977343708277
0.029632568359375;0.0760650634765625;-1.013671875;-0.027935227379202843;-0.0010527475969865918;0.005891977343708277
0.029632568359375;0.0760650634765625;-1.013671875;-0.027935227379202843;-0.0010527475969865918;0.005891977343708277
0.029632568359375;0.0760650634765625;-1.013671875;-0.027935227379202843;-0.0010527475969865918;0.005891977343708277
0.029632568359375;0.0760650634765625;-1.013671875;-0.030121151357889175;-0.007221694104373455;0.006523945834487677
0.029632568359375;0.0760650634765625;-1.013671875;-0.030121151357889175;-0.007221694104373455;0.006523945834487677
0.03045654296875;0.0794830322265625;-1.013275146484375;-0.030121151357889175;-0.007221694104373455;0.006523945834487677
0.03045654296875;0.0794830322265625;-1.013275146484375;-0.030121151357889175;-0.007221694104373455;0.006523945834487677
0.03045654296875;0.0794830322265625;-1.013275146484375;-0.030121151357889175;-0.007221694104373455;0.006523945834487677
0.03045654296875;0.0794830322265625;-1.013275146484375;-0.027999144047498703;-0.0052261874079704285;0.004139084834605455
0.03045654296875;0.0794830322265625;-1.013275146484375;-0.027999144047498703;-0.0052261874079704285;0.004139084834605455
0.0306396484375;0.08172607421875;-1.0131988525390625;-0.027999144047498703;-0.0052261874079704285;0.004139084834605455
0.0306396484375;0.08172607421875;-1.0131988525390625;-0.027999144047498703;-0.0052261874079704285;0.004139084834605455
0.0306396484375;0.08172607421875;-1.0131988525390625;-0.027999144047498703;-0.0052261874079704285;0.004139084834605455
0.0306396484375;0.08172607421875;-1.0131988525390625;-0.024819862097501755;-0.009614011272788048;0.0016732640797272325
0.0306396484375;0.08172607421875;-1.0131988525390625;-0.024819862097501755;-0.009614011272788048;0.0016732640797272325
0.0308837890625;0.0840301513671875;-1.0139007568359375;-0.024819862097501755;-0.009614011272788048;0.0016732640797272325
0.0308837890625;0.0840301513671875;-1.0139007568359375;-0.024819862097501755;-0.009614011272788048;0.0016732640797272325
0.0308837890625;0.0840301513671875;-1.0139007568359375;-0.024819862097501755;-0.009614011272788048;0.0016732640797272325
0.0308837890625;0.0840301513671875;-1.0139007568359375;-0.02317163161933422;-0.008685367181897163;0.0032975259236991405
0.0308837890625;0.0840301513671875;-1.0139007568359375;-0.02317163161933422;-0.008685367181897163;0.0032975259236991405
0.0305938720703125;0.0828857421875;-1.012054443359375;-0.02317163161933422;-0.008685367181897163;0.0032975259236991405
0.0305938720703125;0.0828857421875;-1.012054443359375;-0.02317163161933422;-0.008685367181897163;0.0032975259236991405
0.0305938720703125;0.0828857421875;-1.012054443359375;-0.02317163161933422;-0.008685367181897163;0.0032975259236991405
0.0305938720703125;0.0828857421875;-1.012054443359375;-0.020442690700292587;-0.009374593384563923;0.002930542454123497
0.0305938720703125;0.0828857421875;-1.012054443359375;-0.020442690700292587;-0.009374593384563923;0.002930542454123497
0.030914306640625;0.0826568603515625;-1.0099029541015625;-0.020442690700292587;-0.009374593384563923;0.002930542454123497
0.030914306640625;0.0826568603515625;-1.0099029541015625;-0.020442690700292587;-0.009374593384563923;0.002930542454123497
0.030914306640625;0.0826568603515625;-1.0099029541015625;-0.020442690700292587;-0.009374593384563923;0.002930542454123497
0.030914306640625;0.0826568603515625;-1.0099029541015625;-0.015092133544385433;-0.007727161981165409;0.005013134330511093
0.030914306640625;0.0826568603515625;-1.0099029541015625;-0.015092133544385433;-0.007727161981165409;0.005013134330511093
0.030120849609375;0.0821380615234375;-1.0091552734375;-0.015092133544385433;-0.007727161981165409;0.005013134330511093
0.030120849609375;0.0821380615234375;-1.0091552734375;-0.015092133544385433;-0.007727161981165409;0.005013134330511093
0.030120849609375;0.0821380615234375;-1.0091552734375;-0.015092133544385433;-0.007727161981165409;0.005013134330511093
0.030120849609375;0.0821380615234375;-1.0091552734375;-0.009328254498541355;-0.005184908397495747;0.005369198974221945
0.030120849609375;0.0821380615234375;-1.0091552734375;-0.009328254498541355;-0.005184908397495747;0.005369198974221945
0.0289154052734375;0.0811614990234375;-1.0092926025390625;-0.009328254498541355;-0.005184908397495747;0.005369198974221945
0.0289154052734375;0.0811614990234375;-1.0092926025390625;-0.009328254498541355;-0.005184908397495747;0.005369198974221945
0.0289154052734375;0.0811614990234375;-1.0092926025390625;-0.009328254498541355;-0.005184908397495747;0.005369198974221945
0.0289154052734375;0.0811614990234375;-1.0092926025390625;-0.008015582337975502;-0.011240404099225998;0.004226702731102705
0.0289154052734375;0.0811614990234375;-1.0092926025390625;-0.008015582337975502;-0.011240404099225998;0.004226702731102705
0.0291748046875;0.080078125;-1.00927734375;-0.008015582337975502;-0.011240404099225998;0.004226702731102705
0.0291748046875;0.080078125;-1.00927734375;-0.008015582337975502;-0.011240404099225998;0.004226702731102705
0.0291748046875;0.080078125;-1.00927734375;-0.008015582337975502;-0.011240404099225998;0.004226702731102705
0.0291748046875;0.080078125;-1.00927734375;-0.007435812149196863;-0.00507065886631608;0.007909055799245834
0.0291748046875;0.080078125;-1.00927734375;-0.007435812149196863;-0.00507065886631608;0.007909055799245834
0.0289306640625;0.078277587890625;-1.0086517333984375;-0.007435812149196863;-0.00507065886631608;0.007909055799245834
0.0289306640625;0.078277587890625;-1.0086517333984375;-0.007435812149196863;-0.00507065886631608;0.007909055799245834
0.0289306640625;0.078277587890625;-1.0086517333984375;-0.007435812149196863;-0.00507065886631608;0.007909055799245834
0.0289306640625;0.078277587890625;-1.0086517333984375;-0.008833971805870533;-0.005240834783762693;0.005927663762122393
0.0289306640625;0.078277587890625;-1.0086517333984375;-0.008833971805870533;-0.005240834783762693;0.005927663762122393
0.0301055908203125;0.0771331787109375;-1.0058746337890625;-0.008833971805870533;-0.005240834783762693;0.005927663762122393
0.0301055908203125;0.0771331787109375;-1.0058746337890625;-0.008833971805870533;-0.005240834783762693;0.005927663762122393
0.0301055908203125;0.0771331787109375;-1.0058746337890625;-0.008833971805870533;-0.005240834783762693;0.005927663762122393
0.0301055908203125;0.0771331787109375;-1.0058746337890625;-0.00794341042637825;-0.0035920715890824795;0.002805906580761075
0.0301055908203125;0.0771331787109375;-1.0058746337890625;-0.00794341042637825;-0.0035920715890824795;0.002805906580761075
0.0283660888671875;0.07623291015625;-1.006103515625;-0.00794341042637825;-0.0035920715890824795;0.002805906580761075
0.0283660888671875;0.07623291015625;-1.006103515625;-0.00794341042637825;-0.0035920715890824795;0.002805906580761075
0.0283660888671875;0.07623291015625;-1.006103515625;-0.00794341042637825;-0.0035920715890824795;0.002805906580761075
0.0283660888671875;0.07623291015625;-1.006103515625;-0.007278152741491795;-0.001764077926054597;0.004028563853353262
0.0283660888671875;0.07623291015625;-1.006103515625;-0.007278152741491795;-0.001764077926054597;0.004028563853353262
0.0268402099609375;0.07623291015625;-1.00531005859375;-0.007278152741491795;-0.001764077926054597;0.004028563853353262
0.0268402099609375;0.07623291015625;-1.00531005859375;-0.007278152741491795;-0.001764077926054597;0.004028563853353262
0.0268402099609375;0.07623291015625;-1.00531005859375;-0.007278152741491795;-0.001764077926054597;0.004028563853353262
0.0268402099609375;0.07623291015625;-1.00531005859375;-0.005706089083105326;-0.0008772452711127698;0.0013073458103463054
0.0268402099609375;0.07623291015625;-1.00531005859375;-0.005706089083105326;-0.0008772452711127698;0.0013073458103463054
0.0270233154296875;0.075347900390625;-1.0066070556640625;-0.005706089083105326;-0.0008772452711127698;0.0013073458103463054
0.0270233154296875;0.075347900390625;-1.0066070556640625;-0.005706089083105326;-0.0008772452711127698;0.0013073458103463054
0.0270233154296875;0.075347900390625;-1.0066070556640625;0.0018426411552354693;-0.0013488910626620054;0.0010868359822779894
0.0270233154296875;0.075347900390625;-1.0066070556640625;0.0018426411552354693;-0.0013488910626620054;0.0010868359822779894
0.0270233154296875;0.075347900390625;-1.0066070556640625;0.0018426411552354693;-0.0013488910626620054;0.0010868359822779894
0.0267791748046875;0.0764923095703125;-1.007781982421875;0.0018426411552354693;-0.0013488910626620054;0.0010868359822779894
0.0267791748046875;0.0764923095703125;-1.007781982421875;0.0018426411552354693;-0.0013488910626620054;0.0010868359822779894
0.0267791748046875;0.0764923095703125;-1.007781982421875;0.008378304541110992;-0.0006601976347155869;9.58738019107841e-05
0.0267791748046875;0.0764923095703125;-1.007781982421875;0.008378304541110992;-0.0006601976347155869;9.58738019107841e-05
0.0267791748046875;0.0764923095703125;-1.007781982421875;0.008378304541110992;-0.0006601976347155869;9.58738019107841e-05
0.027191162109375;0.0765228271484375;-1.0074005126953125;0.008378304541110992;-0.0006601976347155869;9.58738019107841e-05
0.027191162109375;0.0765228271484375;-1.0074005126953125;0.008378304541110992;-0.0006601976347155869;9.58738019107841e-05
0.027191162109375;0.0765228271484375;-1.0074005126953125;0.014876684173941612;-0.001829591696150601;0.0037175065372139215
0.027191162109375;0.0765228271484375;-1.0074005126953125;0.014876684173941612;-0.001829591696150601;0.0037175065372139215
0.027191162109375;0.0765228271484375;-1.0074005126953125;0.014876684173941612;-0.001829591696150601;0.0037175065372139215
0.0280609130859375;0.0767364501953125;-1.00738525390625;0.014876684173941612;-0.001829591696150601;0.0037175065372139215
0.0280609130859375;0.0767364501953125;-1.00738525390625;0.014876684173941612;-0.001829591696150601;0.0037175065372139215
0.0280609130859375;0.0767364501953125;-1.00738525390625;0.02178465761244297;-0.0013739247806370258;0.0015310513554140925
0.0280609130859375;0.0767364501953125;-1.00738525390625;0.02178465761244297;-0.0013739247806370258;0.0015310513554140925
0.0280609130859375;0.0767364501953125;-1.00738525390625;0.02178465761244297;-0.0013739247806370258;0.0015310513554140925
0.0279388427734375;0.0777435302734375;-1.0059051513671875;0.02178465761244297;-0.0013739247806370258;0.0015310513554140925
0.0279388427734375;0.0777435302734375;-1.0059051513671875;0.02178465761244297;-0.0013739247806370258;0.0015310513554140925
0.0279388427734375;0.0777435302734375;-1.0059051513671875;0.03381815180182457;0.004036286845803261;0.0008695221040397882
0.0279388427734375;0.0777435302734375;-1.0059051513671875;0.03381815180182457;0.004036286845803261;0.0008695221040397882
0.0279388427734375;0.0777435302734375;-1.0059051513671875;0.03381815180182457;0.004036286845803261;0.0008695221040397882
0.028564453125;0.077606201171875;-1.0074310302734375;0.03381815180182457;0.004036286845803261;0.0008695221040397882
0.028564453125;0.077606201171875;-1.0074310302734375;0.03381815180182457;0.004036286845803261;0.0008695221040397882
0.028564453125;0.077606201171875;-1.0074310302734375;0.043175168335437775;0.0009528790251351893;0.0014106763992458582
0.028564453125;0.077606201171875;-1.0074310302734375;0.043175168335437775;0.0009528790251351893;0.0014106763992458582
0.028564453125;0.077606201171875;-1.0074310302734375;0.043175168335437775;0.0009528790251351893;0.0014106763992458582
0.0289306640625;0.07861328125;-1.008880615234375;0.043175168335437775;0.0009528790251351893;0.0014106763992458582
0.0289306640625;0.07861328125;-1.008880615234375;0.043175168335437775;0.0009528790251351893;0.0014106763992458582
0.0289306640625;0.07861328125;-1.008880615234375;0.05016916245222092;0.0015824503498151898;0.0023374564480036497
0.0289306640625;0.07861328125;-1.008880615234375;0.05016916245222092;0.0015824503498151898;0.0023374564480036497
0.0289306640625;0.07861328125;-1.008880615234375;0.05016916245222092;0.0015824503498151898;0.0023374564480036497
0.02972412109375;0.079345703125;-1.0101776123046875;0.05016916245222092;0.0015824503498151898;0.0023374564480036497
0.02972412109375;0.079345703125;-1.0101776123046875;0.05016916245222092;0.0015824503498151898;0.0023374564480036497
0.02972412109375;0.079345703125;-1.0101776123046875;0.06114431470632553;-0.0022857910953462124;-0.001056476030498743
0.02972412109375;0.079345703125;-1.0101776123046875;0.06114431470632553;-0.0022857910953462124;-0.001056476030498743
0.02972412109375;0.079345703125;-1.0101776123046875;0.06114431470632553;-0.0022857910953462124;-0.001056476030498743
0.0294647216796875;0.0786285400390625;-1.010894775390625;0.06114431470632553;-0.0022857910953462124;-0.001056476030498743
0.0294647216796875;0.0786285400390625;-1.010894775390625;0.06114431470632553;-0.0022857910953462124;-0.001056476030498743
0.0294647216796875;0.0786285400390625;-1.010894775390625;0.06660991907119751;-0.0005555353709496558;0.0016490293201059103
0.0294647216796875;0.0786285400390625;-1.010894775390625;0.06660991907119751;-0.0005555353709496558;0.0016490293201059103
0.0294647216796875;0.0786285400390625;-1.010894775390625;0.06660991907119751;-0.0005555353709496558;0.0016490293201059103
0.0294647216796875;0.0782928466796875;-1.0111541748046875;0.06660991907119751;-0.0005555353709496558;0.0016490293201059103
0.0294647216796875;0.0782928466796875;-1.0111541748046875;0.06660991907119751;-0.0005555353709496558;0.0016490293201059103
0.0294647216796875;0.0782928466796875;-1.0111541748046875;0.06660991907119751;-0.0005555353709496558;0.0016490293201059103
0.0294647216796875;0.0782928466796875;-1.0111541748046875;0.07569529116153717;-0.0010159959783777595;0.0005573995877057314
0.0294647216796875;0.0782928466796875;-1.0111541748046875;0.07569529116153717;-0.0010159959783777595;0.0005573995877057314
0.02886962890625;0.076873779296875;-1.0096893310546875;0.07569529116153717;-0.0010159959783777595;0.0005573995877057314
0.02886962890625;0.076873779296875;-1.0096893310546875;0.07569529116153717;-0.0010159959783777595;0.0005573995877057314
0.02886962890625;0.076873779296875;-1.0096893310546875;0.07111252844333649;-0.001508414396084845;0.0017560884589329362
0.02886962890625;0.076873779296875;-1.0096893310546875;0.07111252844333649;-0.001508414396084845;0.0017560884589329362
0.02886962890625;0.076873779296875;-1.0096893310546875;0.07111252844333649;-0.001508414396084845;0.0017560884589329362
0.028289794921875;0.0745086669921875;-1.00897216796875;0.07111252844333649;-0.001508414396084845;0.0017560884589329362
0.028289794921875;0.0745086669921875;-1.00897216796875;0.07111252844333649;-0.001508414396084845;0.0017560884589329362
0.028289794921875;0.0745086669921875;-1.00897216796875;0.0713420882821083;-0.0018096179701387882;0.004569451790302992
0.028289794921875;0.0745086669921875;-1.00897216796875;0.0713420882821083;-0.0018096179701387882;0.004569451790302992
0.028289794921875;0.0745086669921875;-1.00897216796875;0.0713420882821083;-0.0018096179701387882;0.004569451790302992
0.0277862548828125;0.074554443359375;-1.008392333984375;0.0713420882821083;-0.0018096179701387882;0.004569451790302992
0.0277862548828125;0.074554443359375;-1.008392333984375;0.0713420882821083;-0.0018096179701387882;0.004569451790302992
0.0277862548828125;0.074554443359375;-1.008392333984375;0.07132530957460403;0.0003091930120717734;0.0019499665359035134
0.0277862548828125;0.074554443359375;-1.008392333984375;0.07132530957460403;0.0003091930120717734;0.0019499665359035134
0.0277862548828125;0.074554443359375;-1.008392333984375;0.07132530957460403;0.0003091930120717734;0.0019499665359035134
0.02783203125;0.0719146728515625;-1.009368896484375;0.07132530957460403;0.0003091930120717734;0.0019499665359035134
0.02783203125;0.0719146728515625;-1.009368896484375;0.07132530957460403;0.0003091930120717734;0.0019499665359035134
0.02783203125;0.0719146728515625;-1.009368896484375;0.0599440261721611;0.0014708638191223145;0.004722849931567907
0.02783203125;0.0719146728515625;-1.009368896484375;0.0599440261721611;0.0014708638191223145;0.004722849931567907
0.02783203125;0.0719146728515625;-1.009368896484375;0.0599440261721611;0.0014708638191223145;0.004722849931567907
0.0286102294921875;0.0698089599609375;-1.01007080078125;0.0599440261721611;0.0014708638191223145;0.004722849931567907
0.0286102294921875;0.0698089599609375;-1.01007080078125;0.0599440261721611;0.0014708638191223145;0.004722849931567907
0.0286102294921875;0.0698089599609375;-1.01007080078125;0.048708416521549225;0.00398595305159688;0.005937517620623112
0.0286102294921875;0.0698089599609375;-1.01007080078125;0.048708416521549225;0.00398595305159688;0.005937517620623112
0.0286102294921875;0.0698089599609375;-1.01007080078125;0.048708416521549225;0.00398595305159688;0.005937517620623112
0.02777099609375;0.0690460205078125;-1.008575439453125;0.048708416521549225;0.00398595305159688;0.005937517620623112
0.02777099609375;0.0690460205078125;-1.008575439453125;0.048708416521549225;0.00398595305159688;0.005937517620623112
0.02777099609375;0.0690460205078125;-1.008575439453125;0.04355360195040703;0.0027150926180183887;0.006677876226603985
0.02777099609375;0.0690460205078125;-1.008575439453125;0.04355360195040703;0.0027150926180183887;0.006677876226603985
0.02777099609375;0.0690460205078125;-1.008575439453125;0.04355360195040703;0.0027150926180183887;0.006677876226603985
0.0262298583984375;0.0668487548828125;-1.0092620849609375;0.04355360195040703;0.0027150926180183887;0.006677876226603985
0.0262298583984375;0.0668487548828125;-1.0092620849609375;0.04355360195040703;0.0027150926180183887;0.006677876226603985
0.0262298583984375;0.0668487548828125;-1.0092620849609375;0.037275467067956924;0.012679043225944042;0.0059745353646576405
0.0262298583984375;0.0668487548828125;-1.0092620849609375;0.037275467067956924;0.012679043225944042;0.0059745353646576405
0.0258026123046875;0.0651702880859375;-1.005889892578125;0.037275467067956924;0.012679043225944042;0.0059745353646576405
0.0258026123046875;0.0651702880859375;-1.005889892578125;0.037275467067956924;0.012679043225944042;0.0059745353646576405
0.0258026123046875;0.0651702880859375;-1.005889892578125;0.03500672057271004;0.014068680815398693;0.0036048549227416515
0.0258026123046875;0.0651702880859375;-1.005889892578125;0.03500672057271004;0.014068680815398693;0.0036048549227416515
0.0258026123046875;0.0651702880859375;-1.005889892578125;0.03500672057271004;0.014068680815398693;0.0036048549227416515
0.0256195068359375;0.0642852783203125;-1.0056610107421875;0.03500672057271004;0.014068680815398693;0.0036048549227416515
0.0256195068359375;0.0642852783203125;-1.0056610107421875;0.03500672057271004;0.014068680815398693;0.0036048549227416515
0.0256195068359375;0.0642852783203125;-1.0056610107421875;0.04651850089430809;0.0035001926589757204;-0.0005067995516583323
0.0256195068359375;0.0642852783203125;-1.0056610107421875;0.04651850089430809;0.0035001926589757204;-0.0005067995516583323
0.0256195068359375;0.0642852783203125;-1.0056610107421875;0.04651850089430809;0.0035001926589757204;-0.0005067995516583323
0.027099609375;0.0652008056640625;-1.01507568359375;0.04651850089430809;0.0035001926589757204;-0.0005067995516583323
0.027099609375;0.0652008056640625;-1.01507568359375;0.04651850089430809;0.0035001926589757204;-0.0005067995516583323
0.027099609375;0.0652008056640625;-1.01507568359375;0.05462969094514847;-0.002415487077087164;0.0004926847759634256
0.027099609375;0.0652008056640625;-1.01507568359375;0.05462969094514847;-0.002415487077087164;0.0004926847759634256
0.027099609375;0.0652008056640625;-1.01507568359375;0.05462969094514847;-0.002415487077087164;0.0004926847759634256
0.02923583984375;0.065185546875;-1.016387939453125;0.05462969094514847;-0.002415487077087164;0.0004926847759634256
0.02923583984375;0.065185546875;-1.016387939453125;0.05462969094514847;-0.002415487077087164;0.0004926847759634256
0.02923583984375;0.065185546875;-1.016387939453125;0.05295509472489357;0.006569219287484884;-3.6485307646216825e-05
0.02923583984375;0.065185546875;-1.016387939453125;0.05295509472489357;0.006569219287484884;-3.6485307646216825e-05
0.02923583984375;0.065185546875;-1.016387939453125;0.05295509472489357;0.006569219287484884;-3.6485307646216825e-05
0.0309600830078125;0.0648956298828125;-1.0095977783203125;0.05295509472489357;0.006569219287484884;-3.6485307646216825e-05
0.0309600830078125;0.0648956298828125;-1.0095977783203125;0.05295509472489357;0.006569219287484884;-3.6485307646216825e-05
0.0309600830078125;0.0648956298828125;-1.0095977783203125;0.04619838669896126;0.003486344125121832;-0.0015779229579493403
0.0309600830078125;0.0648956298828125;-1.0095977783203125;0.04619838669896126;0.003486344125121832;-0.0015779229579493403
0.0309600830078125;0.0648956298828125;-1.0095977783203125;0.04619838669896126;0.003486344125121832;-0.0015779229579493403
0.0321197509765625;0.0653839111328125;-1.008392333984375;0.04619838669896126;0.003486344125121832;-0.0015779229579493403
0.0321197509765625;0.0653839111328125;-1.008392333984375;0.04619838669896126;0.003486344125121832;-0.0015779229579493403
0.0321197509765625;0.0653839111328125;-1.008392333984375;0.033546507358551025;0.009063802659511566;0.0007502124644815922
0.0321197509765625;0.0653839111328125;-1.008392333984375;0.033546507358551025;0.009063802659511566;0.0007502124644815922
0.0339202880859375;0.066070556640625;-1.0109710693359375;0.033546507358551025;0.009063802659511566;0.0007502124644815922
0.0339202880859375;0.066070556640625;-1.0109710693359375;0.033546507358551025;0.009063802659511566;0.0007502124644815922
0.0339202880859375;0.066070556640625;-1.0109710693359375;0.033546507358551025;0.009063802659511566;0.0007502124644815922
0.0339202880859375;0.066070556640625;-1.0109710693359375;0.008903480134904385;0.030946198850870132;0.001582716591656208
0.0339202880859375;0.066070556640625;-1.0109710693359375;0.008903480134904385;0.030946198850870132;0.001582716591656208
0.0338592529296875;0.06634521484375;-0.9925537109375;0.008903480134904385;0.030946198850870132;0.001582716591656208
0.0338592529296875;0.06634521484375;-0.9925537109375;0.008903480134904385;0.030946198850870132;0.001582716591656208
0.0338592529296875;0.06634521484375;-0.9925537109375;0.008903480134904385;0.030946198850870132;0.001582716591656208
0.0338592529296875;0.06634521484375;-0.9925537109375;-0.012095012702047825;0.03219708427786827;-0.0021824603900313377
0.0338592529296875;0.06634521484375;-0.9925537109375;-0.012095012702047825;0.03219708427786827;-0.0021824603900313377
0.0284271240234375;0.068756103515625;-0.9853057861328125;-0.012095012702047825;0.03219708427786827;-0.0021824603900313377
0.0284271240234375;0.068756103515625;-0.9853057861328125;-0.012095012702047825;0.03219708427786827;-0.0021824603900313377
0.0284271240234375;0.068756103515625;-0.9853057861328125;-0.012095012702047825;0.03219708427786827;-0.0021824603900313377
0.0284271240234375;0.068756103515625;-0.9853057861328125;0.010885670781135559;0.00654551712796092;-0.004245877731591463
0.0284271240234375;0.068756103515625;-0.9853057861328125;0.010885670781135559;0.00654551712796092;-0.004245877731591463
0.0265655517578125;0.0757904052734375;-1.0223236083984375;0.010885670781135559;0.00654551712796092;-0.004245877731591463
0.0265655517578125;0.0757904052734375;-1.0223236083984375;0.010885670781135559;0.00654551712796092;-0.004245877731591463
0.0265655517578125;0.0757904052734375;-1.0223236083984375;0.010885670781135559;0.00654551712796092;-0.004245877731591463
0.0265655517578125;0.0757904052734375;-1.0223236083984375;0.054242201149463654;-0.021504759788513184;-0.005381449591368437
0.0265655517578125;0.0757904052734375;-1.0223236083984375;0.054242201149463654;-0.021504759788513184;-0.005381449591368437
0.021728515625;0.0787200927734375;-1.0406036376953125;0.054242201149463654;-0.021504759788513184;-0.005381449591368437
0.021728515625;0.0787200927734375;-1.0406036376953125;0.054242201149463654;-0.021504759788513184;-0.005381449591368437
0.021728515625;0.0787200927734375;-1.0406036376953125;0.054242201149463654;-0.021504759788513184;-0.005381449591368437
0.021728515625;0.0787200927734375;-1.0406036376953125;0.06313316524028778;-0.01619201898574829;-0.006372678093612194
0.021728515625;0.0787200927734375;-1.0406036376953125;0.06313316524028778;-0.01619201898574829;-0.006372678093612194
0.0226898193359375;0.0797271728515625;-1.0070648193359375;0.06313316524028778;-0.01619201898574829;-0.006372678093612194
0.0226898193359375;0.0797271728515625;-1.0070648193359375;0.06313316524028778;-0.01619201898574829;-0.006372678093612194
0.0226898193359375;0.0797271728515625;-1.0070648193359375;0.06313316524028778;-0.01619201898574829;-0.006372678093612194
0.0226898193359375;0.0797271728515625;-1.0070648193359375;0.06699208170175552;0.0028570392169058323;0.0016495619202032685
0.0226898193359375;0.0797271728515625;-1.0070648193359375;0.06699208170175552;0.0028570392169058323;0.0016495619202032685
0.0308685302734375;0.0805206298828125;-0.997406005859375;0.06699208170175552;0.0028570392169058323;0.0016495619202032685
0.0308685302734375;0.0805206298828125;-0.997406005859375;0.06699208170175552;0.0028570392169058323;0.0016495619202032685
0.0308685302734375;0.0805206298828125;-0.997406005859375;0.06699208170175552;0.0028570392169058323;0.0016495619202032685
0.0308685302734375;0.0805206298828125;-0.997406005859375;0.06915377080440521;0.014447649009525776;0.00433056615293026
0.0308685302734375;0.0805206298828125;-0.997406005859375;0.06915377080440521;0.014447649009525776;0.00433056615293026
0.0341033935546875;0.077362060546875;-0.99859619140625;0.06915377080440521;0.014447649009525776;0.00433056615293026
0.0341033935546875;0.077362060546875;-0.99859619140625;0.06915377080440521;0.014447649009525776;0.00433056615293026
0.0341033935546875;0.077362060546875;-0.99859619140625;0.06915377080440521;0.014447649009525776;0.00433056615293026
0.0341033935546875;0.077362060546875;-0.99859619140625;0.07470113784074783;0.01949114352464676;0.006632602773606777
0.0341033935546875;0.077362060546875;-0.99859619140625;0.07470113784074783;0.01949114352464676;0.006632602773606777
0.03125;0.0683441162109375;-1.0033416748046875;0.07470113784074783;0.01949114352464676;0.006632602773606777
0.03125;0.0683441162109375;-1.0033416748046875;0.07470113784074783;0.01949114352464676;0.006632602773606777
0.03125;0.0683441162109375;-1.0033416748046875;0.07470113784074783;0.01949114352464676;0.006632602773606777
0.03125;0.0683441162109375;-1.0033416748046875;0.092592254281044;0.018039986491203308;0.01372353546321392
0.03125;0.0683441162109375;-1.0033416748046875;0.092592254281044;0.018039986491203308;0.01372353546321392
0.0302581787109375;0.059844970703125;-1.0132904052734375;0.092592254281044;0.018039986491203308;0.01372353546321392
0.0302581787109375;0.059844970703125;-1.0132904052734375;0.092592254281044;0.018039986491203308;0.01372353546321392
0.0302581787109375;0.059844970703125;-1.0132904052734375;0.092592254281044;0.018039986491203308;0.01372353546321392
0.0302581787109375;0.059844970703125;-1.0132904052734375;0.12703357636928558;0.011938950978219509;0.012245480902493
0.0302581787109375;0.059844970703125;-1.0132904052734375;0.12703357636928558;0.011938950978219509;0.012245480902493
0.0332794189453125;0.055267333984375;-1.0287017822265625;0.12703357636928558;0.011938950978219509;0.012245480902493
0.0332794189453125;0.055267333984375;-1.0287017822265625;0.12703357636928558;0.011938950978219509;0.012245480902493
0.0332794189453125;0.055267333984375;-1.0287017822265625;0.12703357636928558;0.011938950978219509;0.012245480902493
0.0332794189453125;0.055267333984375;-1.0287017822265625;0.13440227508544922;0.01483460608869791;0.011859322898089886
0.0332794189453125;0.055267333984375;-1.0287017822265625;0.13440227508544922;0.01483460608869791;0.011859322898089886
0.035797119140625;0.0517730712890625;-1.0365753173828125;0.13440227508544922;0.01483460608869791;0.011859322898089886
0.035797119140625;0.0517730712890625;-1.0365753173828125;0.13440227508544922;0.01483460608869791;0.011859322898089886
0.035797119140625;0.0517730712890625;-1.0365753173828125;0.13440227508544922;0.01483460608869791;0.011859322898089886
0.035797119140625;0.0517730712890625;-1.0365753173828125;0.11180216819047928;0.011302988044917583;0.009582053869962692
0.035797119140625;0.0517730712890625;-1.0365753173828125;0.11180216819047928;0.011302988044917583;0.009582053869962692
0.0315399169921875;0.05059814453125;-1.0234527587890625;0.11180216819047928;0.011302988044917583;0.009582053869962692
0.0315399169921875;0.05059814453125;-1.0234527587890625;0.11180216819047928;0.011302988044917583;0.009582053869962692
0.0315399169921875;0.05059814453125;-1.0234527587890625;0.11180216819047928;0.011302988044917583;0.009582053869962692
0.0315399169921875;0.05059814453125;-1.0234527587890625;0.07149362564086914;0.012044678442180157;0.005934055428951979
0.0315399169921875;0.05059814453125;-1.0234527587890625;0.07149362564086914;0.012044678442180157;0.005934055428951979
0.029754638671875;0.0478057861328125;-1.009002685546875;0.07149362564086914;0.012044678442180157;0.005934055428951979
0.029754638671875;0.0478057861328125;-1.009002685546875;0.07149362564086914;0.012044678442180157;0.005934055428951979
0.029754638671875;0.0478057861328125;-1.009002685546875;0.07149362564086914;0.012044678442180157;0.005934055428951979
0.029754638671875;0.0478057861328125;-1.009002685546875;0.03888002038002014;0.009441439062356949;0.0017427726415917277
0.029754638671875;0.0478057861328125;-1.009002685546875;0.03888002038002014;0.009441439062356949;0.0017427726415917277
0.0301513671875;0.0468292236328125;-1.0068817138671875;0.03888002038002014;0.009441439062356949;0.0017427726415917277
0.0301513671875;0.0468292236328125;-1.0068817138671875;0.03888002038002014;0.009441439062356949;0.0017427726415917277
0.0301513671875;0.0468292236328125;-1.0068817138671875;0.03888002038002014;0.009441439062356949;0.0017427726415917277
0.0301513671875;0.0468292236328125;-1.0068817138671875;0.017117202281951904;0.010092315264046192;-0.00022317290131468326
0.0301513671875;0.0468292236328125;-1.0068817138671875;0.017117202281951904;0.010092315264046192;-0.00022317290131468326
0.0324859619140625;0.0493927001953125;-1.0102081298828125;0.017117202281951904;0.010092315264046192;-0.00022317290131468326
0.0324859619140625;0.0493927001953125;-1.0102081298828125;0.017117202281951904;0.010092315264046192;-0.00022317290131468326
0.0324859619140625;0.0493927001953125;-1.0102081298828125;0.017117202281951904;0.010092315264046192;-0.00022317290131468326
0.0324859619140625;0.0493927001953125;-1.0102081298828125;0.0028061727061867714;0.005705023650079966;-0.0018341189716011286
0.0324859619140625;0.0493927001953125;-1.0102081298828125;0.0028061727061867714;0.005705023650079966;-0.0018341189716011286
0.0331878662109375;0.0546112060546875;-1.0071563720703125;0.0028061727061867714;0.005705023650079966;-0.0018341189716011286
0.0331878662109375;0.0546112060546875;-1.0071563720703125;0.0028061727061867714;0.005705023650079966;-0.0018341189716011286
0.0331878662109375;0.0546112060546875;-1.0071563720703125;0.0028061727061867714;0.005705023650079966;-0.0018341189716011286
0.0331878662109375;0.0546112060546875;-1.0071563720703125;-0.007939682342112064;-0.00014327807002700865;-0.004224305972456932
0.0331878662109375;0.0546112060546875;-1.0071563720703125;-0.007939682342112064;-0.00014327807002700865;-0.004224305972456932
0.0330810546875;0.061187744140625;-1.0013580322265625;-0.007939682342112064;-0.00014327807002700865;-0.004224305972456932
0.0330810546875;0.061187744140625;-1.0013580322265625;-0.007939682342112064;-0.00014327807002700865;-0.004224305972456932
0.0330810546875;0.061187744140625;-1.0013580322265625;-0.007939682342112064;-0.00014327807002700865;-0.004224305972456932
0.0330810546875;0.061187744140625;-1.0013580322265625;-0.012014850974082947;0.0038695731200277805;-0.008382299914956093
0.0330810546875;0.061187744140625;-1.0013580322265625;-0.012014850974082947;0.0038695731200277805;-0.008382299914956093
0.0324249267578125;0.066131591796875;-1.001708984375;-0.012014850974082947;0.0038695731200277805;-0.008382299914956093
0.0324249267578125;0.066131591796875;-1.001708984375;-0.012014850974082947;0.0038695731200277805;-0.008382299914956093
0.0324249267578125;0.066131591796875;-1.001708984375;0.0002849582233466208;0.0014740596525371075;-0.0083700492978096
0.0324249267578125;0.066131591796875;-1.001708984375;0.0002849582233466208;0.0014740596525371075;-0.0083700492978096
0.0324249267578125;0.066131591796875;-1.001708984375;0.0002849582233466208;0.0014740596525371075;-0.0083700492978096
0.0327301025390625;0.0688934326171875;-1.00726318359375;0.0002849582233466208;0.0014740596525371075;-0.0083700492978096
0.0327301025390625;0.0688934326171875;-1.00726318359375;0.0002849582233466208;0.0014740596525371075;-0.0083700492978096
0.0327301025390625;0.0688934326171875;-1.00726318359375;0.0002849582233466208;0.0014740596525371075;-0.0083700492978096
0.0327301025390625;0.0688934326171875;-1.00726318359375;0.011113104410469532;0.0036602485924959183;-0.00515827676281333
0.0327301025390625;0.0688934326171875;-1.00726318359375;0.011113104410469532;0.0036602485924959183;-0.00515827676281333
0.03192138671875;0.068511962890625;-1.009429931640625;0.011113104410469532;0.0036602485924959183;-0.00515827676281333
0.03192138671875;0.068511962890625;-1.009429931640625;0.011113104410469532;0.0036602485924959183;-0.00515827676281333
0.03192138671875;0.068511962890625;-1.009429931640625;0.021678930148482323;-0.0013076120521873236;-0.005760950036346912
0.03192138671875;0.068511962890625;-1.009429931640625;0.021678930148482323;-0.0013076120521873236;-0.005760950036346912
0.03192138671875;0.068511962890625;-1.009429931640625;0.021678930148482323;-0.0013076120521873236;-0.005760950036346912
0.03143310546875;0.0679779052734375;-1.009002685546875;0.021678930148482323;-0.0013076120521873236;-0.005760950036346912
0.03143310546875;0.0679779052734375;-1.009002685546875;0.021678930148482323;-0.0013076120521873236;-0.005760950036346912
0.03143310546875;0.0679779052734375;-1.009002685546875;0.02996056154370308;-0.0070280819199979305;-0.001660480978898704
0.03143310546875;0.0679779052734375;-1.009002685546875;0.02996056154370308;-0.0070280819199979305;-0.001660480978898704
0.03143310546875;0.0679779052734375;-1.009002685546875;0.02996056154370308;-0.0070280819199979305;-0.001660480978898704
0.0323486328125;0.06646728515625;-1.010650634765625;0.02996056154370308;-0.0070280819199979305;-0.001660480978898704
0.0323486328125;0.06646728515625;-1.010650634765625;0.02996056154370308;-0.0070280819199979305;-0.001660480978898704
0.0323486328125;0.06646728515625;-1.010650634765625;0.03954474627971649;-0.01028859056532383;0.0012514194240793586
0.0323486328125;0.06646728515625;-1.010650634765625;0.03954474627971649;-0.01028859056532383;0.0012514194240793586
0.0323486328125;0.06646728515625;-1.010650634765625;0.03954474627971649;-0.01028859056532383;0.0012514194240793586
0.031219482421875;0.061553955078125;-1.0123443603515625;0.03954474627971649;-0.01028859056532383;0.0012514194240793586
0.031219482421875;0.061553955078125;-1.0123443603515625;0.03954474627971649;-0.01028859056532383;0.0012514194240793586
0.031219482421875;0.061553955078125;-1.0123443603515625;0.04906448349356651;-0.007782555650919676;0.0009435579413548112
0.031219482421875;0.061553955078125;-1.0123443603515625;0.04906448349356651;-0.007782555650919676;0.0009435579413548112
0.031219482421875;0.061553955078125;-1.0123443603515625;0.04906448349356651;-0.007782555650919676;0.0009435579413548112
0.0316009521484375;0.05853271484375;-1.0142822265625;0.04906448349356651;-0.007782555650919676;0.0009435579413548112
0.0316009521484375;0.05853271484375;-1.0142822265625;0.04906448349356651;-0.007782555650919676;0.0009435579413548112
0.0316009521484375;0.05853271484375;-1.0142822265625;0.052509814500808716;-0.008771919645369053;0.0041486723348498344
0.0316009521484375;0.05853271484375;-1.0142822265625;0.052509814500808716;-0.008771919645369053;0.0041486723348498344
0.0316009521484375;0.05853271484375;-1.0142822265625;0.052509814500808716;-0.008771919645369053;0.0041486723348498344
0.032318115234375;0.055389404296875;-1.01605224609375;0.052509814500808716;-0.008771919645369053;0.0041486723348498344
0.032318115234375;0.055389404296875;-1.01605224609375;0.052509814500808716;-0.008771919645369053;0.0041486723348498344
0.032318115234375;0.055389404296875;-1.01605224609375;0.053594253957271576;-0.010076336562633514;0.007060572504997253
0.032318115234375;0.055389404296875;-1.01605224609375;0.053594253957271576;-0.010076336562633514;0.007060572504997253
0.032318115234375;0.055389404296875;-1.01605224609375;0.053594253957271576;-0.010076336562633514;0.007060572504997253
0.0319366455078125;0.0531463623046875;-1.01519775390625;0.053594253957271576;-0.010076336562633514;0.007060572504997253
0.0319366455078125;0.0531463623046875;-1.01519775390625;0.053594253957271576;-0.010076336562633514;0.007060572504997253
0.0319366455078125;0.0531463623046875;-1.01519775390625;0.05939381942152977;-0.005135107319802046;0.008656605146825314
0.0319366455078125;0.0531463623046875;-1.01519775390625;0.05939381942152977;-0.005135107319802046;0.008656605146825314
0.0319366455078125;0.0531463623046875;-1.01519775390625;0.05939381942152977;-0.005135107319802046;0.008656605146825314
0.030975341796875;0.05096435546875;-1.0129852294921875;0.05939381942152977;-0.005135107319802046;0.008656605146825314
0.030975341796875;0.05096435546875;-1.0129852294921875;0.05939381942152977;-0.005135107319802046;0.008656605146825314
0.030975341796875;0.05096435546875;-1.0129852294921875;0.05963456630706787;-0.006335926707834005;0.007877630181610584
0.030975341796875;0.05096435546875;-1.0129852294921875;0.05963456630706787;-0.006335926707834005;0.007877630181610584
0.030975341796875;0.05096435546875;-1.0129852294921875;0.05963456630706787;-0.006335926707834005;0.007877630181610584
0.0311431884765625;0.0503997802734375;-1.012176513671875;0.05963456630706787;-0.006335926707834005;0.007877630181610584
0.0311431884765625;0.0503997802734375;-1.012176513671875;0.05963456630706787;-0.006335926707834005;0.007877630181610584
0.0311431884765625;0.0503997802734375;-1.012176513671875;0.06406420469284058;-0.0011060107499361038;0.00917245913296938
0.0311431884765625;0.0503997802734375;-1.012176513671875;0.06406420469284058;-0.0011060107499361038;0.00917245913296938
0.0311431884765625;0.0503997802734375;-1.012176513671875;0.06406420469284058;-0.0011060107499361038;0.00917245913296938
0.030853271484375;0.0504913330078125;-1.0132598876953125;0.06406420469284058;-0.0011060107499361038;0.00917245913296938
0.030853271484375;0.0504913330078125;-1.0132598876953125;0.06406420469284058;-0.0011060107499361038;0.00917245913296938
0.030853271484375;0.0504913330078125;-1.0132598876953125;0.062013834714889526;-0.0017473000334575772;0.006477074231952429
0.030853271484375;0.0504913330078125;-1.0132598876953125;0.062013834714889526;-0.0017473000334575772;0.006477074231952429
0.030853271484375;0.0504913330078125;-1.0132598876953125;0.062013834714889526;-0.0017473000334575772;0.006477074231952429
0.02984619140625;0.04888916015625;-1.0152435302734375;0.062013834714889526;-0.0017473000334575772;0.006477074231952429
0.02984619140625;0.04888916015625;-1.0152435302734375;0.062013834714889526;-0.0017473000334575772;0.006477074231952429
0.02984619140625;0.04888916015625;-1.0152435302734375;0.055155131965875626;0.0005560680292546749;0.0032780850306153297
0.02984619140625;0.04888916015625;-1.0152435302734375;0.055155131965875626;0.0005560680292546749;0.0032780850306153297
0.02984619140625;0.04888916015625;-1.0152435302734375;0.055155131965875626;0.0005560680292546749;0.0032780850306153297
0.0304412841796875;0.0481414794921875;-1.018096923828125;0.055155131965875626;0.0005560680292546749;0.0032780850306153297
0.0304412841796875;0.0481414794921875;-1.018096923828125;0.055155131965875626;0.0005560680292546749;0.0032780850306153297
0.0304412841796875;0.0481414794921875;-1.018096923828125;0.03876710310578346;0.0012785836588591337;0.0028431906830519438
0.0304412841796875;0.0481414794921875;-1.018096923828125;0.03876710310578346;0.0012785836588591337;0.0028431906830519438
0.0304412841796875;0.0481414794921875;-1.018096923828125;0.03876710310578346;0.0012785836588591337;0.0028431906830519438
0.0318450927734375;0.0483245849609375;-1.01580810546875;0.03876710310578346;0.0012785836588591337;0.0028431906830519438
0.0318450927734375;0.0483245849609375;-1.01580810546875;0.03876710310578346;0.0012785836588591337;0.0028431906830519438
0.0318450927734375;0.0483245849609375;-1.01580810546875;0.01672438532114029;0.001008805469609797;-0.00015180018090177327
0.0318450927734375;0.0483245849609375;-1.01580810546875;0.01672438532114029;0.001008805469609797;-0.00015180018090177327
0.0318450927734375;0.0483245849609375;-1.01580810546875;0.01672438532114029;0.001008805469609797;-0.00015180018090177327
0.02886962890625;0.04736328125;-1.0082550048828125;0.01672438532114029;0.001008805469609797;-0.00015180018090177327
0.02886962890625;0.04736328125;-1.0082550048828125;0.01672438532114029;0.001008805469609797;-0.00015180018090177327
0.02886962890625;0.04736328125;-1.0082550048828125;-0.01070723868906498;0.00424321461468935;-0.003216033335775137
0.02886962890625;0.04736328125;-1.0082550048828125;-0.01070723868906498;0.00424321461468935;-0.003216033335775137
0.02886962890625;0.04736328125;-1.0082550048828125;-0.01070723868906498;0.00424321461468935;-0.003216033335775137
0.0283050537109375;0.0497589111328125;-1.00396728515625;-0.01070723868906498;0.00424321461468935;-0.003216033335775137
0.0283050537109375;0.0497589111328125;-1.00396728515625;-0.01070723868906498;0.00424321461468935;-0.003216033335775137
0.0283050537109375;0.0497589111328125;-1.00396728515625;-0.01673903316259384;0.010952782817184925;-0.002641855739057064
0.0283050537109375;0.0497589111328125;-1.00396728515625;-0.01673903316259384;0.010952782817184925;-0.002641855739057064
0.0283050537109375;0.0497589111328125;-1.00396728515625;-0.01673903316259384;0.010952782817184925;-0.002641855739057064
0.0289306640625;0.0506591796875;-1.005706787109375;-0.01673903316259384;0.010952782817184925;-0.002641855739057064
0.0289306640625;0.0506591796875;-1.005706787109375;-0.01673903316259384;0.010952782817184925;-0.002641855739057064
0.0289306640625;0.0506591796875;-1.005706787109375;-0.00833968911319971;0.005340436939150095;-0.0011550129856914282
0.0289306640625;0.0506591796875;-1.005706787109375;-0.00833968911319971;0.005340436939150095;-0.0011550129856914282
0.0289306640625;0.0506591796875;-1.005706787109375;-0.00833968911319971;0.005340436939150095;-0.0011550129856914282
0.0297088623046875;0.0519561767578125;-1.0088958740234375;-0.00833968911319971;0.005340436939150095;-0.0011550129856914282
0.0297088623046875;0.0519561767578125;-1.0088958740234375;-0.00833968911319971;0.005340436939150095;-0.0011550129856914282
0.0297088623046875;0.0519561767578125;-1.0088958740234375;0.0019776634871959686;0.002916161436587572;-0.0007281082216650248
0.0297088623046875;0.0519561767578125;-1.0088958740234375;0.0019776634871959686;0.002916161436587572;-0.0007281082216650248
0.0297088623046875;0.0519561767578125;-1.0088958740234375;0.0019776634871959686;0.002916161436587572;-0.0007281082216650248
0.029754638671875;0.0542144775390625;-1.0062713623046875;0.0019776634871959686;0.002916161436587572;-0.0007281082216650248
0.029754638671875;0.0542144775390625;-1.0062713623046875;0.0019776634871959686;0.002916161436587572;-0.0007281082216650248
0.029754638671875;0.0542144775390625;-1.0062713623046875;0.00956793874502182;0.0049675945192575455;0.002627208363264799
0.029754638671875;0.0542144775390625;-1.0062713623046875;0.00956793874502182;0.0049675945192575455;0.002627208363264799
0.029754638671875;0.0542144775390625;-1.0062713623046875;0.00956793874502182;0.0049675945192575455;0.002627208363264799
0.030426025390625;0.0551910400390625;-1.006988525390625;0.00956793874502182;0.0049675945192575455;0.002627208363264799
0.030426025390625;0.0551910400390625;-1.006988525390625;0.00956793874502182;0.0049675945192575455;0.002627208363264799
0.030426025390625;0.0551910400390625;-1.006988525390625;0.014631673693656921;0.007839281111955643;0.001121989800594747
0.030426025390625;0.0551910400390625;-1.006988525390625;0.014631673693656921;0.007839281111955643;0.001121989800594747
0.030426025390625;0.0551910400390625;-1.006988525390625;0.014631673693656921;0.007839281111955643;0.001121989800594747
0.0311431884765625;0.0537872314453125;-1.0096435546875;0.014631673693656921;0.007839281111955643;0.001121989800594747
0.0311431884765625;0.0537872314453125;-1.0096435546875;0.014631673693656921;0.007839281111955643;0.001121989800594747
0.0311431884765625;0.0537872314453125;-1.0096435546875;0.018933743238449097;0.0018823222490027547;0.003236273303627968
0.0311431884765625;0.0537872314453125;-1.0096435546875;0.018933743238449097;0.0018823222490027547;0.003236273303627968
0.0311431884765625;0.0537872314453125;-1.0096435546875;0.018933743238449097;0.0018823222490027547;0.003236273303627968
0.03106689453125;0.0511322021484375;-1.0149383544921875;0.018933743238449097;0.0018823222490027547;0.003236273303627968
0.03106689453125;0.0511322021484375;-1.0149383544921875;0.018933743238449097;0.0018823222490027547;0.003236273303627968
0.03106689453125;0.0511322021484375;-1.0149383544921875;0.020909808576107025;-0.0019632822368294;0.0012535499408841133
0.03106689453125;0.0511322021484375;-1.0149383544921875;0.020909808576107025;-0.0019632822368294;0.0012535499408841133
0.0305633544921875;0.0473175048828125;-1.0202789306640625;0.020909808576107025;-0.0019632822368294;0.0012535499408841133
0.0305633544921875;0.0473175048828125;-1.0202789306640625;0.020909808576107025;-0.0019632822368294;0.0012535499408841133
0.0305633544921875;0.0473175048828125;-1.0202789306640625;0.020909808576107025;-0.0019632822368294;0.0012535499408841133
0.0305633544921875;0.0473175048828125;-1.0202789306640625;0.023847542703151703;-0.008215053007006645;0.0020327907986938953
0.0305633544921875;0.0473175048828125;-1.0202789306640625;0.023847542703151703;-0.008215053007006645;0.0020327907986938953
0.030670166015625;0.046112060546875;-1.0216522216796875;0.023847542703151703;-0.008215053007006645;0.0020327907986938953
0.030670166015625;0.046112060546875;-1.0216522216796875;0.023847542703151703;-0.008215053007006645;0.0020327907986938953
0.030670166015625;0.046112060546875;-1.0216522216796875;0.023847542703151703;-0.008215053007006645;0.0020327907986938953
0.030670166015625;0.046112060546875;-1.0216522216796875;0.02304486557841301;-0.008335161954164505;0.007187605369836092
0.030670166015625;0.046112060546875;-1.0216522216796875;0.02304486557841301;-0.008335161954164505;0.007187605369836092
0.0325469970703125;0.0445556640625;-1.0194549560546875;0.02304486557841301;-0.008335161954164505;0.007187605369836092
0.0325469970703125;0.0445556640625;-1.0194549560546875;0.02304486557841301;-0.008335161954164505;0.007187605369836092
0.0325469970703125;0.0445556640625;-1.0194549560546875;0.02304486557841301;-0.008335161954164505;0.007187605369836092
0.0325469970703125;0.0445556640625;-1.0194549560546875;0.019874637946486473;-0.013741911388933659;0.003471164032816887
0.0325469970703125;0.0445556640625;-1.0194549560546875;0.019874637946486473;-0.013741911388933659;0.003471164032816887
0.0334014892578125;0.045166015625;-1.016326904296875;0.019874637946486473;-0.013741911388933659;0.003471164032816887
0.0334014892578125;0.045166015625;-1.016326904296875;0.019874637946486473;-0.013741911388933659;0.003471164032816887
0.0334014892578125;0.045166015625;-1.016326904296875;0.019874637946486473;-0.013741911388933659;0.003471164032816887
0.0334014892578125;0.045166015625;-1.016326904296875;0.014427941292524338;-0.011290204711258411;0.0046152579598128796
0.0334014892578125;0.045166015625;-1.016326904296875;0.014427941292524338;-0.011290204711258411;0.0046152579598128796
0.0346527099609375;0.04718017578125;-1.0157012939453125;0.014427941292524338;-0.011290204711258411;0.0046152579598128796
0.0346527099609375;0.04718017578125;-1.0157012939453125;0.014427941292524338;-0.011290204711258411;0.0046152579598128796
0.0346527099609375;0.04718017578125;-1.0157012939453125;0.014427941292524338;-0.011290204711258411;0.0046152579598128796
0.0346527099609375;0.04718017578125;-1.0157012939453125;0.013174924068152905;-0.014878548681735992;0.0035891421139240265
0.0346527099609375;0.04718017578125;-1.0157012939453125;0.013174924068152905;-0.014878548681735992;0.0035891421139240265
0.0341644287109375;0.0487823486328125;-1.0172119140625;0.013174924068152905;-0.014878548681735992;0.0035891421139240265
0.0341644287109375;0.0487823486328125;-1.0172119140625;0.013174924068152905;-0.014878548681735992;0.0035891421139240265
0.0341644287109375;0.0487823486328125;-1.0172119140625;0.013174924068152905;-0.014878548681735992;0.0035891421139240265
0.0341644287109375;0.0487823486328125;-1.0172119140625;0.010402839630842209;-0.011542405933141708;0.003400324145331979
0.0341644287109375;0.0487823486328125;-1.0172119140625;0.010402839630842209;-0.011542405933141708;0.003400324145331979
0.034027099609375;0.0510406494140625;-1.015106201171875;0.010402839630842209;-0.011542405933141708;0.003400324145331979
0.034027099609375;0.0510406494140625;-1.015106201171875;0.010402839630842209;-0.011542405933141708;0.003400324145331979
0.034027099609375;0.0510406494140625;-1.015106201171875;0.010402839630842209;-0.011542405933141708;0.003400324145331979
0.034027099609375;0.0510406494140625;-1.015106201171875;0.006737797521054745;-0.010861435905098915;0.003916444722563028
0.034027099609375;0.0510406494140625;-1.015106201171875;0.006737797521054745;-0.010861435905098915;0.003916444722563028
0.0333709716796875;0.0533294677734375;-1.011810302734375;0.006737797521054745;-0.010861435905098915;0.003916444722563028
0.0333709716796875;0.0533294677734375;-1.011810302734375;0.006737797521054745;-0.010861435905098915;0.003916444722563028
0.0333709716796875;0.0533294677734375;-1.011810302734375;0.006737797521054745;-0.010861435905098915;0.003916444722563028
0.0333709716796875;0.0533294677734375;-1.011810302734375;0.003111637430265546;-0.007397196255624294;-0.0003920173039659858
0.0333709716796875;0.0533294677734375;-1.011810302734375;0.003111637430265546;-0.007397196255624294;-0.0003920173039659858
0.0322723388671875;0.053436279296875;-1.0097503662109375;0.003111637430265546;-0.007397196255624294;-0.0003920173039659858
0.0322723388671875;0.053436279296875;-1.0097503662109375;0.003111637430265546;-0.007397196255624294;-0.0003920173039659858
0.0322723388671875;0.053436279296875;-1.0097503662109375;0.003111637430265546;-0.007397196255624294;-0.0003920173039659858
0.0322723388671875;0.053436279296875;-1.0097503662109375;0.006256564520299435;-0.00743208359926939;-0.003349990351125598
0.0322723388671875;0.053436279296875;-1.0097503662109375;0.006256564520299435;-0.00743208359926939;-0.003349990351125598
0.033172607421875;0.054290771484375;-1.0108642578125;0.006256564520299435;-0.00743208359926939;-0.003349990351125598
0.033172607421875;0.054290771484375;-1.0108642578125;0.006256564520299435;-0.00743208359926939;-0.003349990351125598
0.033172607421875;0.054290771484375;-1.0108642578125;0.006256564520299435;-0.00743208359926939;-0.003349990351125598
0.033172607421875;0.054290771484375;-1.0108642578125;0.00974477268755436;-0.006097307428717613;-0.003829359309747815
0.033172607421875;0.054290771484375;-1.0108642578125;0.00974477268755436;-0.006097307428717613;-0.003829359309747815
0.0334320068359375;0.0554962158203125;-1.0119171142578125;0.00974477268755436;-0.006097307428717613;-0.003829359309747815
0.0334320068359375;0.0554962158203125;-1.0119171142578125;0.00974477268755436;-0.006097307428717613;-0.003829359309747815
0.0334320068359375;0.0554962158203125;-1.0119171142578125;0.00974477268755436;-0.006097307428717613;-0.003829359309747815
0.0334320068359375;0.0554962158203125;-1.0119171142578125;0.011336011812090874;-0.002225070958957076;-0.0036155073903501034
0.0334320068359375;0.0554962158203125;-1.0119171142578125;0.011336011812090874;-0.002225070958957076;-0.0036155073903501034
0.03271484375;0.0558319091796875;-1.0091705322265625;0.011336011812090874;-0.002225070958957076;-0.0036155073903501034
0.03271484375;0.0558319091796875;-1.0091705322265625;0.011336011812090874;-0.002225070958957076;-0.0036155073903501034
0.03271484375;0.0558319091796875;-1.0091705322265625;0.011336011812090874;-0.002225070958957076;-0.0036155073903501034
0.03271484375;0.0558319091796875;-1.0091705322265625;0.01149659976363182;-0.00612340634688735;-0.0029526466969400644
0.03271484375;0.0558319091796875;-1.0091705322265625;0.01149659976363182;-0.00612340634688735;-0.0029526466969400644
0.0315399169921875;0.052764892578125;-1.0092926025390625;0.01149659976363182;-0.00612340634688735;-0.0029526466969400644
0.0315399169921875;0.052764892578125;-1.0092926025390625;0.01149659976363182;-0.00612340634688735;-0.0029526466969400644
0.0315399169921875;0.052764892578125;-1.0092926025390625;0.01149659976363182;-0.00612340634688735;-0.0029526466969400644
0.0315399169921875;0.052764892578125;-1.0092926025390625;0.015265505760908127;-0.0030421288684010506;-0.003740143496543169
0.0315399169921875;0.052764892578125;-1.0092926025390625;0.015265505760908127;-0.0030421288684010506;-0.003740143496543169
0.0318603515625;0.051422119140625;-1.0104217529296875;0.015265505760908127;-0.0030421288684010506;-0.003740143496543169
0.0318603515625;0.051422119140625;-1.0104217529296875;0.015265505760908127;-0.0030421288684010506;-0.003740143496543169
0.0318603515625;0.051422119140625;-1.0104217529296875;0.015265505760908127;-0.0030421288684010506;-0.003740143496543169
0.0318603515625;0.051422119140625;-1.0104217529296875;0.016280170530080795;-0.001157143502496183;-0.001975799212232232
0.0318603515625;0.051422119140625;-1.0104217529296875;0.016280170530080795;-0.001157143502496183;-0.001975799212232232
0.0316925048828125;0.0506134033203125;-1.009765625;0.016280170530080795;-0.001157143502496183;-0.001975799212232232
0.0316925048828125;0.0506134033203125;-1.009765625;0.016280170530080795;-0.001157143502496183;-0.001975799212232232
0.0316925048828125;0.0506134033203125;-1.009765625;0.016280170530080795;-0.001157143502496183;-0.001975799212232232
0.0316925048828125;0.0506134033203125;-1.009765625;0.012256133370101452;-0.0015427692560479045;0.003347327234223485
0.0316925048828125;0.0506134033203125;-1.009765625;0.012256133370101452;-0.0015427692560479045;0.003347327234223485
0.0307159423828125;0.0484771728515625;-1.0102996826171875;0.012256133370101452;-0.0015427692560479045;0.003347327234223485
0.0307159423828125;0.0484771728515625;-1.0102996826171875;0.012256133370101452;-0.0015427692560479045;0.003347327234223485
0.0307159423828125;0.0484771728515625;-1.0102996826171875;0.012256133370101452;-0.0015427692560479045;0.003347327234223485
0.0307159423828125;0.0484771728515625;-1.0102996826171875;0.01560878660529852;0.004305799026042223;0.000621848099399358
0.0307159423828125;0.0484771728515625;-1.0102996826171875;0.01560878660529852;0.004305799026042223;0.000621848099399358
0.0316925048828125;0.0473785400390625;-1.0109710693359375;0.01560878660529852;0.004305799026042223;0.000621848099399358
0.0316925048828125;0.0473785400390625;-1.0109710693359375;0.01560878660529852;0.004305799026042223;0.000621848099399358
0.0316925048828125;0.0473785400390625;-1.0109710693359375;0.01560878660529852;0.004305799026042223;0.000621848099399358
0.0316925048828125;0.0473785400390625;-1.0109710693359375;0.016685768961906433;-1.6777914424892515e-05;0.0012423646403476596
0.0316925048828125;0.0473785400390625;-1.0109710693359375;0.016685768961906433;-1.6777914424892515e-05;0.0012423646403476596
0.0308074951171875;0.0458984375;-1.0127410888671875;0.016685768961906433;-1.6777914424892515e-05;0.0012423646403476596
0.0308074951171875;0.0458984375;-1.0127410888671875;0.016685768961906433;-1.6777914424892515e-05;0.0012423646403476596
0.0308074951171875;0.0458984375;-1.0127410888671875;0.016685768961906433;-1.6777914424892515e-05;0.0012423646403476596
0.0308074951171875;0.0458984375;-1.0127410888671875;0.013247095979750156;0.002263953210785985;0.0016961672808974981
0.0308074951171875;0.0458984375;-1.0127410888671875;0.013247095979750156;0.002263953210785985;0.0016961672808974981
0.03070068359375;0.0460052490234375;-1.0125885009765625;0.013247095979750156;0.002263953210785985;0.0016961672808974981
0.03070068359375;0.0460052490234375;-1.0125885009765625;0.013247095979750156;0.002263953210785985;0.0016961672808974981
0.03070068359375;0.0460052490234375;-1.0125885009765625;0.011714712716639042;-0.0024285365361720324;-0.00011345066013745964
0.03070068359375;0.0460052490234375;-1.0125885009765625;0.011714712716639042;-0.0024285365361720324;-0.00011345066013745964
0.03070068359375;0.0460052490234375;-1.0125885009765625;0.011714712716639042;-0.0024285365361720324;-0.00011345066013745964
0.0302276611328125;0.0457611083984375;-1.0128631591796875;0.011714712716639042;-0.0024285365361720324;-0.00011345066013745964
0.0302276611328125;0.0457611083984375;-1.0128631591796875;0.011714712716639042;-0.0024285365361720324;-0.00011345066013745964
0.0302276611328125;0.0457611083984375;-1.0128631591796875;0.012032960541546345;-0.0020042951218783855;-0.0004117247008252889
0.0302276611328125;0.0457611083984375;-1.0128631591796875;0.012032960541546345;-0.0020042951218783855;-0.0004117247008252889
0.0302276611328125;0.0457611083984375;-1.0128631591796875;0.012032960541546345;-0.0020042951218783855;-0.0004117247008252889
0.0306854248046875;0.0458984375;-1.0137176513671875;0.012032960541546345;-0.0020042951218783855;-0.0004117247008252889
0.0306854248046875;0.0458984375;-1.0137176513671875;0.012032960541546345;-0.0020042951218783855;-0.0004117247008252889
0.0306854248046875;0.0458984375;-1.0137176513671875;0.007613711059093475;-0.0017651431262493134;0.0017699368763715029
0.0306854248046875;0.0458984375;-1.0137176513671875;0.007613711059093475;-0.0017651431262493134;0.0017699368763715029
0.0306854248046875;0.0458984375;-1.0137176513671875;0.007613711059093475;-0.0017651431262493134;0.0017699368763715029
0.03094482421875;0.046722412109375;-1.013519287109375;0.007613711059093475;-0.0017651431262493134;0.0017699368763715029
0.03094482421875;0.046722412109375;-1.013519287109375;0.007613711059093475;-0.0017651431262493134;0.0017699368763715029
0.03094482421875;0.046722412109375;-1.013519287109375;0.005058674607425928;-0.00045140579459257424;-0.00133877107873559
0.03094482421875;0.046722412109375;-1.013519287109375;0.005058674607425928;-0.00045140579459257424;-0.00133877107873559
0.03094482421875;0.046722412109375;-1.013519287109375;0.005058674607425928;-0.00045140579459257424;-0.00133877107873559
0.0308990478515625;0.0468902587890625;-1.0109405517578125;0.005058674607425928;-0.00045140579459257424;-0.00133877107873559
0.0308990478515625;0.0468902587890625;-1.0109405517578125;0.005058674607425928;-0.00045140579459257424;-0.00133877107873559
0.0308990478515625;0.0468902587890625;-1.0109405517578125;0.001255946815945208;0.0004719121498055756;-0.0006090649403631687
0.0308990478515625;0.0468902587890625;-1.0109405517578125;0.001255946815945208;0.0004719121498055756;-0.0006090649403631687
0.0308990478515625;0.0468902587890625;-1.0109405517578125;0.001255946815945208;0.0004719121498055756;-0.0006090649403631687
0.031494140625;0.04815673828125;-1.0125274658203125;0.001255946815945208;0.0004719121498055756;-0.0006090649403631687
0.031494140625;0.04815673828125;-1.0125274658203125;0.001255946815945208;0.0004719121498055756;-0.0006090649403631687
0.031494140625;0.04815673828125;-1.0125274658203125;-2.0772657080669887e-05;-0.0023555660154670477;-0.0014716627774760127
0.031494140625;0.04815673828125;-1.0125274658203125;-2.0772657080669887e-05;-0.0023555660154670477;-0.0014716627774760127
0.031494140625;0.04815673828125;-1.0125274658203125;-2.0772657080669887e-05;-0.0023555660154670477;-0.0014716627774760127
0.0317840576171875;0.0485076904296875;-1.0139007568359375;-2.0772657080669887e-05;-0.0023555660154670477;-0.0014716627774760127
0.0317840576171875;0.0485076904296875;-1.0139007568359375;-2.0772657080669887e-05;-0.0023555660154670477;-0.0014716627774760127
0.0317840576171875;0.0485076904296875;-1.0139007568359375;0.001612544059753418;-0.006423011887818575;0.00035233621019870043
0.0317840576171875;0.0485076904296875;-1.0139007568359375;0.001612544059753418;-0.006423011887818575;0.00035233621019870043
0.0317840576171875;0.0485076904296875;-1.0139007568359375;0.001612544059753418;-0.006423011887818575;0.00035233621019870043
0.0311737060546875;0.0480499267578125;-1.015228271484375;0.001612544059753418;-0.006423011887818575;0.00035233621019870043
0.0311737060546875;0.0480499267578125;-1.015228271484375;0.001612544059753418;-0.006423011887818575;0.00035233621019870043
0.0311737060546875;0.0480499267578125;-1.015228271484375;0.002357163932174444;-0.009042496792972088;0.0001150485550169833
0.0311737060546875;0.0480499267578125;-1.015228271484375;0.002357163932174444;-0.009042496792972088;0.0001150485550169833
0.0311737060546875;0.0480499267578125;-1.015228271484375;0.002357163932174444;-0.009042496792972088;0.0001150485550169833
0.0305023193359375;0.048553466796875;-1.01629638671875;0.002357163932174444;-0.009042496792972088;0.0001150485550169833
0.0305023193359375;0.048553466796875;-1.01629638671875;0.002357163932174444;-0.009042496792972088;0.0001150485550169833
0.0305023193359375;0.048553466796875;-1.01629638671875;0.00392869533970952;-0.012240687385201454;0.00024314661277458072
0.0305023193359375;0.048553466796875;-1.01629638671875;0.00392869533970952;-0.012240687385201454;0.00024314661277458072
0.0305023193359375;0.048553466796875;-1.01629638671875;0.00392869533970952;-0.012240687385201454;0.00024314661277458072
0.030487060546875;0.04736328125;-1.0151824951171875;0.00392869533970952;-0.012240687385201454;0.00024314661277458072
0.030487060546875;0.04736328125;-1.0151824951171875;0.00392869533970952;-0.012240687385201454;0.00024314661277458072
0.030487060546875;0.04736328125;-1.0151824951171875;-0.0013345100451260805;-0.00863263662904501;-0.002177666872739792
0.030487060546875;0.04736328125;-1.0151824951171875;-0.0013345100451260805;-0.00863263662904501;-0.002177666872739792
0.030487060546875;0.04736328125;-1.0151824951171875;-0.0013345100451260805;-0.00863263662904501;-0.002177666872739792
0.0305633544921875;0.0463714599609375;-1.0114898681640625;-0.0013345100451260805;-0.00863263662904501;-0.002177666872739792
0.0305633544921875;0.0463714599609375;-1.0114898681640625;-0.0013345100451260805;-0.00863263662904501;-0.002177666872739792
0.0305633544921875;0.0463714599609375;-1.0114898681640625;-0.002398176584392786;-0.005628324579447508;0.0010125337867066264
0.0305633544921875;0.0463714599609375;-1.0114898681640625;-0.002398176584392786;-0.005628324579447508;0.0010125337867066264
0.0305633544921875;0.0463714599609375;-1.0114898681640625;-0.002398176584392786;-0.005628324579447508;0.0010125337867066264
0.0321502685546875;0.0472412109375;-1.0115814208984375;-0.002398176584392786;-0.005628324579447508;0.0010125337867066264
0.0321502685546875;0.0472412109375;-1.0115814208984375;-0.002398176584392786;-0.005628324579447508;0.0010125337867066264
0.0321502685546875;0.0472412109375;-1.0115814208984375;-0.0038988678716123104;-0.010814031586050987;0.0011994877131655812
0.0321502685546875;0.0472412109375;-1.0115814208984375;-0.0038988678716123104;-0.010814031586050987;0.0011994877131655812
0.0321502685546875;0.0472412109375;-1.0115814208984375;-0.0038988678716123104;-0.010814031586050987;0.0011994877131655812
0.0339508056640625;0.0474090576171875;-1.0149688720703125;-0.0038988678716123104;-0.010814031586050987;0.0011994877131655812
0.0339508056640625;0.0474090576171875;-1.0149688720703125;-0.0038988678716123104;-0.010814031586050987;0.0011994877131655812
0.0339508056640625;0.0474090576171875;-1.0149688720703125;-0.008027832955121994;-0.008740761317312717;0.0017994979862123728
0.0339508056640625;0.0474090576171875;-1.0149688720703125;-0.008027832955121994;-0.008740761317312717;0.0017994979862123728
0.0339508056640625;0.0474090576171875;-1.0149688720703125;-0.008027832955121994;-0.008740761317312717;0.0017994979862123728
0.03289794921875;0.04718017578125;-1.016204833984375;-0.008027832955121994;-0.008740761317312717;0.0017994979862123728
0.03289794921875;0.04718017578125;-1.016204833984375;-0.008027832955121994;-0.008740761317312717;0.0017994979862123728
0.03289794921875;0.04718017578125;-1.016204833984375;-0.018543856218457222;0.0007619303651154041;0.002091913018375635
0.03289794921875;0.04718017578125;-1.016204833984375;-0.018543856218457222;0.0007619303651154041;0.002091913018375635
0.03289794921875;0.04718017578125;-1.016204833984375;-0.018543856218457222;0.0007619303651154041;0.002091913018375635
0.0318603515625;0.046905517578125;-1.0122833251953125;-0.018543856218457222;0.0007619303651154041;0.002091913018375635
0.0318603515625;0.046905517578125;-1.0122833251953125;-0.018543856218457222;0.0007619303651154041;0.002091913018375635
0.0318603515625;0.046905517578125;-1.0122833251953125;-0.02371651493012905;0.007150321267545223;0.0004495415778364986
0.0318603515625;0.046905517578125;-1.0122833251953125;-0.02371651493012905;0.007150321267545223;0.0004495415778364986
0.0318603515625;0.046905517578125;-1.0122833251953125;-0.02371651493012905;0.007150321267545223;0.0004495415778364986
0.0304107666015625;0.047943115234375;-1.006317138671875;-0.02371651493012905;0.007150321267545223;0.0004495415778364986
0.0304107666015625;0.047943115234375;-1.006317138671875;-0.02371651493012905;0.007150321267545223;0.0004495415778364986
0.0304107666015625;0.047943115234375;-1.006317138671875;-0.022916501387953758;0.001335841603577137;0.0009443568997085094
0.0304107666015625;0.047943115234375;-1.006317138671875;-0.022916501387953758;0.001335841603577137;0.0009443568997085094
0.0304107666015625;0.047943115234375;-1.006317138671875;-0.022916501387953758;0.001335841603577137;0.0009443568997085094
0.028106689453125;0.048828125;-1.0096282958984375;-0.022916501387953758;0.001335841603577137;0.0009443568997085094
0.028106689453125;0.048828125;-1.0096282958984375;-0.022916501387953758;0.001335841603577137;0.0009443568997085094
0.028106689453125;0.048828125;-1.0096282958984375;-0.021276792511343956;-0.005937517620623112;0.00024154871061909944
0.028106689453125;0.048828125;-1.0096282958984375;-0.021276792511343956;-0.005937517620623112;0.00024154871061909944
0.028106689453125;0.048828125;-1.0096282958984375;-0.021276792511343956;-0.005937517620623112;0.00024154871061909944
0.02838134765625;0.04852294921875;-1.0111236572265625;-0.021276792511343956;-0.005937517620623112;0.00024154871061909944
0.02838134765625;0.04852294921875;-1.0111236572265625;-0.021276792511343956;-0.005937517620623112;0.00024154871061909944
0.02838134765625;0.04852294921875;-1.0111236572265625;-0.009372728876769543;-0.0009009473724290729;-0.0018809906905516982
0.02838134765625;0.04852294921875;-1.0111236572265625;-0.009372728876769543;-0.0009009473724290729;-0.0018809906905516982
0.02838134765625;0.04852294921875;-1.0111236572265625;-0.009372728876769543;-0.0009009473724290729;-0.0018809906905516982
0.02972412109375;0.048980712890625;-1.0071563720703125;-0.009372728876769543;-0.0009009473724290729;-0.0018809906905516982
0.02972412109375;0.048980712890625;-1.0071563720703125;-0.009372728876769543;-0.0009009473724290729;-0.0018809906905516982
0.02972412109375;0.048980712890625;-1.0071563720703125;0.0023134879302233458;-0.003930825740098953;0.0004932174342684448
0.02972412109375;0.048980712890625;-1.0071563720703125;0.0023134879302233458;-0.003930825740098953;0.0004932174342684448
0.02972412109375;0.048980712890625;-1.0071563720703125;0.0023134879302233458;-0.003930825740098953;0.0004932174342684448
0.032073974609375;0.04974365234375;-1.0108795166015625;0.0023134879302233458;-0.003930825740098953;0.0004932174342684448
0.032073974609375;0.04974365234375;-1.0108795166015625;0.0023134879302233458;-0.003930825740098953;0.0004932174342684448
0.032073974609375;0.04974365234375;-1.0108795166015625;0.0010426276130601764;-0.008196943439543247;3.808320252574049e-05
0.032073974609375;0.04974365234375;-1.0108795166015625;0.0010426276130601764;-0.008196943439543247;3.808320252574049e-05
0.032073974609375;0.04974365234375;-1.0108795166015625;0.0010426276130601764;-0.008196943439543247;3.808320252574049e-05
0.0340728759765625;0.051055908203125;-1.018341064453125;0.0010426276130601764;-0.008196943439543247;3.808320252574049e-05
0.0340728759765625;0.051055908203125;-1.018341064453125;0.0010426276130601764;-0.008196943439543247;3.808320252574049e-05
0.0340728759765625;0.051055908203125;-1.018341064453125;-0.01471769344061613;0.002846652874723077;0.0019025622168555856
0.0340728759765625;0.051055908203125;-1.018341064453125;-0.01471769344061613;0.002846652874723077;0.0019025622168555856
0.0340728759765625;0.051055908203125;-1.018341064453125;-0.01471769344061613;0.002846652874723077;0.0019025622168555856
0.0350494384765625;0.050079345703125;-1.00445556640625;-0.01471769344061613;0.002846652874723077;0.0019025622168555856
0.0350494384765625;0.050079345703125;-1.00445556640625;-0.01471769344061613;0.002846652874723077;0.0019025622168555856
0.0350494384765625;0.050079345703125;-1.00445556640625;-0.03332386910915375;0.014476677402853966;0.0006998787284828722
0.0350494384765625;0.050079345703125;-1.00445556640625;-0.03332386910915375;0.014476677402853966;0.0006998787284828722
0.031829833984375;0.049774169921875;-0.987274169921875;-0.03332386910915375;0.014476677402853966;0.0006998787284828722
0.031829833984375;0.049774169921875;-0.987274169921875;-0.03332386910915375;0.014476677402853966;0.0006998787284828722
0.031829833984375;0.049774169921875;-0.987274169921875;-0.03332386910915375;0.014476677402853966;0.0006998787284828722
0.031829833984375;0.049774169921875;-0.987274169921875;-0.026989806443452835;0.006120476871728897;-0.00018136126163881272
0.031829833984375;0.049774169921875;-0.987274169921875;-0.026989806443452835;0.006120476871728897;-0.00018136126163881272
0.0323028564453125;0.0525054931640625;-1.0080108642578125;-0.026989806443452835;0.006120476871728897;-0.00018136126163881272
0.0323028564453125;0.0525054931640625;-1.0080108642578125;-0.026989806443452835;0.006120476871728897;-0.00018136126163881272
0.0323028564453125;0.0525054931640625;-1.0080108642578125;-0.026989806443452835;0.006120476871728897;-0.00018136126163881272
0.0323028564453125;0.0525054931640625;-1.0080108642578125;-0.0070581757463514805;-0.008666192181408405;-0.004575310740619898
0.0323028564453125;0.0525054931640625;-1.0080108642578125;-0.0070581757463514805;-0.008666192181408405;-0.004575310740619898
0.0323028564453125;0.0525054931640625;-1.0080108642578125;-0.0070581757463514805;-0.008666192181408405;-0.004575310740619898
0.0319976806640625;0.056243896484375;-1.0360260009765625;-0.0070581757463514805;-0.008666192181408405;-0.004575310740619898
0.0319976806640625;0.056243896484375;-1.0360260009765625;-0.0070581757463514805;-0.008666192181408405;-0.004575310740619898
0.0319976806640625;0.056243896484375;-1.0360260009765625;-0.016377907246351242;-0.013756291940808296;-0.0029438582714647055
0.0319976806640625;0.056243896484375;-1.0360260009765625;-0.016377907246351242;-0.013756291940808296;-0.0029438582714647055
0.0247039794921875;0.055755615234375;-1.011383056640625;-0.016377907246351242;-0.013756291940808296;-0.0029438582714647055
0.0247039794921875;0.055755615234375;-1.011383056640625;-0.016377907246351242;-0.013756291940808296;-0.0029438582714647055
0.0247039794921875;0.055755615234375;-1.011383056640625;-0.016377907246351242;-0.013756291940808296;-0.0029438582714647055
0.0247039794921875;0.055755615234375;-1.011383056640625;-0.03051529824733734;-0.020564397796988487;-0.004077832214534283
0.0247039794921875;0.055755615234375;-1.011383056640625;-0.03051529824733734;-0.020564397796988487;-0.004077832214534283
0.0247955322265625;0.055877685546875;-1.0053253173828125;-0.03051529824733734;-0.020564397796988487;-0.004077832214534283
0.0247955322265625;0.055877685546875;-1.0053253173828125;-0.03051529824733734;-0.020564397796988487;-0.004077832214534283
0.0247955322265625;0.055877685546875;-1.0053253173828125;-0.03051529824733734;-0.020564397796988487;-0.004077832214534283
0.0247955322265625;0.055877685546875;-1.0053253173828125;-0.028689967468380928;-0.01110431645065546;0.0008322378271259367
0.0247955322265625;0.055877685546875;-1.0053253173828125;-0.028689967468380928;-0.01110431645065546;0.0008322378271259367
0.03167724609375;0.054443359375;-1.0035858154296875;-0.028689967468380928;-0.01110431645065546;0.0008322378271259367
0.03167724609375;0.054443359375;-1.0035858154296875;-0.028689967468380928;-0.01110431645065546;0.0008322378271259367
0.03167724609375;0.054443359375;-1.0035858154296875;-0.028689967468380928;-0.01110431645065546;0.0008322378271259367
0.03167724609375;0.054443359375;-1.0035858154296875;-0.00917139369994402;0.00552312983199954;0.006608634255826473
0.03167724609375;0.054443359375;-1.0035858154296875;-0.00917139369994402;0.00552312983199954;0.006608634255826473
0.0343780517578125;0.052001953125;-0.9983978271484375;-0.00917139369994402;0.00552312983199954;0.006608634255826473
0.0343780517578125;0.052001953125;-0.9983978271484375;-0.00917139369994402;0.00552312983199954;0.006608634255826473
0.0343780517578125;0.052001953125;-0.9983978271484375;-0.00917139369994402;0.00552312983199954;0.006608634255826473
0.0343780517578125;0.052001953125;-0.9983978271484375;0.030585072934627533;0.0014205301413312554;0.00746217742562294
0.0343780517578125;0.052001953125;-0.9983978271484375;0.030585072934627533;0.0014205301413312554;0.00746217742562294
0.0333251953125;0.0496368408203125;-1.0118560791015625;0.030585072934627533;0.0014205301413312554;0.00746217742562294
0.0333251953125;0.0496368408203125;-1.0118560791015625;0.030585072934627533;0.0014205301413312554;0.00746217742562294
0.0333251953125;0.0496368408203125;-1.0118560791015625;0.030585072934627533;0.0014205301413312554;0.00746217742562294
0.0333251953125;0.0496368408203125;-1.0118560791015625;0.06654467433691025;-0.010518953204154968;0.0107708889991045
0.0333251953125;0.0496368408203125;-1.0118560791015625;0.06654467433691025;-0.010518953204154968;0.0107708889991045
0.0318450927734375;0.0477142333984375;-1.0300750732421875;0.06654467433691025;-0.010518953204154968;0.0107708889991045
0.0318450927734375;0.0477142333984375;-1.0300750732421875;0.06654467433691025;-0.010518953204154968;0.0107708889991045
0.0318450927734375;0.0477142333984375;-1.0300750732421875;0.06654467433691025;-0.010518953204154968;0.0107708889991045
0.0318450927734375;0.0477142333984375;-1.0300750732421875;0.07256714254617691;-0.013263607397675514;0.010008691810071468
0.0318450927734375;0.0477142333984375;-1.0300750732421875;0.07256714254617691;-0.013263607397675514;0.010008691810071468
0.031463623046875;0.045013427734375;-1.0308380126953125;0.07256714254617691;-0.013263607397675514;0.010008691810071468
0.031463623046875;0.045013427734375;-1.0308380126953125;0.07256714254617691;-0.013263607397675514;0.010008691810071468
0.031463623046875;0.045013427734375;-1.0308380126953125;0.07256714254617691;-0.013263607397675514;0.010008691810071468
0.031463623046875;0.045013427734375;-1.0308380126953125;0.0475267730653286;-0.012991165742278099;0.011973305605351925
0.031463623046875;0.045013427734375;-1.0308380126953125;0.0475267730653286;-0.012991165742278099;0.011973305605351925
0.0311279296875;0.042510986328125;-1.024932861328125;0.0475267730653286;-0.012991165742278099;0.011973305605351925
0.0311279296875;0.042510986328125;-1.024932861328125;0.0475267730653286;-0.012991165742278099;0.011973305605351925
0.0311279296875;0.042510986328125;-1.024932861328125;0.0475267730653286;-0.012991165742278099;0.011973305605351925
0.0311279296875;0.042510986328125;-1.024932861328125;0.01266759168356657;-0.011081413365900517;0.013172261416912079
0.0311279296875;0.042510986328125;-1.024932861328125;0.01266759168356657;-0.011081413365900517;0.013172261416912079
0.031280517578125;0.039093017578125;-1.01873779296875;0.01266759168356657;-0.011081413365900517;0.013172261416912079
0.031280517578125;0.039093017578125;-1.01873779296875;0.01266759168356657;-0.011081413365900517;0.013172261416912079
0.031280517578125;0.039093017578125;-1.01873779296875;0.01266759168356657;-0.011081413365900517;0.013172261416912079
0.031280517578125;0.039093017578125;-1.01873779296875;-0.013851100578904152;-0.010150904767215252;0.008346080780029297
0.031280517578125;0.039093017578125;-1.01873779296875;-0.013851100578904152;-0.010150904767215252;0.008346080780029297
0.0294342041015625;0.037872314453125;-1.01409912109375;-0.013851100578904152;-0.010150904767215252;0.008346080780029297
0.0294342041015625;0.037872314453125;-1.01409912109375;-0.013851100578904152;-0.010150904767215252;0.008346080780029297
0.0294342041015625;0.037872314453125;-1.01409912109375;-0.013851100578904152;-0.010150904767215252;0.008346080780029297
0.0294342041015625;0.037872314453125;-1.01409912109375;-0.01740029640495777;-0.005539108533412218;0.00618172949180007
0.0294342041015625;0.037872314453125;-1.01409912109375;-0.01740029640495777;-0.005539108533412218;0.00618172949180007
0.0291900634765625;0.0370025634765625;-1.0177459716796875;-0.01740029640495777;-0.005539108533412218;0.00618172949180007
0.0291900634765625;0.0370025634765625;-1.0177459716796875;-0.01740029640495777;-0.005539108533412218;0.00618172949180007
0.0291900634765625;0.0370025634765625;-1.0177459716796875;-0.01740029640495777;-0.005539108533412218;0.00618172949180007
0.0291900634765625;0.0370025634765625;-1.0177459716796875;-0.021167602390050888;0.002376871183514595;0.0019294602097943425
