Acell X;Acell Y;Acell Z;Gyro X;Gyro Y;Gyro Z

0.0223388671875;0.015167236328125;-1.00408935546875;-0.03142290562391281;-0.0035547874867916107;-0.0027571707032620907
0.0223388671875;0.015167236328125;-1.00408935546875;-0.03142290562391281;-0.0035547874867916107;-0.0027571707032620907
0.0223388671875;0.015167236328125;-1.00408935546875;-0.03142290562391281;-0.0035547874867916107;-0.0027571707032620907
0.0235137939453125;0.0294342041015625;-1.0113067626953125;-0.01960752345621586;-0.004625910893082619;0.0018908443162217736
0.0235137939453125;0.0294342041015625;-1.0113067626953125;-0.01960752345621586;-0.004625910893082619;0.0018908443162217736
0.0235137939453125;0.0294342041015625;-1.0113067626953125;-0.01960752345621586;-0.004625910893082619;0.0018908443162217736
0.0235137939453125;0.0294342041015625;-1.0113067626953125;-0.01960752345621586;-0.004625910893082619;0.0018908443162217736
0.0235137939453125;0.0294342041015625;-1.0113067626953125;-0.01960752345621586;-0.004625910893082619;0.0018908443162217736
0.0213165283203125;0.0372314453125;-1.0196685791015625;0.0032559807877987623;-0.00455826660618186;-0.00242161238566041
0.0213165283203125;0.0372314453125;-1.0196685791015625;0.0032559807877987623;-0.00455826660618186;-0.00242161238566041
0.0213165283203125;0.0372314453125;-1.0196685791015625;0.0032559807877987623;-0.00455826660618186;-0.00242161238566041
0.0213165283203125;0.0372314453125;-1.0196685791015625;0.0032559807877987623;-0.00455826660618186;-0.00242161238566041
0.0213165283203125;0.0372314453125;-1.0196685791015625;0.0032559807877987623;-0.00455826660618186;-0.00242161238566041
0.0219879150390625;0.04052734375;-1.02166748046875;0.019575033336877823;-0.01184920221567154;-0.0017670074012130499
0.0219879150390625;0.04052734375;-1.02166748046875;0.019575033336877823;-0.01184920221567154;-0.0017670074012130499
0.0219879150390625;0.04052734375;-1.02166748046875;0.019575033336877823;-0.01184920221567154;-0.0017670074012130499
0.0219879150390625;0.04052734375;-1.02166748046875;0.019575033336877823;-0.01184920221567154;-0.0017670074012130499
0.0219879150390625;0.04052734375;-1.02166748046875;0.019575033336877823;-0.01184920221567154;-0.0017670074012130499
0.021728515625;0.039825439453125;-1.018157958984375;0.024873392656445503;-0.01381248515099287;-0.002840793924406171
0.021728515625;0.039825439453125;-1.018157958984375;0.024873392656445503;-0.01381248515099287;-0.002840793924406171
0.021728515625;0.039825439453125;-1.018157958984375;0.024873392656445503;-0.01381248515099287;-0.002840793924406171
0.021728515625;0.039825439453125;-1.018157958984375;0.024873392656445503;-0.01381248515099287;-0.002840793924406171
0.021728515625;0.039825439453125;-1.018157958984375;0.024873392656445503;-0.01381248515099287;-0.002840793924406171
0.021575927734375;0.0378265380859375;-1.01580810546875;0.029871346428990364;-0.014385863207280636;0.0011054781498387456
0.021575927734375;0.0378265380859375;-1.01580810546875;0.029871346428990364;-0.014385863207280636;0.0011054781498387456
0.021575927734375;0.0378265380859375;-1.01580810546875;0.029871346428990364;-0.014385863207280636;0.0011054781498387456
0.021575927734375;0.0378265380859375;-1.01580810546875;0.029871346428990364;-0.014385863207280636;0.0011054781498387456
0.021575927734375;0.0378265380859375;-1.01580810546875;0.029871346428990364;-0.014385863207280636;0.0011054781498387456
0.0243072509765625;0.03521728515625;-1.015899658203125;0.027967985719442368;-0.010965299792587757;0.0002687129599507898
0.0243072509765625;0.03521728515625;-1.015899658203125;0.027967985719442368;-0.010965299792587757;0.0002687129599507898
0.0243072509765625;0.03521728515625;-1.015899658203125;0.027967985719442368;-0.010965299792587757;0.0002687129599507898
0.0243072509765625;0.03521728515625;-1.015899658203125;0.027967985719442368;-0.010965299792587757;0.0002687129599507898
0.0243072509765625;0.03521728515625;-1.015899658203125;0.027967985719442368;-0.010965299792587757;0.0002687129599507898
0.023590087890625;0.0343017578125;-1.010284423828125;0.014781342819333076;-0.010611099191009998;-0.001219727797433734
0.023590087890625;0.0343017578125;-1.010284423828125;0.014781342819333076;-0.010611099191009998;-0.001219727797433734
0.023590087890625;0.0343017578125;-1.010284423828125;0.014781342819333076;-0.010611099191009998;-0.001219727797433734
0.023590087890625;0.0343017578125;-1.010284423828125;0.014781342819333076;-0.010611099191009998;-0.001219727797433734
0.023590087890625;0.0343017578125;-1.010284423828125;0.014781342819333076;-0.010611099191009998;-0.001219727797433734
0.020050048828125;0.03436279296875;-1.0076751708984375;0.005939648021012545;-0.006097573786973953;0.002373675350099802
0.020050048828125;0.03436279296875;-1.0076751708984375;0.005939648021012545;-0.006097573786973953;0.002373675350099802
0.020050048828125;0.03436279296875;-1.0076751708984375;0.005939648021012545;-0.006097573786973953;0.002373675350099802
0.020050048828125;0.03436279296875;-1.0076751708984375;0.005939648021012545;-0.006097573786973953;0.002373675350099802
0.020050048828125;0.03436279296875;-1.0076751708984375;0.005939648021012545;-0.006097573786973953;0.002373675350099802
0.0190277099609375;0.0327911376953125;-1.0094757080078125;0.007616107817739248;0.00040080572944134474;0.002555303042754531
0.0190277099609375;0.0327911376953125;-1.0094757080078125;0.007616107817739248;0.00040080572944134474;0.002555303042754531
0.0190277099609375;0.0327911376953125;-1.0094757080078125;0.007616107817739248;0.00040080572944134474;0.002555303042754531
0.0190277099609375;0.0327911376953125;-1.0094757080078125;0.007616107817739248;0.00040080572944134474;0.002555303042754531
0.0190277099609375;0.0327911376953125;-1.0094757080078125;0.007616107817739248;0.00040080572944134474;0.002555303042754531
0.020538330078125;0.0319671630859375;-1.0147552490234375;0.011811652220785618;-0.0051926313899457455;0.002936667762696743
0.020538330078125;0.0319671630859375;-1.0147552490234375;0.011811652220785618;-0.0051926313899457455;0.002936667762696743
0.020538330078125;0.0319671630859375;-1.0147552490234375;0.011811652220785618;-0.0051926313899457455;0.002936667762696743
0.020538330078125;0.0319671630859375;-1.0147552490234375;0.011811652220785618;-0.0051926313899457455;0.002936667762696743
0.020538330078125;0.0319671630859375;-1.0147552490234375;0.011811652220785618;-0.0051926313899457455;0.002936667762696743
0.020965576171875;0.0324859619140625;-1.0161590576171875;0.016694026067852974;-0.002123870886862278;0.001820803270675242
0.020965576171875;0.0324859619140625;-1.0161590576171875;0.016694026067852974;-0.002123870886862278;0.001820803270675242
0.020965576171875;0.0324859619140625;-1.0161590576171875;0.016694026067852974;-0.002123870886862278;0.001820803270675242
0.020965576171875;0.0324859619140625;-1.0161590576171875;0.016694026067852974;-0.002123870886862278;0.001820803270675242
0.020965576171875;0.0324859619140625;-1.0161590576171875;0.016694026067852974;-0.002123870886862278;0.001820803270675242
0.02203369140625;0.0338287353515625;-1.0133514404296875;0.018384600058197975;-0.0035326832439750433;-0.0025979136116802692
0.02203369140625;0.0338287353515625;-1.0133514404296875;0.018384600058197975;-0.0035326832439750433;-0.0025979136116802692
0.02203369140625;0.0338287353515625;-1.0133514404296875;0.018384600058197975;-0.0035326832439750433;-0.0025979136116802692
0.02203369140625;0.0338287353515625;-1.0133514404296875;0.018384600058197975;-0.0035326832439750433;-0.0025979136116802692
0.02203369140625;0.0338287353515625;-1.0133514404296875;0.018384600058197975;-0.0035326832439750433;-0.0025979136116802692
0.02239990234375;0.0334014892578125;-1.01251220703125;0.016020778566598892;-0.0009725864510983229;0.0003081277245655656
0.02239990234375;0.0334014892578125;-1.01251220703125;0.016020778566598892;-0.0009725864510983229;0.0003081277245655656
0.02239990234375;0.0334014892578125;-1.01251220703125;0.016020778566598892;-0.0009725864510983229;0.0003081277245655656
0.02239990234375;0.0334014892578125;-1.01251220703125;0.016020778566598892;-0.0009725864510983229;0.0003081277245655656
0.02239990234375;0.0334014892578125;-1.01251220703125;0.016020778566598892;-0.0009725864510983229;0.0003081277245655656
0.022247314453125;0.0321807861328125;-1.0129852294921875;0.016461530700325966;-0.0023363912478089333;0.0009108011145144701
0.022247314453125;0.0321807861328125;-1.0129852294921875;0.016461530700325966;-0.0023363912478089333;0.0009108011145144701
0.022247314453125;0.0321807861328125;-1.0129852294921875;0.016461530700325966;-0.0023363912478089333;0.0009108011145144701
0.022247314453125;0.0321807861328125;-1.0129852294921875;0.016461530700325966;-0.0023363912478089333;0.0009108011145144701
0.022247314453125;0.0321807861328125;-1.0129852294921875;0.016461530700325966;-0.0023363912478089333;0.0009108011145144701
0.02142333984375;0.029815673828125;-1.016265869140625;0.012744290754199028;-0.0026852653827518225;-8.655273268232122e-05
0.02142333984375;0.029815673828125;-1.016265869140625;0.012744290754199028;-0.0026852653827518225;-8.655273268232122e-05
0.02142333984375;0.029815673828125;-1.016265869140625;0.012744290754199028;-0.0026852653827518225;-8.655273268232122e-05
0.02142333984375;0.029815673828125;-1.016265869140625;0.012744290754199028;-0.0026852653827518225;-8.655273268232122e-05
0.02142333984375;0.029815673828125;-1.016265869140625;0.012744290754199028;-0.0026852653827518225;-8.655273268232122e-05
0.02130126953125;0.0284271240234375;-1.019561767578125;0.0046730488538742065;-0.005859753116965294;0.0018455706303939223
0.02130126953125;0.0284271240234375;-1.019561767578125;0.0046730488538742065;-0.005859753116965294;0.0018455706303939223
0.02130126953125;0.0284271240234375;-1.019561767578125;0.0046730488538742065;-0.005859753116965294;0.0018455706303939223
0.02130126953125;0.0284271240234375;-1.019561767578125;0.0046730488538742065;-0.005859753116965294;0.0018455706303939223
0.02130126953125;0.0284271240234375;-1.019561767578125;0.0046730488538742065;-0.005859753116965294;0.0018455706303939223
0.02105712890625;0.027557373046875;-1.0189208984375;0.0008719189208932221;-0.007646734360605478;0.00112438655924052
0.02105712890625;0.027557373046875;-1.0189208984375;0.0008719189208932221;-0.007646734360605478;0.00112438655924052
0.02105712890625;0.027557373046875;-1.0189208984375;0.0008719189208932221;-0.007646734360605478;0.00112438655924052
0.02105712890625;0.027557373046875;-1.0189208984375;0.0008719189208932221;-0.007646734360605478;0.00112438655924052
0.02105712890625;0.027557373046875;-1.0189208984375;0.0008719189208932221;-0.007646734360605478;0.00112438655924052
0.0211334228515625;0.02716064453125;-1.01641845703125;-0.01022653840482235;-0.010455836541950703;0.00027270769351162016
0.0211334228515625;0.02716064453125;-1.01641845703125;-0.01022653840482235;-0.010455836541950703;0.00027270769351162016
0.0211334228515625;0.02716064453125;-1.01641845703125;-0.01022653840482235;-0.010455836541950703;0.00027270769351162016
0.0211334228515625;0.02716064453125;-1.01641845703125;-0.01022653840482235;-0.010455836541950703;0.00027270769351162016
0.0211334228515625;0.02716064453125;-1.01641845703125;-0.01022653840482235;-0.010455836541950703;0.00027270769351162016
0.020538330078125;0.025665283203125;-1.0159759521484375;-0.025500299409031868;-0.014274809509515762;-0.00016777914424892515
0.020538330078125;0.025665283203125;-1.0159759521484375;-0.025500299409031868;-0.014274809509515762;-0.00016777914424892515
0.020538330078125;0.025665283203125;-1.0159759521484375;-0.025500299409031868;-0.014274809509515762;-0.00016777914424892515
0.020538330078125;0.025665283203125;-1.0159759521484375;-0.025500299409031868;-0.014274809509515762;-0.00016777914424892515
0.020538330078125;0.025665283203125;-1.0159759521484375;-0.025500299409031868;-0.014274809509515762;-0.00016777914424892515
0.020721435546875;0.0274505615234375;-1.01593017578125;-0.03882462903857231;-0.008344482630491257;0.001731587341055274
0.020721435546875;0.0274505615234375;-1.01593017578125;-0.03882462903857231;-0.008344482630491257;0.001731587341055274
0.020721435546875;0.0274505615234375;-1.01593017578125;-0.03882462903857231;-0.008344482630491257;0.001731587341055274
0.020721435546875;0.0274505615234375;-1.01593017578125;-0.03882462903857231;-0.008344482630491257;0.001731587341055274
0.020721435546875;0.0274505615234375;-1.01593017578125;-0.03882462903857231;-0.008344482630491257;0.001731587341055274
0.02191162109375;0.0279083251953125;-1.0150909423828125;-0.05156572163105011;-0.007756456732749939;0.0008990831556729972
0.02191162109375;0.0279083251953125;-1.0150909423828125;-0.05156572163105011;-0.007756456732749939;0.0008990831556729972
0.02191162109375;0.0279083251953125;-1.0150909423828125;-0.05156572163105011;-0.007756456732749939;0.0008990831556729972
0.02191162109375;0.0279083251953125;-1.0150909423828125;-0.05156572163105011;-0.007756456732749939;0.0008990831556729972
0.02191162109375;0.0279083251953125;-1.0150909423828125;-0.05156572163105011;-0.007756456732749939;0.0008990831556729972
0.022705078125;0.028472900390625;-1.013092041015625;-0.0614154227077961;-0.006440588738769293;0.0021904499735683203
0.022705078125;0.028472900390625;-1.013092041015625;-0.0614154227077961;-0.006440588738769293;0.0021904499735683203
0.022705078125;0.028472900390625;-1.013092041015625;-0.0614154227077961;-0.006440588738769293;0.0021904499735683203
0.022705078125;0.028472900390625;-1.013092041015625;-0.0614154227077961;-0.006440588738769293;0.0021904499735683203
0.022705078125;0.028472900390625;-1.013092041015625;-0.0614154227077961;-0.006440588738769293;0.0021904499735683203
0.022491455078125;0.0310211181640625;-1.0134429931640625;-0.06178586930036545;-0.005079979542642832;0.003254382871091366
0.022491455078125;0.0310211181640625;-1.0134429931640625;-0.06178586930036545;-0.005079979542642832;0.003254382871091366
0.022491455078125;0.0310211181640625;-1.0134429931640625;-0.06178586930036545;-0.005079979542642832;0.003254382871091366
0.022491455078125;0.0310211181640625;-1.0134429931640625;-0.06178586930036545;-0.005079979542642832;0.003254382871091366
0.022491455078125;0.0310211181640625;-1.0134429931640625;-0.06178586930036545;-0.005079979542642832;0.003254382871091366
0.0233612060546875;0.0325927734375;-1.016082763671875;-0.06222289428114891;-0.0009952232940122485;0.002144909929484129
0.0233612060546875;0.0325927734375;-1.016082763671875;-0.06222289428114891;-0.0009952232940122485;0.002144909929484129
0.0233612060546875;0.0325927734375;-1.016082763671875;-0.06222289428114891;-0.0009952232940122485;0.002144909929484129
0.0233612060546875;0.0325927734375;-1.016082763671875;-0.06222289428114891;-0.0009952232940122485;0.002144909929484129
0.0233612060546875;0.0325927734375;-1.016082763671875;-0.06222289428114891;-0.0009952232940122485;0.002144909929484129
0.0236358642578125;0.0373992919921875;-1.0160369873046875;-0.06335340440273285;-0.0034887411165982485;0.0011017497163265944
0.0236358642578125;0.0373992919921875;-1.0160369873046875;-0.06335340440273285;-0.0034887411165982485;0.0011017497163265944
0.0236358642578125;0.0373992919921875;-1.0160369873046875;-0.06335340440273285;-0.0034887411165982485;0.0011017497163265944
0.0236358642578125;0.0373992919921875;-1.0160369873046875;-0.06335340440273285;-0.0034887411165982485;0.0011017497163265944
0.0236358642578125;0.0373992919921875;-1.0160369873046875;-0.06335340440273285;-0.0034887411165982485;0.0011017497163265944
0.02252197265625;0.0407867431640625;-1.0145416259765625;-0.06716012954711914;-0.004201935604214668;-0.00012596751912496984
0.02252197265625;0.0407867431640625;-1.0145416259765625;-0.06716012954711914;-0.004201935604214668;-0.00012596751912496984
0.02252197265625;0.0407867431640625;-1.0145416259765625;-0.06716012954711914;-0.004201935604214668;-0.00012596751912496984
0.02252197265625;0.0407867431640625;-1.0145416259765625;-0.06716012954711914;-0.004201935604214668;-0.00012596751912496984
0.021331787109375;0.0419769287109375;-1.0102996826171875;-0.08306186646223068;0.0015430354978889227;-0.004237355664372444
0.021331787109375;0.0419769287109375;-1.0102996826171875;-0.08306186646223068;0.0015430354978889227;-0.004237355664372444
0.021331787109375;0.0419769287109375;-1.0102996826171875;-0.08306186646223068;0.0015430354978889227;-0.004237355664372444
0.021331787109375;0.0419769287109375;-1.0102996826171875;-0.08306186646223068;0.0015430354978889227;-0.004237355664372444
0.021331787109375;0.0419769287109375;-1.0102996826171875;-0.08306186646223068;0.0015430354978889227;-0.004237355664372444
0.021331787109375;0.0419769287109375;-1.0102996826171875;-0.0857202336192131;-0.003349990351125598;-0.004798483569175005
0.021148681640625;0.0421600341796875;-1.00982666015625;-0.0857202336192131;-0.003349990351125598;-0.004798483569175005
0.021148681640625;0.0421600341796875;-1.00982666015625;-0.0857202336192131;-0.003349990351125598;-0.004798483569175005
0.021148681640625;0.0421600341796875;-1.00982666015625;-0.0857202336192131;-0.003349990351125598;-0.004798483569175005
0.021148681640625;0.0421600341796875;-1.00982666015625;-0.0857202336192131;-0.003349990351125598;-0.004798483569175005
0.02117919921875;0.040557861328125;-1.0103607177734375;-0.0890827402472496;0.0007443535141646862;-0.00464668357744813
0.02117919921875;0.040557861328125;-1.0103607177734375;-0.0890827402472496;0.0007443535141646862;-0.00464668357744813
0.02117919921875;0.040557861328125;-1.0103607177734375;-0.0890827402472496;0.0007443535141646862;-0.00464668357744813
0.02117919921875;0.040557861328125;-1.0103607177734375;-0.0890827402472496;0.0007443535141646862;-0.00464668357744813
0.02117919921875;0.040557861328125;-1.0103607177734375;-0.0890827402472496;0.0007443535141646862;-0.00464668357744813
0.0204315185546875;0.040008544921875;-1.0105743408203125;-0.09357389062643051;0.00498091010376811;-0.007357514929026365
0.0204315185546875;0.040008544921875;-1.0105743408203125;-0.09357389062643051;0.00498091010376811;-0.007357514929026365
0.0204315185546875;0.040008544921875;-1.0105743408203125;-0.09357389062643051;0.00498091010376811;-0.007357514929026365
0.0204315185546875;0.040008544921875;-1.0105743408203125;-0.09357389062643051;0.00498091010376811;-0.007357514929026365
0.0204315185546875;0.040008544921875;-1.0105743408203125;-0.09357389062643051;0.00498091010376811;-0.007357514929026365
0.0204315185546875;0.0413055419921875;-1.0109100341796875;-0.08833492547273636;0.0027454528026282787;-0.002043976215645671
0.0204315185546875;0.0413055419921875;-1.0109100341796875;-0.08833492547273636;0.0027454528026282787;-0.002043976215645671
0.0204315185546875;0.0413055419921875;-1.0109100341796875;-0.08833492547273636;0.0027454528026282787;-0.002043976215645671
0.0204315185546875;0.0413055419921875;-1.0109100341796875;-0.08833492547273636;0.0027454528026282787;-0.002043976215645671
0.0204315185546875;0.0413055419921875;-1.0109100341796875;-0.08833492547273636;0.0027454528026282787;-0.002043976215645671
0.019805908203125;0.043060302734375;-1.0127716064453125;-0.0780005231499672;0.00336117553524673;0.0016082830261439085
0.019805908203125;0.043060302734375;-1.0127716064453125;-0.0780005231499672;0.00336117553524673;0.0016082830261439085
0.019805908203125;0.043060302734375;-1.0127716064453125;-0.0780005231499672;0.00336117553524673;0.0016082830261439085
0.019805908203125;0.043060302734375;-1.0127716064453125;-0.0780005231499672;0.00336117553524673;0.0016082830261439085
0.019805908203125;0.043060302734375;-1.0127716064453125;-0.0780005231499672;0.00336117553524673;0.0016082830261439085
0.0196380615234375;0.046295166015625;-1.012908935546875;-0.07189975678920746;0.0011867046123370528;0.0011949603212997317
0.0196380615234375;0.046295166015625;-1.012908935546875;-0.07189975678920746;0.0011867046123370528;0.0011949603212997317
0.0196380615234375;0.046295166015625;-1.012908935546875;-0.07189975678920746;0.0011867046123370528;0.0011949603212997317
0.0196380615234375;0.046295166015625;-1.012908935546875;-0.07189975678920746;0.0011867046123370528;0.0011949603212997317
0.0196380615234375;0.046295166015625;-1.012908935546875;-0.07189975678920746;0.0011867046123370528;0.0011949603212997317
0.0196380615234375;0.0472259521484375;-1.0115509033203125;-0.06255818903446198;-0.00048709215479902923;-0.0005584649043157697
0.0196380615234375;0.0472259521484375;-1.0115509033203125;-0.06255818903446198;-0.00048709215479902923;-0.0005584649043157697
0.0196380615234375;0.0472259521484375;-1.0115509033203125;-0.06255818903446198;-0.00048709215479902923;-0.0005584649043157697
0.0196380615234375;0.0472259521484375;-1.0115509033203125;-0.06255818903446198;-0.00048709215479902923;-0.0005584649043157697
0.0196380615234375;0.0472259521484375;-1.0115509033203125;-0.06255818903446198;-0.00048709215479902923;-0.0005584649043157697
0.020172119140625;0.048095703125;-1.010040283203125;-0.05269623547792435;-0.0028245486319065094;0.0014357101172208786
0.020172119140625;0.048095703125;-1.010040283203125;-0.05269623547792435;-0.0028245486319065094;0.0014357101172208786
0.020172119140625;0.048095703125;-1.010040283203125;-0.05269623547792435;-0.0028245486319065094;0.0014357101172208786
0.020172119140625;0.048095703125;-1.010040283203125;-0.05269623547792435;-0.0028245486319065094;0.0014357101172208786
0.020172119140625;0.048095703125;-1.010040283203125;-0.05269623547792435;-0.0028245486319065094;0.0014357101172208786
0.0206298828125;0.0478363037109375;-1.0119171142578125;-0.04023823142051697;-0.003254649229347706;0.005137770436704159
0.0206298828125;0.0478363037109375;-1.0119171142578125;-0.04023823142051697;-0.003254649229347706;0.005137770436704159
0.0206298828125;0.0478363037109375;-1.0119171142578125;-0.04023823142051697;-0.003254649229347706;0.005137770436704159
0.0206298828125;0.0478363037109375;-1.0119171142578125;-0.04023823142051697;-0.003254649229347706;0.005137770436704159
0.0206298828125;0.0478363037109375;-1.0119171142578125;-0.04023823142051697;-0.003254649229347706;0.005137770436704159
0.0210113525390625;0.046539306640625;-1.014007568359375;-0.03141944110393524;-0.005369998048990965;0.004502073861658573
0.0210113525390625;0.046539306640625;-1.014007568359375;-0.03141944110393524;-0.005369998048990965;0.004502073861658573
0.0210113525390625;0.046539306640625;-1.014007568359375;-0.03141944110393524;-0.005369998048990965;0.004502073861658573
0.0210113525390625;0.046539306640625;-1.014007568359375;-0.03141944110393524;-0.005369998048990965;0.004502073861658573
0.0210113525390625;0.046539306640625;-1.014007568359375;-0.03141944110393524;-0.005369998048990965;0.004502073861658573
0.0224151611328125;0.045623779296875;-1.014556884765625;-0.0245458222925663;-0.007730890065431595;0.0073050507344305515
0.0224151611328125;0.045623779296875;-1.014556884765625;-0.0245458222925663;-0.007730890065431595;0.0073050507344305515
0.0224151611328125;0.045623779296875;-1.014556884765625;-0.0245458222925663;-0.007730890065431595;0.0073050507344305515
0.0224151611328125;0.045623779296875;-1.014556884765625;-0.0245458222925663;-0.007730890065431595;0.0073050507344305515
0.0224151611328125;0.045623779296875;-1.014556884765625;-0.0245458222925663;-0.007730890065431595;0.0073050507344305515
0.02362060546875;0.0429840087890625;-1.0150299072265625;-0.021167602390050888;-0.00768801337108016;0.004677309654653072
0.02362060546875;0.0429840087890625;-1.0150299072265625;-0.021167602390050888;-0.00768801337108016;0.004677309654653072
0.02362060546875;0.0429840087890625;-1.0150299072265625;-0.021167602390050888;-0.00768801337108016;0.004677309654653072
0.02362060546875;0.0429840087890625;-1.0150299072265625;-0.021167602390050888;-0.00768801337108016;0.004677309654653072
0.02362060546875;0.0429840087890625;-1.0150299072265625;-0.021167602390050888;-0.00768801337108016;0.004677309654653072
0.0235595703125;0.0439300537109375;-1.0150604248046875;-0.0207526832818985;-0.007726362906396389;0.004037618637084961
0.0235595703125;0.0439300537109375;-1.0150604248046875;-0.0207526832818985;-0.007726362906396389;0.004037618637084961
0.0235595703125;0.0439300537109375;-1.0150604248046875;-0.0207526832818985;-0.007726362906396389;0.004037618637084961
0.0235595703125;0.0439300537109375;-1.0150604248046875;-0.0207526832818985;-0.007726362906396389;0.004037618637084961
0.0235595703125;0.0439300537109375;-1.0150604248046875;-0.0207526832818985;-0.007726362906396389;0.004037618637084961
0.0225677490234375;0.0422515869140625;-1.015411376953125;-0.023061642423272133;-0.008084824308753014;0.00032890037982724607
0.0225677490234375;0.0422515869140625;-1.015411376953125;-0.023061642423272133;-0.008084824308753014;0.00032890037982724607
0.0225677490234375;0.0422515869140625;-1.015411376953125;-0.023061642423272133;-0.008084824308753014;0.00032890037982724607
0.0225677490234375;0.0422515869140625;-1.015411376953125;-0.023061642423272133;-0.008084824308753014;0.00032890037982724607
0.0225677490234375;0.0422515869140625;-1.015411376953125;-0.023061642423272133;-0.008084824308753014;0.00032890037982724607
0.0227813720703125;0.04180908203125;-1.0146942138671875;-0.029809027910232544;-0.009952499531209469;0.0014620753936469555
0.0227813720703125;0.04180908203125;-1.0146942138671875;-0.029809027910232544;-0.009952499531209469;0.0014620753936469555
0.0227813720703125;0.04180908203125;-1.0146942138671875;-0.029809027910232544;-0.009952499531209469;0.0014620753936469555
0.0227813720703125;0.04180908203125;-1.0146942138671875;-0.029809027910232544;-0.009952499531209469;0.0014620753936469555
0.0227813720703125;0.04180908203125;-1.0146942138671875;-0.029809027910232544;-0.009952499531209469;0.0014620753936469555
0.021514892578125;0.04119873046875;-1.0137939453125;-0.037880804389715195;-0.007456318475306034;0.0025861957110464573
0.021514892578125;0.04119873046875;-1.0137939453125;-0.037880804389715195;-0.007456318475306034;0.0025861957110464573
0.021514892578125;0.04119873046875;-1.0137939453125;-0.037880804389715195;-0.007456318475306034;0.0025861957110464573
0.021514892578125;0.04119873046875;-1.0137939453125;-0.037880804389715195;-0.007456318475306034;0.0025861957110464573
0.021514892578125;0.04119873046875;-1.0137939453125;-0.037880804389715195;-0.007456318475306034;0.0025861957110464573
0.021514892578125;0.04119873046875;-1.0137939453125;-0.04482526332139969;-0.004461061209440231;-0.00021385183208622038
0.019989013671875;0.03887939453125;-1.013641357421875;-0.04482526332139969;-0.004461061209440231;-0.00021385183208622038
0.019989013671875;0.03887939453125;-1.013641357421875;-0.04482526332139969;-0.004461061209440231;-0.00021385183208622038
0.019989013671875;0.03887939453125;-1.013641357421875;-0.04482526332139969;-0.004461061209440231;-0.00021385183208622038
0.019989013671875;0.03887939453125;-1.013641357421875;-0.04482526332139969;-0.004461061209440231;-0.00021385183208622038
0.020233154296875;0.0384979248046875;-1.014251708984375;-0.05348239839076996;-0.0072896042838692665;-0.0002745719102676958
0.020233154296875;0.0384979248046875;-1.014251708984375;-0.05348239839076996;-0.0072896042838692665;-0.0002745719102676958
0.020233154296875;0.0384979248046875;-1.014251708984375;-0.05348239839076996;-0.0072896042838692665;-0.0002745719102676958
0.020233154296875;0.0384979248046875;-1.014251708984375;-0.05348239839076996;-0.0072896042838692665;-0.0002745719102676958
0.020233154296875;0.0384979248046875;-1.014251708984375;-0.05348239839076996;-0.0072896042838692665;-0.0002745719102676958
0.0202789306640625;0.0396575927734375;-1.0140838623046875;-0.06090223416686058;-0.003099386813119054;-0.0006785734440200031
0.0202789306640625;0.0396575927734375;-1.0140838623046875;-0.06090223416686058;-0.003099386813119054;-0.0006785734440200031
0.0202789306640625;0.0396575927734375;-1.0140838623046875;-0.06090223416686058;-0.003099386813119054;-0.0006785734440200031
0.0202789306640625;0.0396575927734375;-1.0140838623046875;-0.06090223416686058;-0.003099386813119054;-0.0006785734440200031
0.0202789306640625;0.0396575927734375;-1.0140838623046875;-0.06090223416686058;-0.003099386813119054;-0.0006785734440200031
0.0205535888671875;0.04144287109375;-1.012664794921875;-0.06542401015758514;-0.003215234261006117;0.0015534218400716782
0.0205535888671875;0.04144287109375;-1.012664794921875;-0.06542401015758514;-0.003215234261006117;0.0015534218400716782
0.0205535888671875;0.04144287109375;-1.012664794921875;-0.06542401015758514;-0.003215234261006117;0.0015534218400716782
0.0205535888671875;0.04144287109375;-1.012664794921875;-0.06542401015758514;-0.003215234261006117;0.0015534218400716782
0.0205535888671875;0.04144287109375;-1.012664794921875;-0.06542401015758514;-0.003215234261006117;0.0015534218400716782
0.020050048828125;0.04351806640625;-1.014495849609375;-0.06680113077163696;-0.004796086810529232;0.0015805860748514533
0.020050048828125;0.04351806640625;-1.014495849609375;-0.06680113077163696;-0.004796086810529232;0.0015805860748514533
0.020050048828125;0.04351806640625;-1.014495849609375;-0.06680113077163696;-0.004796086810529232;0.0015805860748514533
0.020050048828125;0.04351806640625;-1.014495849609375;-0.06680113077163696;-0.004796086810529232;0.0015805860748514533
0.020050048828125;0.04351806640625;-1.014495849609375;-0.06680113077163696;-0.004796086810529232;0.0015805860748514533
0.0203094482421875;0.0447845458984375;-1.0183258056640625;-0.07047469913959503;-0.0059814597479999065;0.0011414308100938797
0.0203094482421875;0.0447845458984375;-1.0183258056640625;-0.07047469913959503;-0.0059814597479999065;0.0011414308100938797
0.0203094482421875;0.0447845458984375;-1.0183258056640625;-0.07047469913959503;-0.0059814597479999065;0.0011414308100938797
0.0203094482421875;0.0447845458984375;-1.0183258056640625;-0.07047469913959503;-0.0059814597479999065;0.0011414308100938797
0.0203094482421875;0.0447845458984375;-1.0183258056640625;-0.07047469913959503;-0.0059814597479999065;0.0011414308100938797
0.0225677490234375;0.044830322265625;-1.0194091796875;-0.07589556276798248;-0.00523710623383522;0.0009078715811483562
0.0225677490234375;0.044830322265625;-1.0194091796875;-0.07589556276798248;-0.00523710623383522;0.0009078715811483562
0.0225677490234375;0.044830322265625;-1.0194091796875;-0.07589556276798248;-0.00523710623383522;0.0009078715811483562
0.0225677490234375;0.044830322265625;-1.0194091796875;-0.07589556276798248;-0.00523710623383522;0.0009078715811483562
0.0225677490234375;0.044830322265625;-1.0194091796875;-0.07589556276798248;-0.00523710623383522;0.0009078715811483562
0.0223541259765625;0.0442962646484375;-1.02239990234375;-0.08626484870910645;-0.006356965284794569;0.0007089334540069103
0.0223541259765625;0.0442962646484375;-1.02239990234375;-0.08626484870910645;-0.006356965284794569;0.0007089334540069103
0.0223541259765625;0.0442962646484375;-1.02239990234375;-0.08626484870910645;-0.006356965284794569;0.0007089334540069103
0.0223541259765625;0.0442962646484375;-1.02239990234375;-0.08626484870910645;-0.006356965284794569;0.0007089334540069103
0.0223541259765625;0.0442962646484375;-1.02239990234375;-0.08626484870910645;-0.006356965284794569;0.0007089334540069103
0.023162841796875;0.04498291015625;-1.0194091796875;-0.10961970686912537;-0.008506136015057564;0.0004423510399647057
0.023162841796875;0.04498291015625;-1.0194091796875;-0.10961970686912537;-0.008506136015057564;0.0004423510399647057
0.023162841796875;0.04498291015625;-1.0194091796875;-0.10961970686912537;-0.008506136015057564;0.0004423510399647057
0.023162841796875;0.04498291015625;-1.0194091796875;-0.10961970686912537;-0.008506136015057564;0.0004423510399647057
0.023162841796875;0.04498291015625;-1.0194091796875;-0.10961970686912537;-0.008506136015057564;0.0004423510399647057
0.0230255126953125;0.0450439453125;-1.01025390625;-0.12797048687934875;-0.000984570593573153;0.002073537092655897
0.0230255126953125;0.0450439453125;-1.01025390625;-0.12797048687934875;-0.000984570593573153;0.002073537092655897
0.0230255126953125;0.0450439453125;-1.01025390625;-0.12797048687934875;-0.000984570593573153;0.002073537092655897
0.0230255126953125;0.0450439453125;-1.01025390625;-0.12797048687934875;-0.000984570593573153;0.002073537092655897
0.0230255126953125;0.0450439453125;-1.01025390625;-0.12797048687934875;-0.000984570593573153;0.002073537092655897
0.0214385986328125;0.0469818115234375;-1.010589599609375;-0.14103221893310547;0.0034815503749996424;0.0032842103391885757
0.0214385986328125;0.0469818115234375;-1.010589599609375;-0.14103221893310547;0.0034815503749996424;0.0032842103391885757
0.0214385986328125;0.0469818115234375;-1.010589599609375;-0.14103221893310547;0.0034815503749996424;0.0032842103391885757
0.0214385986328125;0.0469818115234375;-1.010589599609375;-0.14103221893310547;0.0034815503749996424;0.0032842103391885757
0.0214385986328125;0.0469818115234375;-1.010589599609375;-0.14103221893310547;0.0034815503749996424;0.0032842103391885757
0.020172119140625;0.0516204833984375;-1.0152435302734375;-0.1347479671239853;-0.0027838023379445076;0.0037033918779343367
0.020172119140625;0.0516204833984375;-1.0152435302734375;-0.1347479671239853;-0.0027838023379445076;0.0037033918779343367
0.020172119140625;0.0516204833984375;-1.0152435302734375;-0.1347479671239853;-0.0027838023379445076;0.0037033918779343367
0.020172119140625;0.0516204833984375;-1.0152435302734375;-0.1347479671239853;-0.0027838023379445076;0.0037033918779343367
0.020172119140625;0.0516204833984375;-1.0152435302734375;-0.1347479671239853;-0.0027838023379445076;0.0037033918779343367
0.018829345703125;0.0579681396484375;-1.0194091796875;-0.12462315708398819;-0.005668005906045437;0.0038746329955756664
0.018829345703125;0.0579681396484375;-1.0194091796875;-0.12462315708398819;-0.005668005906045437;0.0038746329955756664
0.018829345703125;0.0579681396484375;-1.0194091796875;-0.12462315708398819;-0.005668005906045437;0.0038746329955756664
0.018829345703125;0.0579681396484375;-1.0194091796875;-0.12462315708398819;-0.005668005906045437;0.0038746329955756664
0.018829345703125;0.0579681396484375;-1.0194091796875;-0.12462315708398819;-0.005668005906045437;0.0038746329955756664
0.0181121826171875;0.0626983642578125;-1.0174407958984375;-0.10911290347576141;-0.009295230731368065;0.0030309436842799187
0.0181121826171875;0.0626983642578125;-1.0174407958984375;-0.10911290347576141;-0.009295230731368065;0.0030309436842799187
0.0181121826171875;0.0626983642578125;-1.0174407958984375;-0.10911290347576141;-0.009295230731368065;0.0030309436842799187
0.0181121826171875;0.0626983642578125;-1.0174407958984375;-0.10911290347576141;-0.009295230731368065;0.0030309436842799187
0.0181121826171875;0.0626983642578125;-1.0174407958984375;-0.10911290347576141;-0.009295230731368065;0.0030309436842799187
0.0183868408203125;0.067291259765625;-1.0151519775390625;-0.10137934982776642;-0.014992797747254372;0.003631486324593425
0.0183868408203125;0.067291259765625;-1.0151519775390625;-0.10137934982776642;-0.014992797747254372;0.003631486324593425
0.0183868408203125;0.067291259765625;-1.0151519775390625;-0.10137934982776642;-0.014992797747254372;0.003631486324593425
0.0183868408203125;0.067291259765625;-1.0151519775390625;-0.10137934982776642;-0.014992797747254372;0.003631486324593425
0.0183868408203125;0.067291259765625;-1.0151519775390625;-0.10137934982776642;-0.014992797747254372;0.003631486324593425
0.01898193359375;0.0682373046875;-1.0149383544921875;-0.10119585692882538;-0.01672012358903885;0.004336957819759846
0.01898193359375;0.0682373046875;-1.0149383544921875;-0.10119585692882538;-0.01672012358903885;0.004336957819759846
0.01898193359375;0.0682373046875;-1.0149383544921875;-0.10119585692882538;-0.01672012358903885;0.004336957819759846
0.01898193359375;0.0682373046875;-1.0149383544921875;-0.10119585692882538;-0.01672012358903885;0.004336957819759846
0.01898193359375;0.0682373046875;-1.0149383544921875;-0.10119585692882538;-0.01672012358903885;0.004336957819759846
0.0192718505859375;0.0660400390625;-1.0076751708984375;-0.10782260447740555;-0.013187707401812077;0.0044469465501606464
0.0192718505859375;0.0660400390625;-1.0076751708984375;-0.10782260447740555;-0.013187707401812077;0.0044469465501606464
0.0192718505859375;0.0660400390625;-1.0076751708984375;-0.10782260447740555;-0.013187707401812077;0.0044469465501606464
0.0192718505859375;0.0660400390625;-1.0076751708984375;-0.10782260447740555;-0.013187707401812077;0.0044469465501606464
0.0192718505859375;0.0660400390625;-1.0076751708984375;-0.10782260447740555;-0.013187707401812077;0.0044469465501606464
0.01776123046875;0.06414794921875;-1.0038909912109375;-0.11638785898685455;-0.012956278398633003;0.0057311225682497025
0.01776123046875;0.06414794921875;-1.0038909912109375;-0.11638785898685455;-0.012956278398633003;0.0057311225682497025
0.01776123046875;0.06414794921875;-1.0038909912109375;-0.11638785898685455;-0.012956278398633003;0.0057311225682497025
0.01776123046875;0.06414794921875;-1.0038909912109375;-0.11638785898685455;-0.012956278398633003;0.0057311225682497025
0.01776123046875;0.06414794921875;-1.0038909912109375;-0.11638785898685455;-0.012956278398633003;0.0057311225682497025
0.0174560546875;0.06365966796875;-1.0062103271484375;-0.11216142773628235;-0.004591023549437523;0.006706638727337122
0.0174560546875;0.06365966796875;-1.0062103271484375;-0.11216142773628235;-0.004591023549437523;0.006706638727337122
0.0174560546875;0.06365966796875;-1.0062103271484375;-0.11216142773628235;-0.004591023549437523;0.006706638727337122
0.0174560546875;0.06365966796875;-1.0062103271484375;-0.11216142773628235;-0.004591023549437523;0.006706638727337122
0.0174560546875;0.06365966796875;-1.0062103271484375;-0.11216142773628235;-0.004591023549437523;0.006706638727337122
0.0192413330078125;0.0647430419921875;-1.00799560546875;-0.09774626791477203;-0.004712729714810848;0.01011015847325325
0.0192413330078125;0.0647430419921875;-1.00799560546875;-0.09774626791477203;-0.004712729714810848;0.01011015847325325
0.0192413330078125;0.0647430419921875;-1.00799560546875;-0.09774626791477203;-0.004712729714810848;0.01011015847325325
0.0192413330078125;0.0647430419921875;-1.00799560546875;-0.09774626791477203;-0.004712729714810848;0.01011015847325325
0.0192413330078125;0.0647430419921875;-1.00799560546875;-0.08747552335262299;-0.008817726746201515;0.01145984884351492
0.0211029052734375;0.0664215087890625;-1.0103759765625;-0.08747552335262299;-0.008817726746201515;0.01145984884351492
0.0211029052734375;0.0664215087890625;-1.0103759765625;-0.08747552335262299;-0.008817726746201515;0.01145984884351492
0.0211029052734375;0.0664215087890625;-1.0103759765625;-0.08747552335262299;-0.008817726746201515;0.01145984884351492
0.0211029052734375;0.0664215087890625;-1.0103759765625;-0.08747552335262299;-0.008817726746201515;0.01145984884351492
0.0211029052734375;0.0664215087890625;-1.0103759765625;-0.08747552335262299;-0.008817726746201515;0.01145984884351492
0.0211639404296875;0.070220947265625;-1.009429931640625;-0.06905017048120499;-0.005873601883649826;0.008247011341154575
0.0211639404296875;0.070220947265625;-1.009429931640625;-0.06905017048120499;-0.005873601883649826;0.008247011341154575
0.0211639404296875;0.070220947265625;-1.009429931640625;-0.06905017048120499;-0.005873601883649826;0.008247011341154575
0.0211639404296875;0.070220947265625;-1.009429931640625;-0.06905017048120499;-0.005873601883649826;0.008247011341154575
0.0211639404296875;0.070220947265625;-1.009429931640625;-0.06905017048120499;-0.005873601883649826;0.008247011341154575
0.021148681640625;0.072723388671875;-1.0124359130859375;-0.053404636681079865;-0.004988100845366716;0.006460029631853104
0.021148681640625;0.072723388671875;-1.0124359130859375;-0.053404636681079865;-0.004988100845366716;0.006460029631853104
0.021148681640625;0.072723388671875;-1.0124359130859375;-0.053404636681079865;-0.004988100845366716;0.006460029631853104
0.021148681640625;0.072723388671875;-1.0124359130859375;-0.053404636681079865;-0.004988100845366716;0.006460029631853104
0.021148681640625;0.072723388671875;-1.0124359130859375;-0.053404636681079865;-0.004988100845366716;0.006460029631853104
0.0213623046875;0.07232666015625;-1.01165771484375;-0.04465162381529808;-0.002163019496947527;0.007126086391508579
0.0213623046875;0.07232666015625;-1.01165771484375;-0.04465162381529808;-0.002163019496947527;0.007126086391508579
0.0213623046875;0.07232666015625;-1.01165771484375;-0.04465162381529808;-0.002163019496947527;0.007126086391508579
0.0213623046875;0.07232666015625;-1.01165771484375;-0.04465162381529808;-0.002163019496947527;0.007126086391508579
0.02069091796875;0.06976318359375;-1.0060577392578125;-0.04565856605768204;-0.003641606541350484;0.00015712650201749057
0.02069091796875;0.06976318359375;-1.0060577392578125;-0.04565856605768204;-0.003641606541350484;0.00015712650201749057
0.02069091796875;0.06976318359375;-1.0060577392578125;-0.04565856605768204;-0.003641606541350484;0.00015712650201749057
0.02069091796875;0.06976318359375;-1.0060577392578125;-0.04565856605768204;-0.003641606541350484;0.00015712650201749057
0.02069091796875;0.06976318359375;-1.0060577392578125;-0.04565856605768204;-0.003641606541350484;0.00015712650201749057
0.020843505859375;0.06793212890625;-1.0080108642578125;-0.04879177361726761;-0.007084274664521217;0.002897785510867834
0.020843505859375;0.06793212890625;-1.0080108642578125;-0.04879177361726761;-0.007084274664521217;0.002897785510867834
0.020843505859375;0.06793212890625;-1.0080108642578125;-0.04879177361726761;-0.007084274664521217;0.002897785510867834
0.020843505859375;0.06793212890625;-1.0080108642578125;-0.04879177361726761;-0.007084274664521217;0.002897785510867834
0.020843505859375;0.06793212890625;-1.0080108642578125;-0.04879177361726761;-0.007084274664521217;0.002897785510867834
0.020843505859375;0.06793212890625;-1.0080108642578125;-0.05475086346268654;-0.005771336145699024;0.0024583640042692423
0.021514892578125;0.065704345703125;-1.00970458984375;-0.05475086346268654;-0.005771336145699024;0.0024583640042692423
0.021514892578125;0.065704345703125;-1.00970458984375;-0.05475086346268654;-0.005771336145699024;0.0024583640042692423
0.021514892578125;0.065704345703125;-1.00970458984375;-0.05475086346268654;-0.005771336145699024;0.0024583640042692423
0.021514892578125;0.065704345703125;-1.00970458984375;-0.05475086346268654;-0.005771336145699024;0.0024583640042692423
0.0217742919921875;0.06304931640625;-1.0099334716796875;-0.06607489287853241;-0.00806192122399807;0.00236195744946599
0.0217742919921875;0.06304931640625;-1.0099334716796875;-0.06607489287853241;-0.00806192122399807;0.00236195744946599
0.0217742919921875;0.06304931640625;-1.0099334716796875;-0.06607489287853241;-0.00806192122399807;0.00236195744946599
0.0217742919921875;0.06304931640625;-1.0099334716796875;-0.06607489287853241;-0.00806192122399807;0.00236195744946599
0.0217742919921875;0.06304931640625;-1.0099334716796875;-0.06607489287853241;-0.00806192122399807;0.00236195744946599
0.0223236083984375;0.063720703125;-1.00909423828125;-0.0752851665019989;-0.0010242518037557602;0.0016405072528868914
0.0223236083984375;0.063720703125;-1.00909423828125;-0.0752851665019989;-0.0010242518037557602;0.0016405072528868914
0.0223236083984375;0.063720703125;-1.00909423828125;-0.0752851665019989;-0.0010242518037557602;0.0016405072528868914
0.0223236083984375;0.063720703125;-1.00909423828125;-0.0752851665019989;-0.0010242518037557602;0.0016405072528868914
0.0223236083984375;0.063720703125;-1.00909423828125;-0.0752851665019989;-0.0010242518037557602;0.0016405072528868914
0.0223236083984375;0.063720703125;-1.00909423828125;-0.0953744575381279;0.016563797369599342;0.00484322477132082
0.022247314453125;0.0642242431640625;-1.002777099609375;-0.0953744575381279;0.016563797369599342;0.00484322477132082
0.022247314453125;0.0642242431640625;-1.002777099609375;-0.0953744575381279;0.016563797369599342;0.00484322477132082
0.022247314453125;0.0642242431640625;-1.002777099609375;-0.0953744575381279;0.016563797369599342;0.00484322477132082
0.022247314453125;0.0642242431640625;-1.002777099609375;-0.0953744575381279;0.016563797369599342;0.00484322477132082
0.0202484130859375;0.064605712890625;-0.9937744140625;-0.11248739808797836;0.0191316157579422;0.003044259501621127
0.0202484130859375;0.064605712890625;-0.9937744140625;-0.11248739808797836;0.0191316157579422;0.003044259501621127
0.0202484130859375;0.064605712890625;-0.9937744140625;-0.11248739808797836;0.0191316157579422;0.003044259501621127
0.0202484130859375;0.064605712890625;-0.9937744140625;-0.11248739808797836;0.0191316157579422;0.003044259501621127
0.0202484130859375;0.064605712890625;-0.9937744140625;-0.11248739808797836;0.0191316157579422;0.003044259501621127
0.01959228515625;0.0688018798828125;-0.9990081787109375;-0.11411672085523605;0.02419748157262802;0.004244545940309763
0.01959228515625;0.0688018798828125;-0.9990081787109375;-0.11411672085523605;0.02419748157262802;0.004244545940309763
0.01959228515625;0.0688018798828125;-0.9990081787109375;-0.11411672085523605;0.02419748157262802;0.004244545940309763
0.01959228515625;0.0688018798828125;-0.9990081787109375;-0.11411672085523605;0.02419748157262802;0.004244545940309763
0.01959228515625;0.0688018798828125;-0.9990081787109375;-0.11411672085523605;0.02419748157262802;0.004244545940309763
0.0184173583984375;0.072967529296875;-1.0215301513671875;-0.08875276893377304;0.0016580841038376093;-0.00032916670897975564
0.0184173583984375;0.072967529296875;-1.0215301513671875;-0.08875276893377304;0.0016580841038376093;-0.00032916670897975564
0.0184173583984375;0.072967529296875;-1.0215301513671875;-0.08875276893377304;0.0016580841038376093;-0.00032916670897975564
0.0184173583984375;0.072967529296875;-1.0215301513671875;-0.08875276893377304;0.0016580841038376093;-0.00032916670897975564
0.0184173583984375;0.072967529296875;-1.0215301513671875;-0.08875276893377304;0.0016580841038376093;-0.00032916670897975564
0.0164794921875;0.0757293701171875;-1.0379486083984375;-0.07503669708967209;-0.01877768151462078;-0.0035987296141684055
0.0164794921875;0.0757293701171875;-1.0379486083984375;-0.07503669708967209;-0.01877768151462078;-0.0035987296141684055
0.0164794921875;0.0757293701171875;-1.0379486083984375;-0.07503669708967209;-0.01877768151462078;-0.0035987296141684055
0.0164794921875;0.0757293701171875;-1.0379486083984375;-0.07503669708967209;-0.01877768151462078;-0.0035987296141684055
0.0164794921875;0.0757293701171875;-1.0379486083984375;-0.07503669708967209;-0.01877768151462078;-0.0035987296141684055
0.0196380615234375;0.076904296875;-1.0184783935546875;-0.08513274043798447;-0.01661626063287258;0.0015662050573155284
0.0196380615234375;0.076904296875;-1.0184783935546875;-0.08513274043798447;-0.01661626063287258;0.0015662050573155284
0.0196380615234375;0.076904296875;-1.0184783935546875;-0.08513274043798447;-0.01661626063287258;0.0015662050573155284
0.0196380615234375;0.076904296875;-1.0184783935546875;-0.08513274043798447;-0.01661626063287258;0.0015662050573155284
0.0196380615234375;0.076904296875;-1.0184783935546875;-0.08513274043798447;-0.01661626063287258;0.0015662050573155284
0.021575927734375;0.0771484375;-1.002960205078125;-0.0984426811337471;-0.007105846423655748;0.005542038008570671
0.021575927734375;0.0771484375;-1.002960205078125;-0.0984426811337471;-0.007105846423655748;0.005542038008570671
0.021575927734375;0.0771484375;-1.002960205078125;-0.0984426811337471;-0.007105846423655748;0.005542038008570671
0.021575927734375;0.0771484375;-1.002960205078125;-0.0984426811337471;-0.007105846423655748;0.005542038008570671
0.021575927734375;0.0771484375;-1.002960205078125;-0.0984426811337471;-0.007105846423655748;0.005542038008570671
0.020904541015625;0.0778350830078125;-1.00811767578125;-0.10809478163719177;-0.00027750138542614877;0.003510312642902136
0.020904541015625;0.0778350830078125;-1.00811767578125;-0.10809478163719177;-0.00027750138542614877;0.003510312642902136
0.020904541015625;0.0778350830078125;-1.00811767578125;-0.10809478163719177;-0.00027750138542614877;0.003510312642902136
0.020904541015625;0.0778350830078125;-1.00811767578125;-0.10809478163719177;-0.00027750138542614877;0.003510312642902136
0.020904541015625;0.0778350830078125;-1.00811767578125;-0.10809478163719177;-0.00027750138542614877;0.003510312642902136
0.0204010009765625;0.0777435302734375;-1.010040283203125;-0.12535099685192108;0.009109608829021454;0.009873669594526291
0.0204010009765625;0.0777435302734375;-1.010040283203125;-0.12535099685192108;0.009109608829021454;0.009873669594526291
0.0204010009765625;0.0777435302734375;-1.010040283203125;-0.12535099685192108;0.009109608829021454;0.009873669594526291
0.0204010009765625;0.0777435302734375;-1.010040283203125;-0.12535099685192108;0.009109608829021454;0.009873669594526291
0.0204010009765625;0.0777435302734375;-1.010040283203125;-0.12535099685192108;0.009109608829021454;0.009873669594526291
0.02154541015625;0.0761260986328125;-1.0015411376953125;-0.1381906270980835;0.01492488756775856;0.013143764808773994
0.02154541015625;0.0761260986328125;-1.0015411376953125;-0.1381906270980835;0.01492488756775856;0.013143764808773994
0.02154541015625;0.0761260986328125;-1.0015411376953125;-0.1381906270980835;0.01492488756775856;0.013143764808773994
0.02154541015625;0.0761260986328125;-1.0015411376953125;-0.1381906270980835;0.01492488756775856;0.013143764808773994
0.02154541015625;0.0761260986328125;-1.0015411376953125;-0.1381906270980835;0.01492488756775856;0.013143764808773994
0.02154541015625;0.0765838623046875;-1.005279541015625;-0.13076014816761017;0.012762133963406086;0.009311210364103317
0.02154541015625;0.0765838623046875;-1.005279541015625;-0.13076014816761017;0.012762133963406086;0.009311210364103317
0.02154541015625;0.0765838623046875;-1.005279541015625;-0.13076014816761017;0.012762133963406086;0.009311210364103317
0.02154541015625;0.0765838623046875;-1.005279541015625;-0.13076014816761017;0.012762133963406086;0.009311210364103317
0.02154541015625;0.0765838623046875;-1.005279541015625;-0.13076014816761017;0.012762133963406086;0.009311210364103317
0.0222320556640625;0.0772857666015625;-1.0230255126953125;-0.11238326877355576;0.0027593011036515236;0.008559932000935078
0.0222320556640625;0.0772857666015625;-1.0230255126953125;-0.11238326877355576;0.0027593011036515236;0.008559932000935078
0.0222320556640625;0.0772857666015625;-1.0230255126953125;-0.11238326877355576;0.0027593011036515236;0.008559932000935078
0.0222320556640625;0.0772857666015625;-1.0230255126953125;-0.11238326877355576;0.0027593011036515236;0.008559932000935078
0.0222320556640625;0.0772857666015625;-1.0230255126953125;-0.11238326877355576;0.0027593011036515236;0.008559932000935078
0.0230712890625;0.078521728515625;-1.0279998779296875;-0.10464838147163391;0.00017230652156285942;0.007795072626322508
0.0230712890625;0.078521728515625;-1.0279998779296875;-0.10464838147163391;0.00017230652156285942;0.007795072626322508
0.0230712890625;0.078521728515625;-1.0279998779296875;-0.10464838147163391;0.00017230652156285942;0.007795072626322508
0.0230712890625;0.078521728515625;-1.0279998779296875;-0.10464838147163391;0.00017230652156285942;0.007795072626322508
0.0230712890625;0.078521728515625;-1.0279998779296875;-0.10464838147163391;0.00017230652156285942;0.007795072626322508
0.0230712890625;0.07879638671875;-1.0185089111328125;-0.11009401082992554;-2.7963191314483993e-05;0.008837966248393059
0.0230712890625;0.07879638671875;-1.0185089111328125;-0.11009401082992554;-2.7963191314483993e-05;0.008837966248393059
0.0230712890625;0.07879638671875;-1.0185089111328125;-0.11009401082992554;-2.7963191314483993e-05;0.008837966248393059
0.0230712890625;0.07879638671875;-1.0185089111328125;-0.11009401082992554;-2.7963191314483993e-05;0.008837966248393059
0.0230712890625;0.07879638671875;-1.0185089111328125;-0.11009401082992554;-2.7963191314483993e-05;0.008837966248393059
0.02203369140625;0.0789337158203125;-1.01068115234375;-0.1218273714184761;0.006880010478198528;0.005742307752370834
0.02203369140625;0.0789337158203125;-1.01068115234375;-0.1218273714184761;0.006880010478198528;0.005742307752370834
0.02203369140625;0.0789337158203125;-1.01068115234375;-0.1218273714184761;0.006880010478198528;0.005742307752370834
0.02203369140625;0.0789337158203125;-1.01068115234375;-0.1218273714184761;0.006880010478198528;0.005742307752370834
0.02203369140625;0.0789337158203125;-1.01068115234375;-0.1218273714184761;0.006880010478198528;0.005742307752370834
0.022186279296875;0.07977294921875;-1.0076751708984375;-0.12829378247261047;0.007386809680610895;0.008764463476836681
0.022186279296875;0.07977294921875;-1.0076751708984375;-0.12829378247261047;0.007386809680610895;0.008764463476836681
0.022186279296875;0.07977294921875;-1.0076751708984375;-0.12829378247261047;0.007386809680610895;0.008764463476836681
0.022186279296875;0.07977294921875;-1.0076751708984375;-0.12829378247261047;0.007386809680610895;0.008764463476836681
0.022186279296875;0.07977294921875;-1.0076751708984375;-0.12829378247261047;0.007386809680610895;0.008764463476836681
0.0226287841796875;0.082763671875;-1.0072021484375;-0.12748365104198456;0.0075844163075089455;0.0046418895944952965
0.0226287841796875;0.082763671875;-1.0072021484375;-0.12748365104198456;0.0075844163075089455;0.0046418895944952965
0.0226287841796875;0.082763671875;-1.0072021484375;-0.12748365104198456;0.0075844163075089455;0.0046418895944952965
0.0226287841796875;0.082763671875;-1.0072021484375;-0.12748365104198456;0.0075844163075089455;0.0046418895944952965
0.0226287841796875;0.082763671875;-1.0072021484375;-0.12748365104198456;0.0075844163075089455;0.0046418895944952965
0.0234375;0.0877227783203125;-1.0074615478515625;-0.12470971047878265;0.0067662931978702545;0.002837598090991378
0.0234375;0.0877227783203125;-1.0074615478515625;-0.12470971047878265;0.0067662931978702545;0.002837598090991378
0.0234375;0.0877227783203125;-1.0074615478515625;-0.12470971047878265;0.0067662931978702545;0.002837598090991378
0.0234375;0.0877227783203125;-1.0074615478515625;-0.12470971047878265;0.0067662931978702545;0.002837598090991378
0.0234375;0.0877227783203125;-1.0074615478515625;-0.12470971047878265;0.0067662931978702545;0.002837598090991378
0.024169921875;0.09259033203125;-1.0085601806640625;-0.12274829298257828;0.005664010997861624;0.0008530105114914477
0.024169921875;0.09259033203125;-1.0085601806640625;-0.12274829298257828;0.005664010997861624;0.0008530105114914477
0.024169921875;0.09259033203125;-1.0085601806640625;-0.12274829298257828;0.005664010997861624;0.0008530105114914477
0.024169921875;0.09259033203125;-1.0085601806640625;-0.12274829298257828;0.005664010997861624;0.0008530105114914477
0.024169921875;0.09259033203125;-1.0085601806640625;-0.12274829298257828;0.005664010997861624;0.0008530105114914477
0.0254058837890625;0.096343994140625;-1.0063934326171875;-0.11877618730068207;0.004310858901590109;0.00379021093249321
0.0254058837890625;0.096343994140625;-1.0063934326171875;-0.11877618730068207;0.004310858901590109;0.00379021093249321
0.0254058837890625;0.096343994140625;-1.0063934326171875;-0.11877618730068207;0.004310858901590109;0.00379021093249321
0.0254058837890625;0.096343994140625;-1.0063934326171875;-0.11877618730068207;0.004310858901590109;0.00379021093249321
0.0254058837890625;0.096343994140625;-1.0063934326171875;-0.11877618730068207;0.004310858901590109;0.00379021093249321
0.02606201171875;0.0987701416015625;-1.00445556640625;-0.11693886667490005;0.004370247479528189;0.001895105466246605
0.02606201171875;0.0987701416015625;-1.00445556640625;-0.11693886667490005;0.004370247479528189;0.001895105466246605
0.02606201171875;0.0987701416015625;-1.00445556640625;-0.11693886667490005;0.004370247479528189;0.001895105466246605
0.02606201171875;0.0987701416015625;-1.00445556640625;-0.11693886667490005;0.004370247479528189;0.001895105466246605
0.02606201171875;0.0987701416015625;-1.00445556640625;-0.11693886667490005;0.004370247479528189;0.001895105466246605
0.0248260498046875;0.0994415283203125;-1.0052642822265625;-0.11126447468996048;0.003549993736669421;0.0007523429812863469
0.0248260498046875;0.0994415283203125;-1.0052642822265625;-0.11126447468996048;0.003549993736669421;0.0007523429812863469
0.0248260498046875;0.0994415283203125;-1.0052642822265625;-0.11126447468996048;0.003549993736669421;0.0007523429812863469
0.0248260498046875;0.0994415283203125;-1.0052642822265625;-0.11126447468996048;0.003549993736669421;0.0007523429812863469
0.0248260498046875;0.0994415283203125;-1.0052642822265625;-0.11126447468996048;0.003549993736669421;0.0007523429812863469
0.0240631103515625;0.10052490234375;-1.008758544921875;-0.10215246677398682;0.002213619416579604;-0.0002348908019484952
0.0240631103515625;0.10052490234375;-1.008758544921875;-0.10215246677398682;0.002213619416579604;-0.0002348908019484952
0.0240631103515625;0.10052490234375;-1.008758544921875;-0.10215246677398682;0.002213619416579604;-0.0002348908019484952
0.0240631103515625;0.10052490234375;-1.008758544921875;-0.10215246677398682;0.002213619416579604;-0.0002348908019484952
0.0240631103515625;0.10052490234375;-1.008758544921875;-0.10215246677398682;0.002213619416579604;-0.0002348908019484952
0.023529052734375;0.0999603271484375;-1.0088958740234375;-0.09056185930967331;0.004720453172922134;0.000877511571161449
0.023529052734375;0.0999603271484375;-1.0088958740234375;-0.09056185930967331;0.004720453172922134;0.000877511571161449
0.023529052734375;0.0999603271484375;-1.0088958740234375;-0.09056185930967331;0.004720453172922134;0.000877511571161449
0.023529052734375;0.0999603271484375;-1.0088958740234375;-0.09056185930967331;0.004720453172922134;0.000877511571161449
0.023529052734375;0.0999603271484375;-1.0088958740234375;-0.09056185930967331;0.004720453172922134;0.000877511571161449
0.022430419921875;0.10028076171875;-1.0088043212890625;-0.09004360437393188;-0.0012258529895916581;0.003438939806073904
0.022430419921875;0.10028076171875;-1.0088043212890625;-0.09004360437393188;-0.0012258529895916581;0.003438939806073904
0.022430419921875;0.10028076171875;-1.0088043212890625;-0.09004360437393188;-0.0012258529895916581;0.003438939806073904
0.022430419921875;0.10028076171875;-1.0088043212890625;-0.09004360437393188;-0.0012258529895916581;0.003438939806073904
0.022430419921875;0.10028076171875;-1.0088043212890625;-0.09004360437393188;-0.0012258529895916581;0.003438939806073904
0.0222320556640625;0.09954833984375;-1.007080078125;-0.09331716597080231;-0.003254649229347706;0.002034388715401292
0.0222320556640625;0.09954833984375;-1.007080078125;-0.09331716597080231;-0.003254649229347706;0.002034388715401292
0.0222320556640625;0.09954833984375;-1.007080078125;-0.09331716597080231;-0.003254649229347706;0.002034388715401292
0.0222320556640625;0.09954833984375;-1.007080078125;-0.09331716597080231;-0.003254649229347706;0.002034388715401292
0.0222320556640625;0.09954833984375;-1.007080078125;-0.09331716597080231;-0.003254649229347706;0.002034388715401292
0.0217132568359375;0.0984954833984375;-1.0047607421875;-0.0952165275812149;-0.002855441300198436;0.0016261261189356446
0.0217132568359375;0.0984954833984375;-1.0047607421875;-0.0952165275812149;-0.002855441300198436;0.0016261261189356446
0.0217132568359375;0.0984954833984375;-1.0047607421875;-0.0952165275812149;-0.002855441300198436;0.0016261261189356446
0.0217132568359375;0.0984954833984375;-1.0047607421875;-0.0952165275812149;-0.002855441300198436;0.0016261261189356446
0.0217132568359375;0.0984954833984375;-1.0047607421875;-0.0952165275812149;-0.002855441300198436;0.0016261261189356446
0.0223541259765625;0.097686767578125;-1.0045166015625;-0.09585249423980713;0.0014165353495627642;-0.0006085322820581496
0.0223541259765625;0.097686767578125;-1.0045166015625;-0.09585249423980713;0.0014165353495627642;-0.0006085322820581496
0.0223541259765625;0.097686767578125;-1.0045166015625;-0.09585249423980713;0.0014165353495627642;-0.0006085322820581496
0.0223541259765625;0.097686767578125;-1.0045166015625;-0.09585249423980713;0.0014165353495627642;-0.0006085322820581496
0.0221710205078125;0.098419189453125;-1.00396728515625;-0.09773268550634384;-0.0004796353168785572;0.005084507167339325
0.0221710205078125;0.098419189453125;-1.00396728515625;-0.09773268550634384;-0.0004796353168785572;0.005084507167339325
0.0221710205078125;0.098419189453125;-1.00396728515625;-0.09773268550634384;-0.0004796353168785572;0.005084507167339325
0.0221710205078125;0.098419189453125;-1.00396728515625;-0.09773268550634384;-0.0004796353168785572;0.005084507167339325
0.0221710205078125;0.098419189453125;-1.00396728515625;-0.09773268550634384;-0.0004796353168785572;0.005084507167339325
0.0220489501953125;0.097991943359375;-1.0042266845703125;-0.09159649908542633;0.003913781605660915;0.004288222175091505
0.0220489501953125;0.097991943359375;-1.0042266845703125;-0.09159649908542633;0.003913781605660915;0.004288222175091505
0.0220489501953125;0.097991943359375;-1.0042266845703125;-0.09159649908542633;0.003913781605660915;0.004288222175091505
0.0220489501953125;0.097991943359375;-1.0042266845703125;-0.09159649908542633;0.003913781605660915;0.004288222175091505
0.0220489501953125;0.097991943359375;-1.0042266845703125;-0.09159649908542633;0.003913781605660915;0.004288222175091505
0.021636962890625;0.0985565185546875;-1.006103515625;-0.08503313362598419;0.0014482269762083888;0.002772883279249072
0.021636962890625;0.0985565185546875;-1.006103515625;-0.08503313362598419;0.0014482269762083888;0.002772883279249072
0.021636962890625;0.0985565185546875;-1.006103515625;-0.08503313362598419;0.0014482269762083888;0.002772883279249072
0.021636962890625;0.0985565185546875;-1.006103515625;-0.08503313362598419;0.0014482269762083888;0.002772883279249072
0.021636962890625;0.0985565185546875;-1.006103515625;-0.08503313362598419;0.0014482269762083888;0.002772883279249072
0.0206756591796875;0.1006622314453125;-1.0062408447265625;-0.07435864955186844;0.0011443602852523327;0.0034269557800143957
0.0206756591796875;0.1006622314453125;-1.0062408447265625;-0.07435864955186844;0.0011443602852523327;0.0034269557800143957
0.0206756591796875;0.1006622314453125;-1.0062408447265625;-0.07435864955186844;0.0011443602852523327;0.0034269557800143957
0.0206756591796875;0.1006622314453125;-1.0062408447265625;-0.07435864955186844;0.0011443602852523327;0.0034269557800143957
0.0206756591796875;0.1006622314453125;-1.0062408447265625;-0.07435864955186844;0.0011443602852523327;0.0034269557800143957
0.0203704833984375;0.101043701171875;-1.0086669921875;-0.0607277937233448;-0.0015725966077297926;0.0014599448768422008
0.0203704833984375;0.101043701171875;-1.0086669921875;-0.0607277937233448;-0.0015725966077297926;0.0014599448768422008
0.0203704833984375;0.101043701171875;-1.0086669921875;-0.0607277937233448;-0.0015725966077297926;0.0014599448768422008
0.0203704833984375;0.101043701171875;-1.0086669921875;-0.0607277937233448;-0.0015725966077297926;0.0014599448768422008
0.0203704833984375;0.101043701171875;-1.0086669921875;-0.0607277937233448;-0.0015725966077297926;0.0014599448768422008
0.0223388671875;0.10333251953125;-1.0086517333984375;-0.05261607468128204;-0.00740385428071022;0.0024029703345149755
0.0223388671875;0.10333251953125;-1.0086517333984375;-0.05261607468128204;-0.00740385428071022;0.0024029703345149755
0.0223388671875;0.10333251953125;-1.0086517333984375;-0.05261607468128204;-0.00740385428071022;0.0024029703345149755
0.0223388671875;0.10333251953125;-1.0086517333984375;-0.05261607468128204;-0.00740385428071022;0.0024029703345149755
0.0223388671875;0.10333251953125;-1.0086517333984375;-0.044144291430711746;-0.009012935683131218;0.000993625377304852
0.0226287841796875;0.1036224365234375;-1.011566162109375;-0.044144291430711746;-0.009012935683131218;0.000993625377304852
0.0226287841796875;0.1036224365234375;-1.011566162109375;-0.044144291430711746;-0.009012935683131218;0.000993625377304852
0.0226287841796875;0.1036224365234375;-1.011566162109375;-0.044144291430711746;-0.009012935683131218;0.000993625377304852
0.0226287841796875;0.1036224365234375;-1.011566162109375;-0.044144291430711746;-0.009012935683131218;0.000993625377304852
0.0226287841796875;0.1036224365234375;-1.011566162109375;-0.044144291430711746;-0.009012935683131218;0.000993625377304852
0.024261474609375;0.103790283203125;-1.0120086669921875;-0.047389887273311615;-0.009647833183407784;0.0019156117923557758
0.024261474609375;0.103790283203125;-1.0120086669921875;-0.047389887273311615;-0.009647833183407784;0.0019156117923557758
0.024261474609375;0.103790283203125;-1.0120086669921875;-0.047389887273311615;-0.009647833183407784;0.0019156117923557758
0.024261474609375;0.103790283203125;-1.0120086669921875;-0.047389887273311615;-0.009647833183407784;0.0019156117923557758
0.024261474609375;0.103790283203125;-1.0120086669921875;-0.06313662230968475;-0.0054818508215248585;0.001826662220992148
0.023773193359375;0.103271484375;-1.007171630859375;-0.06313662230968475;-0.0054818508215248585;0.001826662220992148
0.023773193359375;0.103271484375;-1.007171630859375;-0.06313662230968475;-0.0054818508215248585;0.001826662220992148
0.023773193359375;0.103271484375;-1.007171630859375;-0.06313662230968475;-0.0054818508215248585;0.001826662220992148
0.023773193359375;0.103271484375;-1.007171630859375;-0.06313662230968475;-0.0054818508215248585;0.001826662220992148
0.0220184326171875;0.102935791015625;-1.002349853515625;-0.07753606885671616;-0.0029830066487193108;0.0019097528420388699
0.0220184326171875;0.102935791015625;-1.002349853515625;-0.07753606885671616;-0.0029830066487193108;0.0019097528420388699
0.0220184326171875;0.102935791015625;-1.002349853515625;-0.07753606885671616;-0.0029830066487193108;0.0019097528420388699
0.0220184326171875;0.102935791015625;-1.002349853515625;-0.07753606885671616;-0.0029830066487193108;0.0019097528420388699
0.0220184326171875;0.102935791015625;-1.002349853515625;-0.07753606885671616;-0.0029830066487193108;0.0019097528420388699
0.0204925537109375;0.10333251953125;-1.0040740966796875;-0.08549652248620987;-0.004927380476146936;0.0017092167399823666
0.0204925537109375;0.10333251953125;-1.0040740966796875;-0.08549652248620987;-0.004927380476146936;0.0017092167399823666
0.0204925537109375;0.10333251953125;-1.0040740966796875;-0.08549652248620987;-0.004927380476146936;0.0017092167399823666
0.0204925537109375;0.10333251953125;-1.0040740966796875;-0.08549652248620987;-0.004927380476146936;0.0017092167399823666
0.0204925537109375;0.10333251953125;-1.0040740966796875;-0.08549652248620987;-0.004927380476146936;0.0017092167399823666
0.0204925537109375;0.10333251953125;-1.0040740966796875;-0.08509811758995056;-0.008754875510931015;0.004226170480251312
0.0206298828125;0.1041259765625;-1.0103759765625;-0.08509811758995056;-0.008754875510931015;0.004226170480251312
0.0206298828125;0.1041259765625;-1.0103759765625;-0.08509811758995056;-0.008754875510931015;0.004226170480251312
0.0206298828125;0.1041259765625;-1.0103759765625;-0.08509811758995056;-0.008754875510931015;0.004226170480251312
0.0206298828125;0.1041259765625;-1.0103759765625;-0.08509811758995056;-0.008754875510931015;0.004226170480251312
0.0223388671875;0.1052703857421875;-1.0113372802734375;-0.087913878262043;-0.0052264537662267685;0.005117796827107668
0.0223388671875;0.1052703857421875;-1.0113372802734375;-0.087913878262043;-0.0052264537662267685;0.005117796827107668
0.0223388671875;0.1052703857421875;-1.0113372802734375;-0.087913878262043;-0.0052264537662267685;0.005117796827107668
0.0223388671875;0.1052703857421875;-1.0113372802734375;-0.087913878262043;-0.0052264537662267685;0.005117796827107668
0.0223388671875;0.1052703857421875;-1.0113372802734375;-0.087913878262043;-0.0052264537662267685;0.005117796827107668
0.0226593017578125;0.10626220703125;-1.0085906982421875;-0.09333154559135437;-0.003049585735425353;0.0044173854403197765
0.0226593017578125;0.10626220703125;-1.0085906982421875;-0.09333154559135437;-0.003049585735425353;0.0044173854403197765
0.0226593017578125;0.10626220703125;-1.0085906982421875;-0.09333154559135437;-0.003049585735425353;0.0044173854403197765
0.0226593017578125;0.10626220703125;-1.0085906982421875;-0.09333154559135437;-0.003049585735425353;0.0044173854403197765
0.0226593017578125;0.10626220703125;-1.0085906982421875;-0.09333154559135437;-0.003049585735425353;0.0044173854403197765
0.0211944580078125;0.1073455810546875;-1.00848388671875;-0.09462424367666245;-0.0009536779834888875;0.0036698358599096537
0.0211944580078125;0.1073455810546875;-1.00848388671875;-0.09462424367666245;-0.0009536779834888875;0.0036698358599096537
0.0211944580078125;0.1073455810546875;-1.00848388671875;-0.09462424367666245;-0.0009536779834888875;0.0036698358599096537
0.0211944580078125;0.1073455810546875;-1.00848388671875;-0.09462424367666245;-0.0009536779834888875;0.0036698358599096537
0.0211944580078125;0.1073455810546875;-1.00848388671875;-0.09462424367666245;-0.0009536779834888875;0.0036698358599096537
0.020233154296875;0.1073760986328125;-1.011016845703125;-0.09562692046165466;-0.004887433256953955;0.001202150946483016
0.020233154296875;0.1073760986328125;-1.011016845703125;-0.09562692046165466;-0.004887433256953955;0.001202150946483016
0.020233154296875;0.1073760986328125;-1.011016845703125;-0.09562692046165466;-0.004887433256953955;0.001202150946483016
0.020233154296875;0.1073760986328125;-1.011016845703125;-0.09562692046165466;-0.004887433256953955;0.001202150946483016
0.020233154296875;0.1073760986328125;-1.011016845703125;-0.09562692046165466;-0.004887433256953955;0.001202150946483016
0.020843505859375;0.108154296875;-1.0106658935546875;-0.09294378757476807;-0.0016024239594116807;0.00130947632715106
0.020843505859375;0.108154296875;-1.0106658935546875;-0.09294378757476807;-0.0016024239594116807;0.00130947632715106
0.020843505859375;0.108154296875;-1.0106658935546875;-0.09294378757476807;-0.0016024239594116807;0.00130947632715106
0.020843505859375;0.108154296875;-1.0106658935546875;-0.09294378757476807;-0.0016024239594116807;0.00130947632715106
0.020843505859375;0.108154296875;-1.0106658935546875;-0.09294378757476807;-0.0016024239594116807;0.00130947632715106
0.02130126953125;0.109466552734375;-1.0085906982421875;-0.09377282857894897;-0.006298375781625509;0.0017499631503596902
0.02130126953125;0.109466552734375;-1.0085906982421875;-0.09377282857894897;-0.006298375781625509;0.0017499631503596902
0.02130126953125;0.109466552734375;-1.0085906982421875;-0.09377282857894897;-0.006298375781625509;0.0017499631503596902
0.02130126953125;0.109466552734375;-1.0085906982421875;-0.09377282857894897;-0.006298375781625509;0.0017499631503596902
0.02130126953125;0.109466552734375;-1.0085906982421875;-0.09377282857894897;-0.006298375781625509;0.0017499631503596902
0.0210723876953125;0.1116485595703125;-1.0098114013671875;-0.08766939491033554;-0.0049042110331356525;0.003579554846510291
0.0210723876953125;0.1116485595703125;-1.0098114013671875;-0.08766939491033554;-0.0049042110331356525;0.003579554846510291
0.0210723876953125;0.1116485595703125;-1.0098114013671875;-0.08766939491033554;-0.0049042110331356525;0.003579554846510291
0.0210723876953125;0.1116485595703125;-1.0098114013671875;-0.08766939491033554;-0.0049042110331356525;0.003579554846510291
0.0210723876953125;0.1116485595703125;-1.0098114013671875;-0.08766939491033554;-0.0049042110331356525;0.003579554846510291
0.020538330078125;0.11505126953125;-1.0108184814453125;-0.07785165309906006;-0.006178800016641617;0.0005637911963276565
0.020538330078125;0.11505126953125;-1.0108184814453125;-0.07785165309906006;-0.006178800016641617;0.0005637911963276565
0.020538330078125;0.11505126953125;-1.0108184814453125;-0.07785165309906006;-0.006178800016641617;0.0005637911963276565
0.020538330078125;0.11505126953125;-1.0108184814453125;-0.07785165309906006;-0.006178800016641617;0.0005637911963276565
0.020538330078125;0.11505126953125;-1.0108184814453125;-0.07785165309906006;-0.006178800016641617;0.0005637911963276565
0.02008056640625;0.1177825927734375;-1.009735107421875;-0.07594030350446701;-0.006901315413415432;0.0049343048594892025
0.02008056640625;0.1177825927734375;-1.009735107421875;-0.07594030350446701;-0.006901315413415432;0.0049343048594892025
0.02008056640625;0.1177825927734375;-1.009735107421875;-0.07594030350446701;-0.006901315413415432;0.0049343048594892025
0.02008056640625;0.1177825927734375;-1.009735107421875;-0.07594030350446701;-0.006901315413415432;0.0049343048594892025
0.02008056640625;0.1177825927734375;-1.009735107421875;-0.07594030350446701;-0.006901315413415432;0.0049343048594892025
0.0212554931640625;0.1180267333984375;-1.0060272216796875;-0.0775134339928627;-0.007574030198156834;0.00478330347687006
0.0212554931640625;0.1180267333984375;-1.0060272216796875;-0.0775134339928627;-0.007574030198156834;0.00478330347687006
0.0212554931640625;0.1180267333984375;-1.0060272216796875;-0.0775134339928627;-0.007574030198156834;0.00478330347687006
0.0212554931640625;0.1180267333984375;-1.0060272216796875;-0.0775134339928627;-0.007574030198156834;0.00478330347687006
0.0212554931640625;0.1180267333984375;-1.0060272216796875;-0.0775134339928627;-0.007574030198156834;0.00478330347687006
0.022003173828125;0.11822509765625;-1.0040130615234375;-0.07774246484041214;-0.007074421271681786;0.006109823938459158
0.022003173828125;0.11822509765625;-1.0040130615234375;-0.07774246484041214;-0.007074421271681786;0.006109823938459158
0.022003173828125;0.11822509765625;-1.0040130615234375;-0.07774246484041214;-0.007074421271681786;0.006109823938459158
0.022003173828125;0.11822509765625;-1.0040130615234375;-0.07774246484041214;-0.007074421271681786;0.006109823938459158
0.022003173828125;0.11822509765625;-1.0040130615234375;-0.07774246484041214;-0.007074421271681786;0.006109823938459158
0.022613525390625;0.1190643310546875;-1.0035400390625;-0.08422140032052994;-0.012222577817738056;0.005312207154929638
0.022613525390625;0.1190643310546875;-1.0035400390625;-0.08422140032052994;-0.012222577817738056;0.005312207154929638
0.022613525390625;0.1190643310546875;-1.0035400390625;-0.08422140032052994;-0.012222577817738056;0.005312207154929638
0.022613525390625;0.1190643310546875;-1.0035400390625;-0.08422140032052994;-0.012222577817738056;0.005312207154929638
0.022613525390625;0.1190643310546875;-1.0035400390625;-0.08422140032052994;-0.012222577817738056;0.005312207154929638
0.023223876953125;0.1215057373046875;-1.0034637451171875;-0.08369516581296921;-0.009856891818344593;0.005903162993490696
0.023223876953125;0.1215057373046875;-1.0034637451171875;-0.08369516581296921;-0.009856891818344593;0.005903162993490696
0.023223876953125;0.1215057373046875;-1.0034637451171875;-0.08369516581296921;-0.009856891818344593;0.005903162993490696
0.023223876953125;0.1215057373046875;-1.0034637451171875;-0.08369516581296921;-0.009856891818344593;0.005903162993490696
0.023223876953125;0.1215057373046875;-1.0034637451171875;-0.08369516581296921;-0.009856891818344593;0.005903162993490696
0.0246734619140625;0.122283935546875;-1.004180908203125;-0.08007832616567612;-0.010526943020522594;0.00421205535531044
0.0246734619140625;0.122283935546875;-1.004180908203125;-0.08007832616567612;-0.010526943020522594;0.00421205535531044
0.0246734619140625;0.122283935546875;-1.004180908203125;-0.08007832616567612;-0.010526943020522594;0.00421205535531044
0.0246734619140625;0.122283935546875;-1.004180908203125;-0.08007832616567612;-0.010526943020522594;0.00421205535531044
0.0246734619140625;0.122283935546875;-1.004180908203125;-0.08007832616567612;-0.010526943020522594;0.00421205535531044
0.0240020751953125;0.1224822998046875;-1.002410888671875;-0.078144870698452;-0.00893676932901144;0.003531085327267647
0.0240020751953125;0.1224822998046875;-1.002410888671875;-0.078144870698452;-0.00893676932901144;0.003531085327267647
0.0240020751953125;0.1224822998046875;-1.002410888671875;-0.078144870698452;-0.00893676932901144;0.003531085327267647
0.0240020751953125;0.1224822998046875;-1.002410888671875;-0.078144870698452;-0.00893676932901144;0.003531085327267647
0.0240020751953125;0.1224822998046875;-1.002410888671875;-0.078144870698452;-0.00893676932901144;0.003531085327267647
0.02301025390625;0.1230010986328125;-1.000885009765625;-0.07327181845903397;-0.010174873284995556;0.005633650813251734
0.02301025390625;0.1230010986328125;-1.000885009765625;-0.07327181845903397;-0.010174873284995556;0.005633650813251734
0.02301025390625;0.1230010986328125;-1.000885009765625;-0.07327181845903397;-0.010174873284995556;0.005633650813251734
0.02301025390625;0.1230010986328125;-1.000885009765625;-0.07327181845903397;-0.010174873284995556;0.005633650813251734
0.02301025390625;0.1230010986328125;-1.000885009765625;-0.07327181845903397;-0.010174873284995556;0.005633650813251734
0.0216217041015625;0.1235198974609375;-1.0009765625;-0.0697721540927887;-0.011432417668402195;0.006075202953070402
0.0216217041015625;0.1235198974609375;-1.0009765625;-0.0697721540927887;-0.011432417668402195;0.006075202953070402
0.0216217041015625;0.1235198974609375;-1.0009765625;-0.0697721540927887;-0.011432417668402195;0.006075202953070402
0.0216217041015625;0.1235198974609375;-1.0009765625;-0.0697721540927887;-0.011432417668402195;0.006075202953070402
0.0216217041015625;0.1235198974609375;-1.0009765625;-0.0697721540927887;-0.011432417668402195;0.006075202953070402
0.0214385986328125;0.1224822998046875;-1.000396728515625;-0.06725919991731644;-0.011411645449697971;0.004851480480283499
0.0214385986328125;0.1224822998046875;-1.000396728515625;-0.06725919991731644;-0.011411645449697971;0.004851480480283499
0.0214385986328125;0.1224822998046875;-1.000396728515625;-0.06725919991731644;-0.011411645449697971;0.004851480480283499
0.0214385986328125;0.1224822998046875;-1.000396728515625;-0.06725919991731644;-0.011411645449697971;0.004851480480283499
0.0214385986328125;0.1224822998046875;-1.000396728515625;-0.06725919991731644;-0.011411645449697971;0.004851480480283499
0.0196075439453125;0.121673583984375;-1.0008392333984375;-0.06148945912718773;-0.00824727676808834;0.005228051450103521
0.0196075439453125;0.121673583984375;-1.0008392333984375;-0.06148945912718773;-0.00824727676808834;0.005228051450103521
0.0196075439453125;0.121673583984375;-1.0008392333984375;-0.06148945912718773;-0.00824727676808834;0.005228051450103521
0.0196075439453125;0.121673583984375;-1.0008392333984375;-0.06148945912718773;-0.00824727676808834;0.005228051450103521
0.0196075439453125;0.121673583984375;-1.0008392333984375;-0.06148945912718773;-0.00824727676808834;0.005228051450103521
0.0201416015625;0.122833251953125;-1.0021820068359375;-0.05721854791045189;-0.008961803279817104;0.004027232062071562
0.0201416015625;0.122833251953125;-1.0021820068359375;-0.05721854791045189;-0.008961803279817104;0.004027232062071562
0.0201416015625;0.122833251953125;-1.0021820068359375;-0.05721854791045189;-0.008961803279817104;0.004027232062071562
0.0201416015625;0.122833251953125;-1.0021820068359375;-0.05721854791045189;-0.008961803279817104;0.004027232062071562
0.0201416015625;0.122833251953125;-1.0021820068359375;-0.05721854791045189;-0.008961803279817104;0.004027232062071562
0.02044677734375;0.122283935546875;-1.003448486328125;-0.04319114610552788;-0.009355951100587845;0.005735916085541248
0.02044677734375;0.122283935546875;-1.003448486328125;-0.04319114610552788;-0.009355951100587845;0.005735916085541248
0.02044677734375;0.122283935546875;-1.003448486328125;-0.04319114610552788;-0.009355951100587845;0.005735916085541248
0.02044677734375;0.122283935546875;-1.003448486328125;-0.04319114610552788;-0.009355951100587845;0.005735916085541248
0.02044677734375;0.122283935546875;-1.003448486328125;-0.04319114610552788;-0.009355951100587845;0.005735916085541248
0.0215606689453125;0.1234130859375;-1.0039215087890625;-0.03193476423621178;-0.008051801472902298;0.005195028148591518
0.0215606689453125;0.1234130859375;-1.0039215087890625;-0.03193476423621178;-0.008051801472902298;0.005195028148591518
0.0215606689453125;0.1234130859375;-1.0039215087890625;-0.03193476423621178;-0.008051801472902298;0.005195028148591518
0.0215606689453125;0.1234130859375;-1.0039215087890625;-0.03193476423621178;-0.008051801472902298;0.005195028148591518
0.0215606689453125;0.1234130859375;-1.0039215087890625;-0.03193476423621178;-0.008051801472902298;0.005195028148591518
0.02288818359375;0.124114990234375;-1.0041961669921875;-0.023395869880914688;-0.005261074751615524;0.0035180358681827784
0.02288818359375;0.124114990234375;-1.0041961669921875;-0.023395869880914688;-0.005261074751615524;0.0035180358681827784
0.02288818359375;0.124114990234375;-1.0041961669921875;-0.023395869880914688;-0.005261074751615524;0.0035180358681827784
0.02288818359375;0.124114990234375;-1.0041961669921875;-0.023395869880914688;-0.005261074751615524;0.0035180358681827784
0.02288818359375;0.124114990234375;-1.0041961669921875;-0.023395869880914688;-0.005261074751615524;0.0035180358681827784
0.022552490234375;0.1245880126953125;-1.0057830810546875;-0.01501197274774313;-0.002261822810396552;0.002558232517912984
0.022552490234375;0.1245880126953125;-1.0057830810546875;-0.01501197274774313;-0.002261822810396552;0.002558232517912984
0.022552490234375;0.1245880126953125;-1.0057830810546875;-0.01501197274774313;-0.002261822810396552;0.002558232517912984
0.022552490234375;0.1245880126953125;-1.0057830810546875;-0.01501197274774313;-0.002261822810396552;0.002558232517912984
0.022552490234375;0.1245880126953125;-1.0057830810546875;-0.01501197274774313;-0.002261822810396552;0.002558232517912984
0.0235595703125;0.12451171875;-1.0037384033203125;-0.01738245226442814;-0.0026234800461679697;0.0024517059791833162
0.0235595703125;0.12451171875;-1.0037384033203125;-0.01738245226442814;-0.0026234800461679697;0.0024517059791833162
0.0235595703125;0.12451171875;-1.0037384033203125;-0.01738245226442814;-0.0026234800461679697;0.0024517059791833162
0.0235595703125;0.12451171875;-1.0037384033203125;-0.01738245226442814;-0.0026234800461679697;0.0024517059791833162
0.0235595703125;0.12451171875;-1.0037384033203125;-0.01738245226442814;-0.0026234800461679697;0.0024517059791833162
0.023651123046875;0.123931884765625;-1.0037384033203125;-0.022432604804635048;-0.0024261397775262594;0.00029108350281603634
0.023651123046875;0.123931884765625;-1.0037384033203125;-0.022432604804635048;-0.0024261397775262594;0.00029108350281603634
0.023651123046875;0.123931884765625;-1.0037384033203125;-0.022432604804635048;-0.0024261397775262594;0.00029108350281603634
0.023651123046875;0.123931884765625;-1.0037384033203125;-0.022432604804635048;-0.0024261397775262594;0.00029108350281603634
0.023651123046875;0.123931884765625;-1.0037384033203125;-0.022432604804635048;-0.0024261397775262594;0.00029108350281603634
0.02392578125;0.123931884765625;-1.0053558349609375;-0.02882765419781208;-0.002864762442186475;0.0021486382465809584
0.02392578125;0.123931884765625;-1.0053558349609375;-0.02882765419781208;-0.002864762442186475;0.0021486382465809584
0.02392578125;0.123931884765625;-1.0053558349609375;-0.02882765419781208;-0.002864762442186475;0.0021486382465809584
0.02392578125;0.123931884765625;-1.0053558349609375;-0.02882765419781208;-0.002864762442186475;0.0021486382465809584
0.02392578125;0.123931884765625;-1.0053558349609375;-0.02882765419781208;-0.002864762442186475;0.0021486382465809584
0.0235595703125;0.12176513671875;-1.0074005126953125;-0.03181305527687073;-0.0008149272762238979;0.0029228192288428545
0.0235595703125;0.12176513671875;-1.0074005126953125;-0.03181305527687073;-0.0008149272762238979;0.0029228192288428545
0.0235595703125;0.12176513671875;-1.0074005126953125;-0.03181305527687073;-0.0008149272762238979;0.0029228192288428545
0.0235595703125;0.12176513671875;-1.0074005126953125;-0.03181305527687073;-0.0008149272762238979;0.0029228192288428545
0.0235595703125;0.12176513671875;-1.0074005126953125;-0.03181305527687073;-0.0008149272762238979;0.0029228192288428545
0.0223846435546875;0.1217193603515625;-1.006683349609375;-0.0341302715241909;0.0007739146240055561;0.0051843756809830666
0.0223846435546875;0.1217193603515625;-1.006683349609375;-0.0341302715241909;0.0007739146240055561;0.0051843756809830666
0.0223846435546875;0.1217193603515625;-1.006683349609375;-0.0341302715241909;0.0007739146240055561;0.0051843756809830666
0.0223846435546875;0.1217193603515625;-1.006683349609375;-0.0341302715241909;0.0007739146240055561;0.0051843756809830666
0.0223846435546875;0.1217193603515625;-1.006683349609375;-0.0341302715241909;0.0007739146240055561;0.0051843756809830666
0.0215301513671875;0.12249755859375;-1.006683349609375;-0.03555905818939209;-0.0013435647124424577;0.003226952161639929
0.0215301513671875;0.12249755859375;-1.006683349609375;-0.03555905818939209;-0.0013435647124424577;0.003226952161639929
0.0215301513671875;0.12249755859375;-1.006683349609375;-0.03555905818939209;-0.0013435647124424577;0.003226952161639929
0.0215301513671875;0.12249755859375;-1.006683349609375;-0.03555905818939209;-0.0013435647124424577;0.003226952161639929
0.0215301513671875;0.12249755859375;-1.006683349609375;-0.03555905818939209;-0.0013435647124424577;0.003226952161639929
0.0195770263671875;0.1233673095703125;-1.006256103515625;-0.03994342312216759;-0.003442135639488697;0.00170788518153131
0.0195770263671875;0.1233673095703125;-1.006256103515625;-0.03994342312216759;-0.003442135639488697;0.00170788518153131
0.0195770263671875;0.1233673095703125;-1.006256103515625;-0.03994342312216759;-0.003442135639488697;0.00170788518153131
0.0195770263671875;0.1233673095703125;-1.006256103515625;-0.03994342312216759;-0.003442135639488697;0.00170788518153131
0.0195770263671875;0.1233673095703125;-1.006256103515625;-0.03994342312216759;-0.003442135639488697;0.00170788518153131
0.0207366943359375;0.12359619140625;-1.0055084228515625;-0.047508928924798965;-0.0012785836588591337;0.0023939155507832766
0.0207366943359375;0.12359619140625;-1.0055084228515625;-0.047508928924798965;-0.0012785836588591337;0.0023939155507832766
0.0207366943359375;0.12359619140625;-1.0055084228515625;-0.047508928924798965;-0.0012785836588591337;0.0023939155507832766
0.0207366943359375;0.12359619140625;-1.0055084228515625;-0.047508928924798965;-0.0012785836588591337;0.0023939155507832766
0.0207366943359375;0.12359619140625;-1.0055084228515625;-0.047508928924798965;-0.0012785836588591337;0.0023939155507832766
0.0198974609375;0.123199462890625;-1.0047454833984375;-0.04988020658493042;0.00019627496658358723;0.0032237565610557795
0.0198974609375;0.123199462890625;-1.0047454833984375;-0.04988020658493042;0.00019627496658358723;0.0032237565610557795
0.0198974609375;0.123199462890625;-1.0047454833984375;-0.04988020658493042;0.00019627496658358723;0.0032237565610557795
0.0198974609375;0.123199462890625;-1.0047454833984375;-0.04988020658493042;0.00019627496658358723;0.0032237565610557795
0.0198974609375;0.123199462890625;-1.0047454833984375;-0.05071910470724106;-0.004756671842187643;0.0022503710351884365
0.0206298828125;0.124267578125;-1.0056915283203125;-0.05071910470724106;-0.004756671842187643;0.0022503710351884365
0.0206298828125;0.124267578125;-1.0056915283203125;-0.05071910470724106;-0.004756671842187643;0.0022503710351884365
0.0206298828125;0.124267578125;-1.0056915283203125;-0.05071910470724106;-0.004756671842187643;0.0022503710351884365
0.0206298828125;0.124267578125;-1.0056915283203125;-0.05071910470724106;-0.004756671842187643;0.0022503710351884365
0.0206298828125;0.124267578125;-1.0056915283203125;-0.05071910470724106;-0.004756671842187643;0.0022503710351884365
0.0217132568359375;0.1267852783203125;-1.0061187744140625;-0.04584445431828499;-0.0014535533264279366;0.001933454885147512
0.0217132568359375;0.1267852783203125;-1.0061187744140625;-0.04584445431828499;-0.0014535533264279366;0.001933454885147512
0.0217132568359375;0.1267852783203125;-1.0061187744140625;-0.04584445431828499;-0.0014535533264279366;0.001933454885147512
0.0217132568359375;0.1267852783203125;-1.0061187744140625;-0.04584445431828499;-0.0014535533264279366;0.001933454885147512
0.0217132568359375;0.1267852783203125;-1.0061187744140625;-0.04584445431828499;-0.0014535533264279366;0.001933454885147512
0.0220794677734375;0.128143310546875;-1.00634765625;-0.04458637535572052;-0.005001949146389961;0.004751345608383417
0.0220794677734375;0.128143310546875;-1.00634765625;-0.04458637535572052;-0.005001949146389961;0.004751345608383417
0.0220794677734375;0.128143310546875;-1.00634765625;-0.04458637535572052;-0.005001949146389961;0.004751345608383417
0.0220794677734375;0.128143310546875;-1.00634765625;-0.04458637535572052;-0.005001949146389961;0.004751345608383417
0.0220794677734375;0.128143310546875;-1.00634765625;-0.04360499978065491;-0.003939880523830652;0.0013132047606632113
0.02154541015625;0.12908935546875;-1.0048828125;-0.04360499978065491;-0.003939880523830652;0.0013132047606632113
0.02154541015625;0.12908935546875;-1.0048828125;-0.04360499978065491;-0.003939880523830652;0.0013132047606632113
0.02154541015625;0.12908935546875;-1.0048828125;-0.04360499978065491;-0.003939880523830652;0.0013132047606632113
0.02154541015625;0.12908935546875;-1.0048828125;-0.04360499978065491;-0.003939880523830652;0.0013132047606632113
0.0203704833984375;0.1297760009765625;-1.00531005859375;-0.044125914573669434;-0.005818474106490612;-0.000833036785479635
0.0203704833984375;0.1297760009765625;-1.00531005859375;-0.044125914573669434;-0.005818474106490612;-0.000833036785479635
0.0203704833984375;0.1297760009765625;-1.00531005859375;-0.044125914573669434;-0.005818474106490612;-0.000833036785479635
0.0203704833984375;0.1297760009765625;-1.00531005859375;-0.044125914573669434;-0.005818474106490612;-0.000833036785479635
0.0203704833984375;0.1297760009765625;-1.00531005859375;-0.044125914573669434;-0.005818474106490612;-0.000833036785479635
0.020263671875;0.130706787109375;-1.0047760009765625;-0.04220125079154968;-0.003623763332143426;0.0024048343766480684
0.020263671875;0.130706787109375;-1.0047760009765625;-0.04220125079154968;-0.003623763332143426;0.0024048343766480684
0.020263671875;0.130706787109375;-1.0047760009765625;-0.04220125079154968;-0.003623763332143426;0.0024048343766480684
0.020263671875;0.130706787109375;-1.0047760009765625;-0.04220125079154968;-0.003623763332143426;0.0024048343766480684
0.020263671875;0.130706787109375;-1.0047760009765625;-0.04220125079154968;-0.003623763332143426;0.0024048343766480684
0.02044677734375;0.1331329345703125;-1.0043487548828125;-0.039735693484544754;-0.004699414130300283;0.002888730727136135
0.02044677734375;0.1331329345703125;-1.0043487548828125;-0.039735693484544754;-0.004699414130300283;0.002888730727136135
0.02044677734375;0.1331329345703125;-1.0043487548828125;-0.039735693484544754;-0.004699414130300283;0.002888730727136135
0.02044677734375;0.1331329345703125;-1.0043487548828125;-0.039735693484544754;-0.004699414130300283;0.002888730727136135
0.02044677734375;0.1331329345703125;-1.0043487548828125;-0.039735693484544754;-0.004699414130300283;0.002888730727136135
0.020233154296875;0.1331939697265625;-1.00384521484375;-0.028482507914304733;-0.0036756948102265596;0.00236302288249135
0.020233154296875;0.1331939697265625;-1.00384521484375;-0.028482507914304733;-0.0036756948102265596;0.00236302288249135
0.020233154296875;0.1331939697265625;-1.00384521484375;-0.028482507914304733;-0.0036756948102265596;0.00236302288249135
0.020233154296875;0.1331939697265625;-1.00384521484375;-0.028482507914304733;-0.0036756948102265596;0.00236302288249135
0.020233154296875;0.1331939697265625;-1.00384521484375;-0.028482507914304733;-0.0036756948102265596;0.00236302288249135
0.0206756591796875;0.135040283203125;-1.00482177734375;-0.01955213025212288;-0.0032554480712860823;0.004190217703580856
0.0206756591796875;0.135040283203125;-1.00482177734375;-0.01955213025212288;-0.0032554480712860823;0.004190217703580856
0.0206756591796875;0.135040283203125;-1.00482177734375;-0.01955213025212288;-0.0032554480712860823;0.004190217703580856
0.0206756591796875;0.135040283203125;-1.00482177734375;-0.01955213025212288;-0.0032554480712860823;0.004190217703580856
0.0206756591796875;0.135040283203125;-1.00482177734375;-0.01955213025212288;-0.0032554480712860823;0.004190217703580856
0.0191650390625;0.1351776123046875;-1.0051727294921875;-0.010748517699539661;-0.006391054019331932;0.0024559672456234694
0.0191650390625;0.1351776123046875;-1.0051727294921875;-0.010748517699539661;-0.006391054019331932;0.0024559672456234694
0.0191650390625;0.1351776123046875;-1.0051727294921875;-0.010748517699539661;-0.006391054019331932;0.0024559672456234694
0.0191650390625;0.1351776123046875;-1.0051727294921875;-0.010748517699539661;-0.006391054019331932;0.0024559672456234694
0.0191650390625;0.1351776123046875;-1.0051727294921875;-0.010748517699539661;-0.006391054019331932;0.0024559672456234694
0.0193634033203125;0.135528564453125;-1.0023040771484375;-0.008950884453952312;-0.006584932096302509;0.0026554379146546125
0.0193634033203125;0.135528564453125;-1.0023040771484375;-0.008950884453952312;-0.006584932096302509;0.0026554379146546125
0.0193634033203125;0.135528564453125;-1.0023040771484375;-0.008950884453952312;-0.006584932096302509;0.0026554379146546125
0.0193634033203125;0.135528564453125;-1.0023040771484375;-0.008950884453952312;-0.006584932096302509;0.0026554379146546125
0.0193634033203125;0.135528564453125;-1.0023040771484375;-0.008950884453952312;-0.006584932096302509;0.0026554379146546125
0.019287109375;0.13311767578125;-0.999542236328125;-0.008588960394263268;-0.007252586539834738;0.0046482812613248825
0.019287109375;0.13311767578125;-0.999542236328125;-0.008588960394263268;-0.007252586539834738;0.0046482812613248825
0.019287109375;0.13311767578125;-0.999542236328125;-0.008588960394263268;-0.007252586539834738;0.0046482812613248825
0.019287109375;0.13311767578125;-0.999542236328125;-0.008588960394263268;-0.007252586539834738;0.0046482812613248825
0.019287109375;0.13311767578125;-0.999542236328125;-0.008588960394263268;-0.007252586539834738;0.0046482812613248825
0.019744873046875;0.131622314453125;-0.999786376953125;-0.003890611929818988;-0.0027835359796881676;0.004719121381640434
0.019744873046875;0.131622314453125;-0.999786376953125;-0.003890611929818988;-0.0027835359796881676;0.004719121381640434
0.019744873046875;0.131622314453125;-0.999786376953125;-0.003890611929818988;-0.0027835359796881676;0.004719121381640434
0.019744873046875;0.131622314453125;-0.999786376953125;-0.003890611929818988;-0.0027835359796881676;0.004719121381640434
0.019744873046875;0.131622314453125;-0.999786376953125;-0.003890611929818988;-0.0027835359796881676;0.004719121381640434
0.0207061767578125;0.131439208984375;-1.001220703125;0.0014559502014890313;-0.001567802974022925;0.006644853390753269
0.0207061767578125;0.131439208984375;-1.001220703125;0.0014559502014890313;-0.001567802974022925;0.006644853390753269
0.0207061767578125;0.131439208984375;-1.001220703125;0.0014559502014890313;-0.001567802974022925;0.006644853390753269
0.0207061767578125;0.131439208984375;-1.001220703125;0.0014559502014890313;-0.001567802974022925;0.006644853390753269
0.0207061767578125;0.131439208984375;-1.001220703125;0.0014559502014890313;-0.001567802974022925;0.006644853390753269
0.0208282470703125;0.1308441162109375;-1.0008697509765625;0.007239004597067833;-0.0004362257895991206;0.005376921966671944
0.0208282470703125;0.1308441162109375;-1.0008697509765625;0.007239004597067833;-0.0004362257895991206;0.005376921966671944
0.0208282470703125;0.1308441162109375;-1.0008697509765625;0.007239004597067833;-0.0004362257895991206;0.005376921966671944
0.0208282470703125;0.1308441162109375;-1.0008697509765625;0.007239004597067833;-0.0004362257895991206;0.005376921966671944
0.0208282470703125;0.1308441162109375;-1.0008697509765625;0.007239004597067833;-0.0004362257895991206;0.005376921966671944
0.0211639404296875;0.1304168701171875;-1.00518798828125;0.018203504383563995;0.0003097256412729621;0.006019010208547115
0.0211639404296875;0.1304168701171875;-1.00518798828125;0.018203504383563995;0.0003097256412729621;0.006019010208547115
0.0211639404296875;0.1304168701171875;-1.00518798828125;0.018203504383563995;0.0003097256412729621;0.006019010208547115
0.0211639404296875;0.1304168701171875;-1.00518798828125;0.018203504383563995;0.0003097256412729621;0.006019010208547115
0.0211639404296875;0.1304168701171875;-1.00518798828125;0.018203504383563995;0.0003097256412729621;0.006019010208547115
0.0225982666015625;0.1301116943359375;-1.002716064453125;0.01631079614162445;-0.0007089334540069103;0.0028099012561142445
0.0225982666015625;0.1301116943359375;-1.002716064453125;0.01631079614162445;-0.0007089334540069103;0.0028099012561142445
0.0225982666015625;0.1301116943359375;-1.002716064453125;0.01631079614162445;-0.0007089334540069103;0.0028099012561142445
0.0225982666015625;0.1301116943359375;-1.002716064453125;0.01631079614162445;-0.0007089334540069103;0.0028099012561142445
0.0225982666015625;0.1301116943359375;-1.002716064453125;0.01631079614162445;-0.0007089334540069103;0.0028099012561142445
0.0229339599609375;0.1286468505859375;-0.99908447265625;0.017713749781250954;-0.0023270701058208942;0.0025161546654999256
0.0229339599609375;0.1286468505859375;-0.99908447265625;0.017713749781250954;-0.0023270701058208942;0.0025161546654999256
0.0229339599609375;0.1286468505859375;-0.99908447265625;0.017713749781250954;-0.0023270701058208942;0.0025161546654999256
0.0229339599609375;0.1286468505859375;-0.99908447265625;0.017713749781250954;-0.0023270701058208942;0.0025161546654999256
0.0229339599609375;0.1286468505859375;-0.99908447265625;0.017713749781250954;-0.0023270701058208942;0.0025161546654999256
0.0227508544921875;0.1278839111328125;-1.001007080078125;0.0170905701816082;-0.0032003207597881556;0.0010689928894862533
0.0227508544921875;0.1278839111328125;-1.001007080078125;0.0170905701816082;-0.0032003207597881556;0.0010689928894862533
0.0227508544921875;0.1278839111328125;-1.001007080078125;0.0170905701816082;-0.0032003207597881556;0.0010689928894862533
0.0227508544921875;0.1278839111328125;-1.001007080078125;0.0170905701816082;-0.0032003207597881556;0.0010689928894862533
0.0227508544921875;0.1278839111328125;-1.001007080078125;0.0170905701816082;-0.0032003207597881556;0.0010689928894862533
0.022064208984375;0.1280670166015625;-1.0023651123046875;0.015587748028337955;-0.007899468764662743;0.0029196233954280615
0.022064208984375;0.1280670166015625;-1.0023651123046875;0.015587748028337955;-0.007899468764662743;0.0029196233954280615
0.022064208984375;0.1280670166015625;-1.0023651123046875;0.015587748028337955;-0.007899468764662743;0.0029196233954280615
0.022064208984375;0.1280670166015625;-1.0023651123046875;0.015587748028337955;-0.007899468764662743;0.0029196233954280615
0.022064208984375;0.1280670166015625;-1.0023651123046875;0.015587748028337955;-0.007899468764662743;0.0029196233954280615
0.0224761962890625;0.128692626953125;-1.000091552734375;0.015472167171537876;-0.008590025827288628;0.0002519350382499397
0.0224761962890625;0.128692626953125;-1.000091552734375;0.015472167171537876;-0.008590025827288628;0.0002519350382499397
0.0224761962890625;0.128692626953125;-1.000091552734375;0.015472167171537876;-0.008590025827288628;0.0002519350382499397
0.0224761962890625;0.128692626953125;-1.000091552734375;0.015472167171537876;-0.008590025827288628;0.0002519350382499397
0.0224761962890625;0.128692626953125;-1.000091552734375;0.015472167171537876;-0.008590025827288628;0.0002519350382499397
0.021728515625;0.1284332275390625;-1.00244140625;0.02081579901278019;-0.007236873731017113;-5.4328484111465514e-05
0.021728515625;0.1284332275390625;-1.00244140625;0.02081579901278019;-0.007236873731017113;-5.4328484111465514e-05
0.021728515625;0.1284332275390625;-1.00244140625;0.02081579901278019;-0.007236873731017113;-5.4328484111465514e-05
0.021728515625;0.1284332275390625;-1.00244140625;0.02081579901278019;-0.007236873731017113;-5.4328484111465514e-05
0.021728515625;0.1284332275390625;-1.00244140625;0.02081579901278019;-0.007236873731017113;-5.4328484111465514e-05
0.023040771484375;0.1293792724609375;-1.0050201416015625;0.02375965751707554;0.0024176177103072405;0.003840810852125287
0.023040771484375;0.1293792724609375;-1.0050201416015625;0.02375965751707554;0.0024176177103072405;0.003840810852125287
0.023040771484375;0.1293792724609375;-1.0050201416015625;0.02375965751707554;0.0024176177103072405;0.003840810852125287
0.023040771484375;0.1293792724609375;-1.0050201416015625;0.02375965751707554;0.0024176177103072405;0.003840810852125287
0.023040771484375;0.1293792724609375;-1.0050201416015625;0.02375965751707554;0.0024176177103072405;0.003840810852125287
0.0249481201171875;0.127532958984375;-0.9956512451171875;0.009180715307593346;0.016053535044193268;0.0037380128633230925
0.0249481201171875;0.127532958984375;-0.9956512451171875;0.009180715307593346;0.016053535044193268;0.0037380128633230925
0.0249481201171875;0.127532958984375;-0.9956512451171875;0.009180715307593346;0.016053535044193268;0.0037380128633230925
0.0249481201171875;0.127532958984375;-0.9956512451171875;0.009180715307593346;0.016053535044193268;0.0037380128633230925
0.0249481201171875;0.127532958984375;-0.9956512451171875;0.009180715307593346;0.016053535044193268;0.0037380128633230925
0.023651123046875;0.1267852783203125;-0.9894866943359375;0.001517202821560204;0.020920727401971817;0.0004894890007562935
0.023651123046875;0.1267852783203125;-0.9894866943359375;0.001517202821560204;0.020920727401971817;0.0004894890007562935
0.023651123046875;0.1267852783203125;-0.9894866943359375;0.001517202821560204;0.020920727401971817;0.0004894890007562935
0.023651123046875;0.1267852783203125;-0.9894866943359375;0.001517202821560204;0.020920727401971817;0.0004894890007562935
0.023651123046875;0.1267852783203125;-0.9894866943359375;0.001517202821560204;0.020920727401971817;0.0004894890007562935
0.0212860107421875;0.129547119140625;-1.0022430419921875;0.016694823279976845;0.009208678267896175;-0.0018032263033092022
0.0212860107421875;0.129547119140625;-1.0022430419921875;0.016694823279976845;0.009208678267896175;-0.0018032263033092022
0.0212860107421875;0.129547119140625;-1.0022430419921875;0.016694823279976845;0.009208678267896175;-0.0018032263033092022
0.0212860107421875;0.129547119140625;-1.0022430419921875;0.016694823279976845;0.009208678267896175;-0.0018032263033092022
0.0212860107421875;0.129547119140625;-1.0022430419921875;0.016694823279976845;0.009208678267896175;-0.0018032263033092022
0.018951416015625;0.132904052734375;-1.01959228515625;0.04448411241173744;-0.007558317389339209;-0.0029518476221710443
0.018951416015625;0.132904052734375;-1.01959228515625;0.04448411241173744;-0.007558317389339209;-0.0029518476221710443
0.018951416015625;0.132904052734375;-1.01959228515625;0.04448411241173744;-0.007558317389339209;-0.0029518476221710443
0.018951416015625;0.132904052734375;-1.01959228515625;0.04448411241173744;-0.007558317389339209;-0.0029518476221710443
0.018951416015625;0.132904052734375;-1.01959228515625;0.04448411241173744;-0.007558317389339209;-0.0029518476221710443
0.0180511474609375;0.1326751708984375;-1.0104217529296875;0.05004159361124039;-0.024170316755771637;-0.0016548882704228163
0.0180511474609375;0.1326751708984375;-1.0104217529296875;0.05004159361124039;-0.024170316755771637;-0.0016548882704228163
0.0180511474609375;0.1326751708984375;-1.0104217529296875;0.05004159361124039;-0.024170316755771637;-0.0016548882704228163
0.0180511474609375;0.1326751708984375;-1.0104217529296875;0.05004159361124039;-0.024170316755771637;-0.0016548882704228163
0.0180511474609375;0.1326751708984375;-1.0104217529296875;0.05004159361124039;-0.024170316755771637;-0.0016548882704228163
0.0196685791015625;0.1307373046875;-0.997802734375;0.04647295922040939;-0.019747871905565262;-0.0012937636347487569
0.0196685791015625;0.1307373046875;-0.997802734375;0.04647295922040939;-0.019747871905565262;-0.0012937636347487569
0.0196685791015625;0.1307373046875;-0.997802734375;0.04647295922040939;-0.019747871905565262;-0.0012937636347487569
0.0196685791015625;0.1307373046875;-0.997802734375;0.04647295922040939;-0.019747871905565262;-0.0012937636347487569
0.0196685791015625;0.1307373046875;-0.997802734375;0.04647295922040939;-0.019747871905565262;-0.0012937636347487569
0.021484375;0.129150390625;-1.0025634765625;0.037225931882858276;-0.01619574800133705;0.004185423720628023
0.021484375;0.129150390625;-1.0025634765625;0.037225931882858276;-0.01619574800133705;0.004185423720628023
0.021484375;0.129150390625;-1.0025634765625;0.037225931882858276;-0.01619574800133705;0.004185423720628023
0.021484375;0.129150390625;-1.0025634765625;0.037225931882858276;-0.01619574800133705;0.004185423720628023
0.021484375;0.129150390625;-1.0025634765625;0.037225931882858276;-0.01619574800133705;0.004185423720628023
0.0207977294921875;0.12591552734375;-1.0013427734375;0.02147280052304268;-0.01341887004673481;0.0035380094777792692
0.0207977294921875;0.12591552734375;-1.0013427734375;0.02147280052304268;-0.01341887004673481;0.0035380094777792692
0.0207977294921875;0.12591552734375;-1.0013427734375;0.02147280052304268;-0.01341887004673481;0.0035380094777792692
0.0207977294921875;0.12591552734375;-1.0013427734375;0.02147280052304268;-0.01341887004673481;0.0035380094777792692
0.0207977294921875;0.12591552734375;-1.0013427734375;0.02147280052304268;-0.01341887004673481;0.0035380094777792692
0.021453857421875;0.126220703125;-0.998199462890625;0.003436276689171791;-0.0037348170299082994;0.0060299295000731945
0.021453857421875;0.126220703125;-0.998199462890625;0.003436276689171791;-0.0037348170299082994;0.0060299295000731945
0.021453857421875;0.126220703125;-0.998199462890625;0.003436276689171791;-0.0037348170299082994;0.0060299295000731945
0.021453857421875;0.126220703125;-0.998199462890625;0.003436276689171791;-0.0037348170299082994;0.0060299295000731945
0.021453857421875;0.126220703125;-0.998199462890625;0.003436276689171791;-0.0037348170299082994;0.0060299295000731945
0.022308349609375;0.125;-0.9997711181640625;-0.005065065808594227;0.0036448021419346333;0.009315471164882183
0.022308349609375;0.125;-0.9997711181640625;-0.005065065808594227;0.0036448021419346333;0.009315471164882183
0.022308349609375;0.125;-0.9997711181640625;-0.005065065808594227;0.0036448021419346333;0.009315471164882183
0.022308349609375;0.125;-0.9997711181640625;-0.005065065808594227;0.0036448021419346333;0.009315471164882183
0.022308349609375;0.125;-0.9997711181640625;-0.005065065808594227;0.0036448021419346333;0.009315471164882183
0.0221405029296875;0.1239471435546875;-1.001434326171875;-0.004172640852630138;-0.0013190637109801173;0.006156961899250746
0.0221405029296875;0.1239471435546875;-1.001434326171875;-0.004172640852630138;-0.0013190637109801173;0.006156961899250746
0.0221405029296875;0.1239471435546875;-1.001434326171875;-0.004172640852630138;-0.0013190637109801173;0.006156961899250746
0.0221405029296875;0.1239471435546875;-1.001434326171875;-0.004172640852630138;-0.0013190637109801173;0.006156961899250746
0.0221405029296875;0.1239471435546875;-1.001434326171875;-0.004172640852630138;-0.0013190637109801173;0.006156961899250746
0.0213470458984375;0.12359619140625;-1.0087127685546875;0.009689644910395145;-0.006709568202495575;0.003165166825056076
0.0213470458984375;0.12359619140625;-1.0087127685546875;0.009689644910395145;-0.006709568202495575;0.003165166825056076
0.0213470458984375;0.12359619140625;-1.0087127685546875;0.009689644910395145;-0.006709568202495575;0.003165166825056076
0.0213470458984375;0.12359619140625;-1.0087127685546875;0.009689644910395145;-0.006709568202495575;0.003165166825056076
0.0213470458984375;0.12359619140625;-1.0087127685546875;0.009689644910395145;-0.006709568202495575;0.003165166825056076
0.0217437744140625;0.124969482421875;-1.0113677978515625;0.02034415304660797;-0.0070832096971571445;0.002299106912687421
0.0217437744140625;0.124969482421875;-1.0113677978515625;0.02034415304660797;-0.0070832096971571445;0.002299106912687421
0.0217437744140625;0.124969482421875;-1.0113677978515625;0.02034415304660797;-0.0070832096971571445;0.002299106912687421
0.0217437744140625;0.124969482421875;-1.0113677978515625;0.02034415304660797;-0.0070832096971571445;0.002299106912687421
0.0217437744140625;0.124969482421875;-1.0113677978515625;0.02034415304660797;-0.0070832096971571445;0.002299106912687421
0.0234832763671875;0.1264801025390625;-1.00823974609375;0.02527073584496975;-0.004093545023351908;-0.0020122844725847244
0.0234832763671875;0.1264801025390625;-1.00823974609375;0.02527073584496975;-0.004093545023351908;-0.0020122844725847244
0.0234832763671875;0.1264801025390625;-1.00823974609375;0.02527073584496975;-0.004093545023351908;-0.0020122844725847244
0.0234832763671875;0.1264801025390625;-1.00823974609375;0.02527073584496975;-0.004093545023351908;-0.0020122844725847244
0.0234832763671875;0.1264801025390625;-1.00823974609375;0.02527073584496975;-0.004093545023351908;-0.0020122844725847244
0.0240478515625;0.1258392333984375;-1.00518798828125;0.022063223645091057;-0.0024445154704153538;-0.0035121769178658724
0.0240478515625;0.1258392333984375;-1.00518798828125;0.022063223645091057;-0.0024445154704153538;-0.0035121769178658724
0.0240478515625;0.1258392333984375;-1.00518798828125;0.022063223645091057;-0.0024445154704153538;-0.0035121769178658724
0.0240478515625;0.1258392333984375;-1.00518798828125;0.022063223645091057;-0.0024445154704153538;-0.0035121769178658724
0.0240478515625;0.1258392333984375;-1.00518798828125;0.022063223645091057;-0.0024445154704153538;-0.0035121769178658724
0.02423095703125;0.1257171630859375;-1.001739501953125;0.017299894243478775;-0.00145222176797688;-0.002925216220319271
0.02423095703125;0.1257171630859375;-1.001739501953125;0.017299894243478775;-0.00145222176797688;-0.002925216220319271
0.02423095703125;0.1257171630859375;-1.001739501953125;0.017299894243478775;-0.00145222176797688;-0.002925216220319271
0.02423095703125;0.1257171630859375;-1.001739501953125;0.017299894243478775;-0.00145222176797688;-0.002925216220319271
0.02423095703125;0.1257171630859375;-1.001739501953125;0.017299894243478775;-0.00145222176797688;-0.002925216220319271
0.023712158203125;0.127685546875;-0.999969482421875;0.022729014977812767;0.0012692625168710947;-0.002868224401026964
0.023712158203125;0.127685546875;-0.999969482421875;0.022729014977812767;0.0012692625168710947;-0.002868224401026964
0.023712158203125;0.127685546875;-0.999969482421875;0.022729014977812767;0.0012692625168710947;-0.002868224401026964
0.023712158203125;0.127685546875;-0.999969482421875;0.022729014977812767;0.0012692625168710947;-0.002868224401026964
0.023712158203125;0.127685546875;-0.999969482421875;0.022729014977812767;0.0012692625168710947;-0.002868224401026964
0.0218353271484375;0.129119873046875;-1.001495361328125;0.028681712225079536;0.0003073287953156978;-0.00199364242143929
0.0218353271484375;0.129119873046875;-1.001495361328125;0.028681712225079536;0.0003073287953156978;-0.00199364242143929
0.0218353271484375;0.129119873046875;-1.001495361328125;0.028681712225079536;0.0003073287953156978;-0.00199364242143929
0.0218353271484375;0.129119873046875;-1.001495361328125;0.028681712225079536;0.0003073287953156978;-0.00199364242143929
0.0218353271484375;0.129119873046875;-1.001495361328125;0.028681712225079536;0.0003073287953156978;-0.00199364242143929
0.0204925537109375;0.1317596435546875;-1.0037078857421875;0.03863474354147911;0.001999501371756196;-0.0013664679136127234
0.0204925537109375;0.1317596435546875;-1.0037078857421875;0.03863474354147911;0.001999501371756196;-0.0013664679136127234
0.0204925537109375;0.1317596435546875;-1.0037078857421875;0.03863474354147911;0.001999501371756196;-0.0013664679136127234
0.0204925537109375;0.1317596435546875;-1.0037078857421875;0.03863474354147911;0.001999501371756196;-0.0013664679136127234
0.0204925537109375;0.1317596435546875;-1.0037078857421875;0.0494607612490654;-0.0013435647124424577;-0.0006865629111416638
0.0200958251953125;0.13232421875;-1.0062255859375;0.0494607612490654;-0.0013435647124424577;-0.0006865629111416638
0.0200958251953125;0.13232421875;-1.0062255859375;0.0494607612490654;-0.0013435647124424577;-0.0006865629111416638
0.0200958251953125;0.13232421875;-1.0062255859375;0.0494607612490654;-0.0013435647124424577;-0.0006865629111416638
0.0200958251953125;0.13232421875;-1.0062255859375;0.0494607612490654;-0.0013435647124424577;-0.0006865629111416638
0.0200958251953125;0.13232421875;-1.0062255859375;0.061649248003959656;0.00015233281010296196;-0.0006780407857149839
0.0202789306640625;0.130950927734375;-1.00677490234375;0.061649248003959656;0.00015233281010296196;-0.0006780407857149839
0.0202789306640625;0.130950927734375;-1.00677490234375;0.061649248003959656;0.00015233281010296196;-0.0006780407857149839
0.0202789306640625;0.130950927734375;-1.00677490234375;0.061649248003959656;0.00015233281010296196;-0.0006780407857149839
0.0202789306640625;0.130950927734375;-1.00677490234375;0.061649248003959656;0.00015233281010296196;-0.0006780407857149839
0.0202789306640625;0.130950927734375;-1.00677490234375;0.06851141899824142;0.00313001312315464;0.0017656758427619934
0.0196685791015625;0.12799072265625;-1.004852294921875;0.06851141899824142;0.00313001312315464;0.0017656758427619934
0.0196685791015625;0.12799072265625;-1.004852294921875;0.06851141899824142;0.00313001312315464;0.0017656758427619934
0.0196685791015625;0.12799072265625;-1.004852294921875;0.06851141899824142;0.00313001312315464;0.0017656758427619934
0.0196685791015625;0.12799072265625;-1.004852294921875;0.06851141899824142;0.00313001312315464;0.0017656758427619934
0.0203704833984375;0.1260833740234375;-1.004913330078125;0.07568170875310898;0.005510346498340368;0.0011709919199347496
0.0203704833984375;0.1260833740234375;-1.004913330078125;0.07568170875310898;0.005510346498340368;0.0011709919199347496
0.0203704833984375;0.1260833740234375;-1.004913330078125;0.07568170875310898;0.005510346498340368;0.0011709919199347496
0.0203704833984375;0.1260833740234375;-1.004913330078125;0.07568170875310898;0.005510346498340368;0.0011709919199347496
0.0203704833984375;0.1260833740234375;-1.004913330078125;0.07568170875310898;0.005510346498340368;0.0011709919199347496
0.0203704833984375;0.1260833740234375;-1.004913330078125;0.0840538889169693;0.005628590937703848;0.0027739484794437885
0.0207977294921875;0.125;-1.00408935546875;0.0840538889169693;0.005628590937703848;0.0027739484794437885
0.0207977294921875;0.125;-1.00408935546875;0.0840538889169693;0.005628590937703848;0.0027739484794437885
0.0207977294921875;0.125;-1.00408935546875;0.0840538889169693;0.005628590937703848;0.0027739484794437885
0.0207977294921875;0.125;-1.00408935546875;0.0840538889169693;0.005628590937703848;0.0027739484794437885
0.020721435546875;0.1221466064453125;-1.0042877197265625;0.08878712356090546;0.004447212442755699;0.0007725830073468387
0.020721435546875;0.1221466064453125;-1.0042877197265625;0.08878712356090546;0.004447212442755699;0.0007725830073468387
0.020721435546875;0.1221466064453125;-1.0042877197265625;0.08878712356090546;0.004447212442755699;0.0007725830073468387
0.020721435546875;0.1221466064453125;-1.0042877197265625;0.08878712356090546;0.004447212442755699;0.0007725830073468387
0.020721435546875;0.1221466064453125;-1.0042877197265625;0.08878712356090546;0.004447212442755699;0.0007725830073468387
0.0203399658203125;0.11962890625;-1.0042572021484375;0.09414700418710709;0.00785499345511198;0.002826412906870246
0.0203399658203125;0.11962890625;-1.0042572021484375;0.09414700418710709;0.00785499345511198;0.002826412906870246
0.0203399658203125;0.11962890625;-1.0042572021484375;0.09414700418710709;0.00785499345511198;0.002826412906870246
0.0203399658203125;0.11962890625;-1.0042572021484375;0.09414700418710709;0.00785499345511198;0.002826412906870246
0.0203399658203125;0.11962890625;-1.0042572021484375;0.09414700418710709;0.00785499345511198;0.002826412906870246
0.0197296142578125;0.117218017578125;-1.0046234130859375;0.10064271837472916;0.0071007865481078625;0.0036514601670205593
0.0197296142578125;0.117218017578125;-1.0046234130859375;0.10064271837472916;0.0071007865481078625;0.0036514601670205593
0.0197296142578125;0.117218017578125;-1.0046234130859375;0.10064271837472916;0.0071007865481078625;0.0036514601670205593
0.0197296142578125;0.117218017578125;-1.0046234130859375;0.10064271837472916;0.0071007865481078625;0.0036514601670205593
0.0197296142578125;0.117218017578125;-1.0046234130859375;0.10064271837472916;0.0071007865481078625;0.0036514601670205593
0.0209808349609375;0.1160125732421875;-1.0041961669921875;0.10403265804052353;0.002448510378599167;0.0023883229587227106
0.0209808349609375;0.1160125732421875;-1.0041961669921875;0.10403265804052353;0.002448510378599167;0.0023883229587227106
0.0209808349609375;0.1160125732421875;-1.0041961669921875;0.10403265804052353;0.002448510378599167;0.0023883229587227106
0.0209808349609375;0.1160125732421875;-1.0041961669921875;0.10403265804052353;0.002448510378599167;0.0023883229587227106
0.0209808349609375;0.1160125732421875;-1.0041961669921875;0.10403265804052353;0.002448510378599167;0.0023883229587227106
0.02093505859375;0.1151885986328125;-1.00555419921875;0.10707692056894302;0.005915413144975901;-0.000287088769255206
0.02093505859375;0.1151885986328125;-1.00555419921875;0.10707692056894302;0.005915413144975901;-0.000287088769255206
0.02093505859375;0.1151885986328125;-1.00555419921875;0.10707692056894302;0.005915413144975901;-0.000287088769255206
0.02093505859375;0.1151885986328125;-1.00555419921875;0.10707692056894302;0.005915413144975901;-0.000287088769255206
0.02093505859375;0.1151885986328125;-1.00555419921875;0.10707692056894302;0.005915413144975901;-0.000287088769255206
0.0211639404296875;0.1138763427734375;-1.0049591064453125;0.1079094186425209;0.0018453042721375823;0.0018676748732104897
0.0211639404296875;0.1138763427734375;-1.0049591064453125;0.1079094186425209;0.0018453042721375823;0.0018676748732104897
0.0211639404296875;0.1138763427734375;-1.0049591064453125;0.1079094186425209;0.0018453042721375823;0.0018676748732104897
0.0211639404296875;0.1138763427734375;-1.0049591064453125;0.1079094186425209;0.0018453042721375823;0.0018676748732104897
0.0211639404296875;0.1138763427734375;-1.0049591064453125;0.1079094186425209;0.0018453042721375823;0.0018676748732104897
0.0203857421875;0.11285400390625;-1.0054168701171875;0.10660447180271149;-0.0012479572324082255;0.0018290589796379209
0.0203857421875;0.11285400390625;-1.0054168701171875;0.10660447180271149;-0.0012479572324082255;0.0018290589796379209
0.0203857421875;0.11285400390625;-1.0054168701171875;0.10660447180271149;-0.0012479572324082255;0.0018290589796379209
0.0203857421875;0.11285400390625;-1.0054168701171875;0.10660447180271149;-0.0012479572324082255;0.0018290589796379209
0.0203857421875;0.11285400390625;-1.0054168701171875;0.10660447180271149;-0.0012479572324082255;0.0018290589796379209
0.0207061767578125;0.1136627197265625;-1.0054779052734375;0.10941676795482635;-0.0007217166712507606;-0.0019270633347332478
0.0207061767578125;0.1136627197265625;-1.0054779052734375;0.10941676795482635;-0.0007217166712507606;-0.0019270633347332478
0.0207061767578125;0.1136627197265625;-1.0054779052734375;0.10941676795482635;-0.0007217166712507606;-0.0019270633347332478
0.0207061767578125;0.1136627197265625;-1.0054779052734375;0.10941676795482635;-0.0007217166712507606;-0.0019270633347332478
0.0207061767578125;0.1136627197265625;-1.0054779052734375;0.10941676795482635;-0.0007217166712507606;-0.0019270633347332478
0.0218048095703125;0.1124114990234375;-1.006683349609375;0.11302588880062103;-0.000580036488827318;0.0006032059900462627
0.0218048095703125;0.1124114990234375;-1.006683349609375;0.11302588880062103;-0.000580036488827318;0.0006032059900462627
0.0218048095703125;0.1124114990234375;-1.006683349609375;0.11302588880062103;-0.000580036488827318;0.0006032059900462627
0.0218048095703125;0.1124114990234375;-1.006683349609375;0.11302588880062103;-0.000580036488827318;0.0006032059900462627
0.02215576171875;0.1107635498046875;-1.0083160400390625;0.11225836724042892;-0.0016021577175706625;0.001526523963548243
0.02215576171875;0.1107635498046875;-1.0083160400390625;0.11225836724042892;-0.0016021577175706625;0.001526523963548243
0.02215576171875;0.1107635498046875;-1.0083160400390625;0.11225836724042892;-0.0016021577175706625;0.001526523963548243
