Acell X;Acell Y;Acell Z;Gyro X;Gyro Y;Gyro Z

0.01373291015625;0.049896240234375;-1.01025390625;-0.059063319116830826;0.009522132575511932;0.0041156490333378315
0.012237548828125;0.0597076416015625;-1.0034027099609375;-0.047511059790849686;-0.007281082216650248;0.0028788771014660597
0.012237548828125;0.0597076416015625;-1.0034027099609375;-0.047511059790849686;-0.007281082216650248;0.0028788771014660597
0.012237548828125;0.0597076416015625;-1.0034027099609375;-0.047511059790849686;-0.007281082216650248;0.0028788771014660597
0.012237548828125;0.0597076416015625;-1.0034027099609375;-0.047511059790849686;-0.007281082216650248;0.0028788771014660597
0.0206451416015625;0.055023193359375;-1.0142364501953125;-0.028742698952555656;-0.010146643966436386;0.0008327704854309559
0.0206451416015625;0.055023193359375;-1.0142364501953125;-0.028742698952555656;-0.010146643966436386;0.0008327704854309559
0.0206451416015625;0.055023193359375;-1.0142364501953125;-0.028742698952555656;-0.010146643966436386;0.0008327704854309559
0.0206451416015625;0.055023193359375;-1.0142364501953125;-0.028742698952555656;-0.010146643966436386;0.0008327704854309559
0.0206451416015625;0.055023193359375;-1.0142364501953125;-0.028742698952555656;-0.010146643966436386;0.0008327704854309559
0.0191802978515625;0.05419921875;-1.0110931396484375;-0.020020313560962677;-0.004535629414021969;-0.0014559502014890313
0.0191802978515625;0.05419921875;-1.0110931396484375;-0.020020313560962677;-0.004535629414021969;-0.0014559502014890313
0.0191802978515625;0.05419921875;-1.0110931396484375;-0.020020313560962677;-0.004535629414021969;-0.0014559502014890313
0.0191802978515625;0.05419921875;-1.0110931396484375;-0.020020313560962677;-0.004535629414021969;-0.0014559502014890313
0.0191802978515625;0.05419921875;-1.0110931396484375;-0.020020313560962677;-0.004535629414021969;-0.0014559502014890313
0.0176544189453125;0.05419921875;-1.0094146728515625;-0.01495285052806139;-0.005655222572386265;0.0008391620358452201
0.0176544189453125;0.05419921875;-1.0094146728515625;-0.01495285052806139;-0.005655222572386265;0.0008391620358452201
0.0176544189453125;0.05419921875;-1.0094146728515625;-0.01495285052806139;-0.005655222572386265;0.0008391620358452201
0.0176544189453125;0.05419921875;-1.0094146728515625;-0.01495285052806139;-0.005655222572386265;0.0008391620358452201
0.0176544189453125;0.05419921875;-1.0094146728515625;-0.01495285052806139;-0.005655222572386265;0.0008391620358452201
0.0164947509765625;0.0532989501953125;-1.0107574462890625;-0.013889716938138008;-0.0079735042527318;-4.793690095539205e-05
0.0164947509765625;0.0532989501953125;-1.0107574462890625;-0.013889716938138008;-0.0079735042527318;-4.793690095539205e-05
0.0164947509765625;0.0532989501953125;-1.0107574462890625;-0.013889716938138008;-0.0079735042527318;-4.793690095539205e-05
0.0164947509765625;0.0532989501953125;-1.0107574462890625;-0.013889716938138008;-0.0079735042527318;-4.793690095539205e-05
0.0164947509765625;0.0532989501953125;-1.0107574462890625;-0.013889716938138008;-0.0079735042527318;-4.793690095539205e-05
0.015899658203125;0.0518646240234375;-1.0126495361328125;-0.012355469167232513;-0.0020365193486213684;-0.001710548298433423
0.015899658203125;0.0518646240234375;-1.0126495361328125;-0.012355469167232513;-0.0020365193486213684;-0.001710548298433423
0.015899658203125;0.0518646240234375;-1.0126495361328125;-0.012355469167232513;-0.0020365193486213684;-0.001710548298433423
0.015899658203125;0.0518646240234375;-1.0126495361328125;-0.012355469167232513;-0.0020365193486213684;-0.001710548298433423
0.015899658203125;0.0518646240234375;-1.0126495361328125;-0.012355469167232513;-0.0020365193486213684;-0.001710548298433423
0.01519775390625;0.05072021484375;-1.0116119384765625;-0.012708604335784912;-0.003428020980209112;0.0005704491049982607
0.01519775390625;0.05072021484375;-1.0116119384765625;-0.012708604335784912;-0.003428020980209112;0.0005704491049982607
0.01519775390625;0.05072021484375;-1.0116119384765625;-0.012708604335784912;-0.003428020980209112;0.0005704491049982607
0.01519775390625;0.05072021484375;-1.0116119384765625;-0.012708604335784912;-0.003428020980209112;0.0005704491049982607
0.01519775390625;0.05072021484375;-1.0116119384765625;-0.012708604335784912;-0.003428020980209112;0.0005704491049982607
0.014678955078125;0.050994873046875;-1.011749267578125;-0.014059626497328281;-0.002403769176453352;0.0004324973560869694
0.014678955078125;0.050994873046875;-1.011749267578125;-0.014059626497328281;-0.002403769176453352;0.0004324973560869694
0.014678955078125;0.050994873046875;-1.011749267578125;-0.014059626497328281;-0.002403769176453352;0.0004324973560869694
0.014678955078125;0.050994873046875;-1.011749267578125;-0.014059626497328281;-0.002403769176453352;0.0004324973560869694
0.014678955078125;0.050994873046875;-1.011749267578125;-0.014059626497328281;-0.002403769176453352;0.0004324973560869694
0.01416015625;0.0511322021484375;-1.012176513671875;-0.015509450808167458;-0.0054389736615121365;-0.0006716492353007197
0.01416015625;0.0511322021484375;-1.012176513671875;-0.015509450808167458;-0.0054389736615121365;-0.0006716492353007197
0.01416015625;0.0511322021484375;-1.012176513671875;-0.015509450808167458;-0.0054389736615121365;-0.0006716492353007197
0.01416015625;0.0511322021484375;-1.012176513671875;-0.015509450808167458;-0.0054389736615121365;-0.0006716492353007197
0.01416015625;0.0511322021484375;-1.012176513671875;-0.015509450808167458;-0.0054389736615121365;-0.0006716492353007197
0.0146331787109375;0.051177978515625;-1.0122528076171875;-0.01146623957902193;-0.0014053500490263104;0.0004902879591099918
0.0146331787109375;0.051177978515625;-1.0122528076171875;-0.01146623957902193;-0.0014053500490263104;0.0004902879591099918
0.0146331787109375;0.051177978515625;-1.0122528076171875;-0.01146623957902193;-0.0014053500490263104;0.0004902879591099918
0.0146331787109375;0.051177978515625;-1.0122528076171875;-0.01146623957902193;-0.0014053500490263104;0.0004902879591099918
0.0146331787109375;0.051177978515625;-1.0122528076171875;-0.01146623957902193;-0.0014053500490263104;0.0004902879591099918
0.015777587890625;0.0509796142578125;-1.0122833251953125;-0.010971158742904663;-0.0018852517241612077;0.003498328384011984
0.015777587890625;0.0509796142578125;-1.0122833251953125;-0.010971158742904663;-0.0018852517241612077;0.003498328384011984
0.015777587890625;0.0509796142578125;-1.0122833251953125;-0.010971158742904663;-0.0018852517241612077;0.003498328384011984
0.015777587890625;0.0509796142578125;-1.0122833251953125;-0.010971158742904663;-0.0018852517241612077;0.003498328384011984
0.015777587890625;0.0509796142578125;-1.0122833251953125;-0.010971158742904663;-0.0018852517241612077;0.003498328384011984
0.0169219970703125;0.0523834228515625;-1.0111236572265625;-0.01184840314090252;-0.0010881676571443677;0.0012833772925660014
0.0169219970703125;0.0523834228515625;-1.0111236572265625;-0.01184840314090252;-0.0010881676571443677;0.0012833772925660014
0.0169219970703125;0.0523834228515625;-1.0111236572265625;-0.01184840314090252;-0.0010881676571443677;0.0012833772925660014
0.0169219970703125;0.0523834228515625;-1.0111236572265625;-0.01184840314090252;-0.0010881676571443677;0.0012833772925660014
0.0169219970703125;0.0523834228515625;-1.0111236572265625;-0.01184840314090252;-0.0010881676571443677;0.0012833772925660014
0.0166015625;0.0520172119140625;-1.0118255615234375;-0.012585300020873547;-0.0031135017052292824;0.0019915117882192135
0.0166015625;0.0520172119140625;-1.0118255615234375;-0.012585300020873547;-0.0031135017052292824;0.0019915117882192135
0.0166015625;0.0520172119140625;-1.0118255615234375;-0.012585300020873547;-0.0031135017052292824;0.0019915117882192135
0.0166015625;0.0520172119140625;-1.0118255615234375;-0.012585300020873547;-0.0031135017052292824;0.0019915117882192135
0.0166015625;0.0520172119140625;-1.0118255615234375;-0.012585300020873547;-0.0031135017052292824;0.0019915117882192135
0.0177001953125;0.0529022216796875;-1.01116943359375;-0.013619139790534973;-0.002186455298215151;0.003698598127812147
0.0177001953125;0.0529022216796875;-1.01116943359375;-0.013619139790534973;-0.002186455298215151;0.003698598127812147
0.0177001953125;0.0529022216796875;-1.01116943359375;-0.013619139790534973;-0.002186455298215151;0.003698598127812147
0.0177001953125;0.0529022216796875;-1.01116943359375;-0.013619139790534973;-0.002186455298215151;0.003698598127812147
0.0177001953125;0.0529022216796875;-1.01116943359375;-0.013619139790534973;-0.002186455298215151;0.003698598127812147
0.01788330078125;0.052703857421875;-1.0097198486328125;-0.014991998672485352;-0.0022682142443954945;0.0032642364967614412
0.01788330078125;0.052703857421875;-1.0097198486328125;-0.014991998672485352;-0.0022682142443954945;0.0032642364967614412
0.01788330078125;0.052703857421875;-1.0097198486328125;-0.014991998672485352;-0.0022682142443954945;0.0032642364967614412
0.01788330078125;0.052703857421875;-1.0097198486328125;-0.014991998672485352;-0.0022682142443954945;0.0032642364967614412
0.01788330078125;0.052703857421875;-1.0097198486328125;-0.014991998672485352;-0.0022682142443954945;0.0032642364967614412
0.0175018310546875;0.0526580810546875;-1.0103302001953125;-0.011322429403662682;-0.0038661109283566475;0.0019086875254288316
0.0175018310546875;0.0526580810546875;-1.0103302001953125;-0.011322429403662682;-0.0038661109283566475;0.0019086875254288316
0.0175018310546875;0.0526580810546875;-1.0103302001953125;-0.011322429403662682;-0.0038661109283566475;0.0019086875254288316
0.0175018310546875;0.0526580810546875;-1.0103302001953125;-0.011322429403662682;-0.0038661109283566475;0.0019086875254288316
0.0175018310546875;0.0526580810546875;-1.0103302001953125;-0.011322429403662682;-0.0038661109283566475;0.0019086875254288316
0.017333984375;0.0525054931640625;-1.0114593505859375;-0.011948804371058941;-0.00705737667158246;0.0031228226143866777
0.017333984375;0.0525054931640625;-1.0114593505859375;-0.011948804371058941;-0.00705737667158246;0.0031228226143866777
0.017333984375;0.0525054931640625;-1.0114593505859375;-0.011948804371058941;-0.00705737667158246;0.0031228226143866777
0.017333984375;0.0525054931640625;-1.0114593505859375;-0.011948804371058941;-0.00705737667158246;0.0031228226143866777
0.017333984375;0.0525054931640625;-1.0114593505859375;-0.011948804371058941;-0.00705737667158246;0.0031228226143866777
0.016815185546875;0.0523529052734375;-1.0117950439453125;-0.007243265397846699;-0.00276196445338428;0.004032026045024395
0.016815185546875;0.0523529052734375;-1.0117950439453125;-0.007243265397846699;-0.00276196445338428;0.004032026045024395
0.016815185546875;0.0523529052734375;-1.0117950439453125;-0.007243265397846699;-0.00276196445338428;0.004032026045024395
0.016815185546875;0.0523529052734375;-1.0117950439453125;-0.007243265397846699;-0.00276196445338428;0.004032026045024395
0.016815185546875;0.0523529052734375;-1.0117950439453125;-0.007243265397846699;-0.00276196445338428;0.004032026045024395
0.016143798828125;0.0525360107421875;-1.012451171875;-0.009166600182652473;-0.005595301277935505;0.0007683219737373292
0.016143798828125;0.0525360107421875;-1.012451171875;-0.009166600182652473;-0.005595301277935505;0.0007683219737373292
0.016143798828125;0.0525360107421875;-1.012451171875;-0.009166600182652473;-0.005595301277935505;0.0007683219737373292
0.016143798828125;0.0525360107421875;-1.012451171875;-0.009166600182652473;-0.005595301277935505;0.0007683219737373292
0.016143798828125;0.0525360107421875;-1.012451171875;-0.009166600182652473;-0.005595301277935505;0.0007683219737373292
0.0156097412109375;0.053436279296875;-1.012237548828125;-0.009943710640072823;-0.0007147924043238163;0.00045619948650710285
0.0156097412109375;0.053436279296875;-1.012237548828125;-0.009943710640072823;-0.0007147924043238163;0.00045619948650710285
0.0156097412109375;0.053436279296875;-1.012237548828125;-0.009943710640072823;-0.0007147924043238163;0.00045619948650710285
0.0156097412109375;0.053436279296875;-1.012237548828125;-0.009943710640072823;-0.0007147924043238163;0.00045619948650710285
0.0156097412109375;0.053436279296875;-1.012237548828125;-0.009943710640072823;-0.0007147924043238163;0.00045619948650710285
0.015411376953125;0.0541534423828125;-1.0134429931640625;-0.011098990216851234;-0.0031340080313384533;0.0032794165890663862
0.015411376953125;0.0541534423828125;-1.0134429931640625;-0.011098990216851234;-0.0031340080313384533;0.0032794165890663862
0.015411376953125;0.0541534423828125;-1.0134429931640625;-0.011098990216851234;-0.0031340080313384533;0.0032794165890663862
0.015411376953125;0.0541534423828125;-1.0134429931640625;-0.011098990216851234;-0.0031340080313384533;0.0032794165890663862
0.015411376953125;0.0541534423828125;-1.0134429931640625;-0.011098990216851234;-0.0031340080313384533;0.0032794165890663862
0.0148773193359375;0.0526885986328125;-1.0126800537109375;-0.010455836541950703;0.000391218374716118;0.0022650184109807014
0.0148773193359375;0.0526885986328125;-1.0126800537109375;-0.010455836541950703;0.000391218374716118;0.0022650184109807014
0.0148773193359375;0.0526885986328125;-1.0126800537109375;-0.010455836541950703;0.000391218374716118;0.0022650184109807014
0.0148773193359375;0.0526885986328125;-1.0126800537109375;-0.010455836541950703;0.000391218374716118;0.0022650184109807014
0.0148773193359375;0.0526885986328125;-1.0126800537109375;-0.010455836541950703;0.000391218374716118;0.0022650184109807014
0.014984130859375;0.0532989501953125;-1.013458251953125;-0.010783937759697437;-0.0034317492973059416;0.001823732745833695
0.014984130859375;0.0532989501953125;-1.013458251953125;-0.010783937759697437;-0.0034317492973059416;0.001823732745833695
0.014984130859375;0.0532989501953125;-1.013458251953125;-0.010783937759697437;-0.0034317492973059416;0.001823732745833695
0.014984130859375;0.0532989501953125;-1.013458251953125;-0.010783937759697437;-0.0034317492973059416;0.001823732745833695
0.014984130859375;0.0532989501953125;-1.013458251953125;-0.010783937759697437;-0.0034317492973059416;0.001823732745833695
0.0162506103515625;0.0532989501953125;-1.0149383544921875;-0.007182545494288206;-0.004003529902547598;0.00310497940517962
0.0162506103515625;0.0532989501953125;-1.0149383544921875;-0.007182545494288206;-0.004003529902547598;0.00310497940517962
0.0162506103515625;0.0532989501953125;-1.0149383544921875;-0.007182545494288206;-0.004003529902547598;0.00310497940517962
0.0162506103515625;0.0532989501953125;-1.0149383544921875;-0.007182545494288206;-0.004003529902547598;0.00310497940517962
0.0162506103515625;0.0532989501953125;-1.0149383544921875;-0.007182545494288206;-0.004003529902547598;0.00310497940517962
0.016021728515625;0.05377197265625;-1.01531982421875;-0.010353305377066135;-0.004246144089847803;0.0011906992876902223
0.016021728515625;0.05377197265625;-1.01531982421875;-0.010353305377066135;-0.004246144089847803;0.0011906992876902223
0.016021728515625;0.05377197265625;-1.01531982421875;-0.010353305377066135;-0.004246144089847803;0.0011906992876902223
0.016021728515625;0.05377197265625;-1.01531982421875;-0.010353305377066135;-0.004246144089847803;0.0011906992876902223
0.016021728515625;0.05377197265625;-1.01531982421875;-0.010353305377066135;-0.004246144089847803;0.0011906992876902223
0.0163726806640625;0.05413818359375;-1.0156097412109375;-0.01104492787271738;-0.00304718897677958;-0.0003432814555708319
0.0163726806640625;0.05413818359375;-1.0156097412109375;-0.01104492787271738;-0.00304718897677958;-0.0003432814555708319
0.0163726806640625;0.05413818359375;-1.0156097412109375;-0.01104492787271738;-0.00304718897677958;-0.0003432814555708319
0.0163726806640625;0.05413818359375;-1.0156097412109375;-0.01104492787271738;-0.00304718897677958;-0.0003432814555708319
0.0163726806640625;0.05413818359375;-1.0156097412109375;-0.009779127314686775;-0.005053347907960415;0.0012330436147749424
0.0164337158203125;0.053619384765625;-1.0143585205078125;-0.009779127314686775;-0.005053347907960415;0.0012330436147749424
0.0164337158203125;0.053619384765625;-1.0143585205078125;-0.009779127314686775;-0.005053347907960415;0.0012330436147749424
0.0164337158203125;0.053619384765625;-1.0143585205078125;-0.009779127314686775;-0.005053347907960415;0.0012330436147749424
0.0164337158203125;0.053619384765625;-1.0143585205078125;-0.009779127314686775;-0.005053347907960415;0.0012330436147749424
0.0159759521484375;0.05426025390625;-1.013458251953125;-0.01010749489068985;-0.004092745948582888;0.002496979897841811
0.0159759521484375;0.05426025390625;-1.013458251953125;-0.01010749489068985;-0.004092745948582888;0.002496979897841811
0.0159759521484375;0.05426025390625;-1.013458251953125;-0.01010749489068985;-0.004092745948582888;0.002496979897841811
0.0159759521484375;0.05426025390625;-1.013458251953125;-0.01010749489068985;-0.004092745948582888;0.002496979897841811
0.0159759521484375;0.05426025390625;-1.013458251953125;-0.01010749489068985;-0.004092745948582888;0.002496979897841811
0.0159759521484375;0.05426025390625;-1.013458251953125;-0.007539142854511738;-0.005824865773320198;0.0006508765509352088
0.014678955078125;0.054718017578125;-1.01092529296875;-0.007539142854511738;-0.005824865773320198;0.0006508765509352088
0.014678955078125;0.054718017578125;-1.01092529296875;-0.007539142854511738;-0.005824865773320198;0.0006508765509352088
0.014678955078125;0.054718017578125;-1.01092529296875;-0.007539142854511738;-0.005824865773320198;0.0006508765509352088
0.014678955078125;0.054718017578125;-1.01092529296875;-0.007539142854511738;-0.005824865773320198;0.0006508765509352088
0.014678955078125;0.054718017578125;-1.01092529296875;-0.0057401773519814014;-0.004414988216012716;0.001916144392453134
0.01568603515625;0.054473876953125;-1.012847900390625;-0.0057401773519814014;-0.004414988216012716;0.001916144392453134
0.01568603515625;0.054473876953125;-1.012847900390625;-0.0057401773519814014;-0.004414988216012716;0.001916144392453134
0.01568603515625;0.054473876953125;-1.012847900390625;-0.0057401773519814014;-0.004414988216012716;0.001916144392453134
0.01568603515625;0.054473876953125;-1.012847900390625;-0.0057401773519814014;-0.004414988216012716;0.001916144392453134
0.01568603515625;0.054473876953125;-1.012847900390625;-0.00464694993570447;-0.0012751214671880007;0.0027920580469071865
0.0160980224609375;0.0548248291015625;-1.0133056640625;-0.00464694993570447;-0.0012751214671880007;0.0027920580469071865
0.0160980224609375;0.0548248291015625;-1.0133056640625;-0.00464694993570447;-0.0012751214671880007;0.0027920580469071865
0.0160980224609375;0.0548248291015625;-1.0133056640625;-0.00464694993570447;-0.0012751214671880007;0.0027920580469071865
0.0160980224609375;0.0548248291015625;-1.0133056640625;-0.00464694993570447;-0.0012751214671880007;0.0027920580469071865
0.01702880859375;0.0537872314453125;-1.0124969482421875;-0.0025683525018393993;-0.0007699198904447258;0.006065881811082363
0.01702880859375;0.0537872314453125;-1.0124969482421875;-0.0025683525018393993;-0.0007699198904447258;0.006065881811082363
0.01702880859375;0.0537872314453125;-1.0124969482421875;-0.0025683525018393993;-0.0007699198904447258;0.006065881811082363
0.01702880859375;0.0537872314453125;-1.0124969482421875;-0.0025683525018393993;-0.0007699198904447258;0.006065881811082363
0.01702880859375;0.0537872314453125;-1.0124969482421875;-0.0025683525018393993;-0.0007699198904447258;0.006065881811082363
0.0162811279296875;0.0543670654296875;-1.0142364501953125;0.0007555388147011399;0.002026399364694953;0.005712480284273624
0.0162811279296875;0.0543670654296875;-1.0142364501953125;0.0007555388147011399;0.002026399364694953;0.005712480284273624
0.0162811279296875;0.0543670654296875;-1.0142364501953125;0.0007555388147011399;0.002026399364694953;0.005712480284273624
0.0162811279296875;0.0543670654296875;-1.0142364501953125;0.0007555388147011399;0.002026399364694953;0.005712480284273624
0.0162811279296875;0.0543670654296875;-1.0142364501953125;0.0007555388147011399;0.002026399364694953;0.005712480284273624
0.0162506103515625;0.0543060302734375;-1.0154571533203125;0.002138518262654543;0.002398176584392786;0.004068244714289904
0.0162506103515625;0.0543060302734375;-1.0154571533203125;0.002138518262654543;0.002398176584392786;0.004068244714289904
0.0162506103515625;0.0543060302734375;-1.0154571533203125;0.002138518262654543;0.002398176584392786;0.004068244714289904
0.0162506103515625;0.0543060302734375;-1.0154571533203125;0.002138518262654543;0.002398176584392786;0.004068244714289904
0.0162506103515625;0.0543060302734375;-1.0154571533203125;0.002138518262654543;0.002398176584392786;0.004068244714289904
0.016571044921875;0.0534210205078125;-1.011505126953125;-0.006858438719063997;-0.00253479671664536;0.0006064017652533948
0.016571044921875;0.0534210205078125;-1.011505126953125;-0.006858438719063997;-0.00253479671664536;0.0006064017652533948
0.016571044921875;0.0534210205078125;-1.011505126953125;-0.006858438719063997;-0.00253479671664536;0.0006064017652533948
0.016571044921875;0.0534210205078125;-1.011505126953125;-0.006858438719063997;-0.00253479671664536;0.0006064017652533948
0.016571044921875;0.0534210205078125;-1.011505126953125;-0.006858438719063997;-0.00253479671664536;0.0006064017652533948
0.01531982421875;0.05340576171875;-1.0111236572265625;-0.009839314967393875;-0.007647000718861818;-0.0023558323737233877
0.01531982421875;0.05340576171875;-1.0111236572265625;-0.009839314967393875;-0.007647000718861818;-0.0023558323737233877
0.01531982421875;0.05340576171875;-1.0111236572265625;-0.009839314967393875;-0.007647000718861818;-0.0023558323737233877
0.01531982421875;0.05340576171875;-1.0111236572265625;-0.009839314967393875;-0.007647000718861818;-0.0023558323737233877
0.01531982421875;0.05340576171875;-1.0111236572265625;-0.009839314967393875;-0.007647000718861818;-0.0023558323737233877
0.0172576904296875;0.052734375;-1.0126495361328125;-0.008509865030646324;-0.008583634160459042;0.003695935010910034
0.0172576904296875;0.052734375;-1.0126495361328125;-0.008509865030646324;-0.008583634160459042;0.003695935010910034
0.0172576904296875;0.052734375;-1.0126495361328125;-0.008509865030646324;-0.008583634160459042;0.003695935010910034
0.0172576904296875;0.052734375;-1.0126495361328125;-0.008509865030646324;-0.008583634160459042;0.003695935010910034
0.0172576904296875;0.052734375;-1.0126495361328125;-0.008509865030646324;-0.008583634160459042;0.003695935010910034
0.0178680419921875;0.051971435546875;-1.0124969482421875;-0.009969277307391167;-0.007261641323566437;0.002861566608771682
0.0178680419921875;0.051971435546875;-1.0124969482421875;-0.009969277307391167;-0.007261641323566437;0.002861566608771682
0.0178680419921875;0.051971435546875;-1.0124969482421875;-0.009969277307391167;-0.007261641323566437;0.002861566608771682
0.0178680419921875;0.051971435546875;-1.0124969482421875;-0.009969277307391167;-0.007261641323566437;0.002861566608771682
0.0178680419921875;0.051971435546875;-1.0124969482421875;-0.009969277307391167;-0.007261641323566437;0.002861566608771682
0.018463134765625;0.0523529052734375;-1.012939453125;-0.009846239350736141;-0.01221698522567749;0.003385676769539714
0.018463134765625;0.0523529052734375;-1.012939453125;-0.009846239350736141;-0.01221698522567749;0.003385676769539714
0.018463134765625;0.0523529052734375;-1.012939453125;-0.009846239350736141;-0.01221698522567749;0.003385676769539714
0.018463134765625;0.0523529052734375;-1.012939453125;-0.009846239350736141;-0.01221698522567749;0.003385676769539714
0.018463134765625;0.0523529052734375;-1.012939453125;-0.009846239350736141;-0.01221698522567749;0.003385676769539714
0.01898193359375;0.0547943115234375;-1.0120391845703125;-0.012190086767077446;0.0009813748765736818;0.007273359224200249
0.01898193359375;0.0547943115234375;-1.0120391845703125;-0.012190086767077446;0.0009813748765736818;0.007273359224200249
0.01898193359375;0.0547943115234375;-1.0120391845703125;-0.012190086767077446;0.0009813748765736818;0.007273359224200249
0.01898193359375;0.0547943115234375;-1.0120391845703125;-0.012190086767077446;0.0009813748765736818;0.007273359224200249
0.01898193359375;0.0547943115234375;-1.0120391845703125;-0.012190086767077446;0.0009813748765736818;0.007273359224200249
0.020294189453125;0.0551910400390625;-0.9973297119140625;-0.030278809368610382;0.022306105121970177;0.009366603568196297
0.020294189453125;0.0551910400390625;-0.9973297119140625;-0.030278809368610382;0.022306105121970177;0.009366603568196297
0.020294189453125;0.0551910400390625;-0.9973297119140625;-0.030278809368610382;0.022306105121970177;0.009366603568196297
0.020294189453125;0.0551910400390625;-0.9973297119140625;-0.030278809368610382;0.022306105121970177;0.009366603568196297
0.020294189453125;0.0551910400390625;-0.9973297119140625;-0.030278809368610382;0.022306105121970177;0.009366603568196297
0.0177459716796875;0.054931640625;-0.9920196533203125;-0.03301893547177315;0.014820757322013378;0.001255946815945208
0.0177459716796875;0.054931640625;-0.9920196533203125;-0.03301893547177315;0.014820757322013378;0.001255946815945208
0.0177459716796875;0.054931640625;-0.9920196533203125;-0.03301893547177315;0.014820757322013378;0.001255946815945208
0.0177459716796875;0.054931640625;-0.9920196533203125;-0.03301893547177315;0.014820757322013378;0.001255946815945208
0.0177459716796875;0.054931640625;-0.9920196533203125;-0.03301893547177315;0.014820757322013378;0.001255946815945208
0.012725830078125;0.0576019287109375;-1.0118560791015625;-0.014027668163180351;0.002347576431930065;-0.0013568805297836661
0.012725830078125;0.0576019287109375;-1.0118560791015625;-0.014027668163180351;0.002347576431930065;-0.0013568805297836661
0.012725830078125;0.0576019287109375;-1.0118560791015625;-0.014027668163180351;0.002347576431930065;-0.0013568805297836661
0.012725830078125;0.0576019287109375;-1.0118560791015625;-0.014027668163180351;0.002347576431930065;-0.0013568805297836661
0.012725830078125;0.0576019287109375;-1.0118560791015625;-0.014027668163180351;0.002347576431930065;-0.0013568805297836661
0.010284423828125;0.0587615966796875;-1.026641845703125;0.01907489076256752;-0.01877528615295887;-0.004746285732835531
0.010284423828125;0.0587615966796875;-1.026641845703125;0.01907489076256752;-0.01877528615295887;-0.004746285732835531
0.010284423828125;0.0587615966796875;-1.026641845703125;0.01907489076256752;-0.01877528615295887;-0.004746285732835531
0.010284423828125;0.0587615966796875;-1.026641845703125;0.01907489076256752;-0.01877528615295887;-0.004746285732835531
0.010284423828125;0.0587615966796875;-1.026641845703125;0.01907489076256752;-0.01877528615295887;-0.004746285732835531
0.011444091796875;0.0598297119140625;-1.029205322265625;0.024622788652777672;-0.024926122277975082;-0.002129463478922844
0.011444091796875;0.0598297119140625;-1.029205322265625;0.024622788652777672;-0.024926122277975082;-0.002129463478922844
0.011444091796875;0.0598297119140625;-1.029205322265625;0.024622788652777672;-0.024926122277975082;-0.002129463478922844
0.011444091796875;0.0598297119140625;-1.029205322265625;0.024622788652777672;-0.024926122277975082;-0.002129463478922844
0.011444091796875;0.0598297119140625;-1.029205322265625;0.024622788652777672;-0.024926122277975082;-0.002129463478922844
0.0163421630859375;0.0607147216796875;-1.01031494140625;0.010890197940170765;-0.015916915610432625;-0.0009262474486604333
0.0163421630859375;0.0607147216796875;-1.01031494140625;0.010890197940170765;-0.015916915610432625;-0.0009262474486604333
0.0163421630859375;0.0607147216796875;-1.01031494140625;0.010890197940170765;-0.015916915610432625;-0.0009262474486604333
0.0163421630859375;0.0607147216796875;-1.01031494140625;0.010890197940170765;-0.015916915610432625;-0.0009262474486604333
0.0163421630859375;0.0607147216796875;-1.01031494140625;0.010890197940170765;-0.015916915610432625;-0.0009262474486604333
0.018890380859375;0.0582733154296875;-1.0014190673828125;-0.0007323693134821951;-0.010445716790854931;0.0010058758780360222
0.018890380859375;0.0582733154296875;-1.0014190673828125;-0.0007323693134821951;-0.010445716790854931;0.0010058758780360222
0.018890380859375;0.0582733154296875;-1.0014190673828125;-0.0007323693134821951;-0.010445716790854931;0.0010058758780360222
0.018890380859375;0.0582733154296875;-1.0014190673828125;-0.0007323693134821951;-0.010445716790854931;0.0010058758780360222
0.018890380859375;0.0582733154296875;-1.0014190673828125;-0.0007323693134821951;-0.010445716790854931;0.0010058758780360222
0.0171661376953125;0.057464599609375;-1.0090789794921875;-0.001966478070244193;-0.00657667638733983;0.0035031221341341734
0.0171661376953125;0.057464599609375;-1.0090789794921875;-0.001966478070244193;-0.00657667638733983;0.0035031221341341734
0.0171661376953125;0.057464599609375;-1.0090789794921875;-0.001966478070244193;-0.00657667638733983;0.0035031221341341734
0.0171661376953125;0.057464599609375;-1.0090789794921875;-0.001966478070244193;-0.00657667638733983;0.0035031221341341734
0.0171661376953125;0.057464599609375;-1.0090789794921875;-0.001966478070244193;-0.00657667638733983;0.0035031221341341734
0.016143798828125;0.0529937744140625;-1.00506591796875;-0.006644320674240589;0.00669305631890893;0.010425742715597153
0.016143798828125;0.0529937744140625;-1.00506591796875;-0.006644320674240589;0.00669305631890893;0.010425742715597153
0.016143798828125;0.0529937744140625;-1.00506591796875;-0.006644320674240589;0.00669305631890893;0.010425742715597153
0.016143798828125;0.0529937744140625;-1.00506591796875;-0.006644320674240589;0.00669305631890893;0.010425742715597153
0.016143798828125;0.0529937744140625;-1.00506591796875;-0.006644320674240589;0.00669305631890893;0.010425742715597153
0.016937255859375;0.0494842529296875;-1.0032806396484375;-0.0051742554642260075;0.011743474751710892;0.008509598672389984
0.016937255859375;0.0494842529296875;-1.0032806396484375;-0.0051742554642260075;0.011743474751710892;0.008509598672389984
0.016937255859375;0.0494842529296875;-1.0032806396484375;-0.0051742554642260075;0.011743474751710892;0.008509598672389984
0.016937255859375;0.0494842529296875;-1.0032806396484375;-0.0051742554642260075;0.011743474751710892;0.008509598672389984
0.016937255859375;0.0494842529296875;-1.0032806396484375;-0.0051742554642260075;0.011743474751710892;0.008509598672389984
0.016632080078125;0.0483551025390625;-1.0117034912109375;0.007633951026946306;0.0070770843885838985;0.005277319811284542
0.016632080078125;0.0483551025390625;-1.0117034912109375;0.007633951026946306;0.0070770843885838985;0.005277319811284542
0.016632080078125;0.0483551025390625;-1.0117034912109375;0.007633951026946306;0.0070770843885838985;0.005277319811284542
0.016632080078125;0.0483551025390625;-1.0117034912109375;0.007633951026946306;0.0070770843885838985;0.005277319811284542
0.016632080078125;0.0483551025390625;-1.0117034912109375;0.007633951026946306;0.0070770843885838985;0.005277319811284542
0.01556396484375;0.0494232177734375;-1.022705078125;0.022959111258387566;0.0034788872580975294;0.0049524144269526005
0.01556396484375;0.0494232177734375;-1.022705078125;0.022959111258387566;0.0034788872580975294;0.0049524144269526005
0.01556396484375;0.0494232177734375;-1.022705078125;0.022959111258387566;0.0034788872580975294;0.0049524144269526005
0.01556396484375;0.0494232177734375;-1.022705078125;0.022959111258387566;0.0034788872580975294;0.0049524144269526005
0.01556396484375;0.0494232177734375;-1.022705078125;0.022959111258387566;0.0034788872580975294;0.0049524144269526005
0.015777587890625;0.0500030517578125;-1.022430419921875;0.02719673328101635;0.005605155136436224;0.004471980035305023
0.015777587890625;0.0500030517578125;-1.022430419921875;0.02719673328101635;0.005605155136436224;0.004471980035305023
0.015777587890625;0.0500030517578125;-1.022430419921875;0.02719673328101635;0.005605155136436224;0.004471980035305023
0.015777587890625;0.0500030517578125;-1.022430419921875;0.02719673328101635;0.005605155136436224;0.004471980035305023
0.015777587890625;0.0500030517578125;-1.022430419921875;0.02719673328101635;0.005605155136436224;0.004471980035305023
0.01580810546875;0.0513458251953125;-1.017974853515625;0.02275511436164379;0.007680290378630161;0.00481446273624897
0.01580810546875;0.0513458251953125;-1.017974853515625;0.02275511436164379;0.007680290378630161;0.00481446273624897
0.01580810546875;0.0513458251953125;-1.017974853515625;0.02275511436164379;0.007680290378630161;0.00481446273624897
0.01580810546875;0.0513458251953125;-1.017974853515625;0.02275511436164379;0.007680290378630161;0.00481446273624897
0.01580810546875;0.0513458251953125;-1.017974853515625;0.02275511436164379;0.007680290378630161;0.00481446273624897
0.01605224609375;0.050933837890625;-1.0157623291015625;0.009157812222838402;0.006252835970371962;0.0011922972043976188
0.01605224609375;0.050933837890625;-1.0157623291015625;0.009157812222838402;0.006252835970371962;0.0011922972043976188
0.01605224609375;0.050933837890625;-1.0157623291015625;0.009157812222838402;0.006252835970371962;0.0011922972043976188
0.01605224609375;0.050933837890625;-1.0157623291015625;0.009157812222838402;0.006252835970371962;0.0011922972043976188
0.01605224609375;0.050933837890625;-1.0157623291015625;0.009157812222838402;0.006252835970371962;0.0011922972043976188
0.0169219970703125;0.05035400390625;-1.0135650634765625;-0.0023342606145888567;0.00893623661249876;0.0002846919232979417
0.0169219970703125;0.05035400390625;-1.0135650634765625;-0.0023342606145888567;0.00893623661249876;0.0002846919232979417
0.0169219970703125;0.05035400390625;-1.0135650634765625;-0.0023342606145888567;0.00893623661249876;0.0002846919232979417
0.0169219970703125;0.05035400390625;-1.0135650634765625;-0.0023342606145888567;0.00893623661249876;0.0002846919232979417
0.0169219970703125;0.05035400390625;-1.0135650634765625;-0.0023342606145888567;0.00893623661249876;0.0002846919232979417
0.017822265625;0.0499420166015625;-1.010498046875;-0.012308597564697266;0.004400340840220451;-0.001973136095330119
0.017822265625;0.0499420166015625;-1.010498046875;-0.012308597564697266;0.004400340840220451;-0.001973136095330119
0.017822265625;0.0499420166015625;-1.010498046875;-0.012308597564697266;0.004400340840220451;-0.001973136095330119
0.017822265625;0.0499420166015625;-1.010498046875;-0.012308597564697266;0.004400340840220451;-0.001973136095330119
0.017822265625;0.0499420166015625;-1.010498046875;-0.012308597564697266;0.004400340840220451;-0.001973136095330119
0.01910400390625;0.0523529052734375;-1.0106201171875;-0.015075888484716415;0.0010602044640108943;-0.00032863407977856696
0.01910400390625;0.0523529052734375;-1.0106201171875;-0.015075888484716415;0.0010602044640108943;-0.00032863407977856696
0.01910400390625;0.0523529052734375;-1.0106201171875;-0.015075888484716415;0.0010602044640108943;-0.00032863407977856696
0.01910400390625;0.0523529052734375;-1.0106201171875;-0.015075888484716415;0.0010602044640108943;-0.00032863407977856696
0.01910400390625;0.0523529052734375;-1.0106201171875;-0.015075888484716415;0.0010602044640108943;-0.00032863407977856696
0.0189208984375;0.0556793212890625;-1.012237548828125;-0.012552543543279171;0.0013214604696258903;-0.0016016251174733043
0.0189208984375;0.0556793212890625;-1.012237548828125;-0.012552543543279171;0.0013214604696258903;-0.0016016251174733043
0.0189208984375;0.0556793212890625;-1.012237548828125;-0.012552543543279171;0.0013214604696258903;-0.0016016251174733043
0.0189208984375;0.0556793212890625;-1.012237548828125;-0.012552543543279171;0.0013214604696258903;-0.0016016251174733043
0.0189208984375;0.0556793212890625;-1.012237548828125;-0.012552543543279171;0.0013214604696258903;-0.0016016251174733043
0.0175933837890625;0.059356689453125;-1.0128021240234375;-0.0052112736739218235;-0.001386441639624536;-0.0008303736103698611
0.0175933837890625;0.059356689453125;-1.0128021240234375;-0.0052112736739218235;-0.001386441639624536;-0.0008303736103698611
0.0175933837890625;0.059356689453125;-1.0128021240234375;-0.0052112736739218235;-0.001386441639624536;-0.0008303736103698611
0.0175933837890625;0.059356689453125;-1.0128021240234375;-0.0052112736739218235;-0.001386441639624536;-0.0008303736103698611
0.0175933837890625;0.059356689453125;-1.0128021240234375;-0.0052112736739218235;-0.001386441639624536;-0.0008303736103698611
0.0172119140625;0.060638427734375;-1.0134429931640625;0.0005701828049495816;-0.0035686357878148556;0.0013009541435167193
0.0172119140625;0.060638427734375;-1.0134429931640625;0.0005701828049495816;-0.0035686357878148556;0.0013009541435167193
0.0172119140625;0.060638427734375;-1.0134429931640625;0.0005701828049495816;-0.0035686357878148556;0.0013009541435167193
0.0172119140625;0.060638427734375;-1.0134429931640625;0.0005701828049495816;-0.0035686357878148556;0.0013009541435167193
0.0172119140625;0.060638427734375;-1.0134429931640625;0.0005701828049495816;-0.0035686357878148556;0.0013009541435167193
0.016815185546875;0.0611114501953125;-1.01202392578125;0.00974557176232338;-0.0023901870008558035;0.0026202842127531767
0.016815185546875;0.0611114501953125;-1.01202392578125;0.00974557176232338;-0.0023901870008558035;0.0026202842127531767
0.016815185546875;0.0611114501953125;-1.01202392578125;0.00974557176232338;-0.0023901870008558035;0.0026202842127531767
0.016815185546875;0.0611114501953125;-1.01202392578125;0.00974557176232338;-0.0023901870008558035;0.0026202842127531767
0.016815185546875;0.0611114501953125;-1.01202392578125;0.00974557176232338;-0.0023901870008558035;0.0026202842127531767
0.01654052734375;0.059783935546875;-1.01123046875;0.010061955079436302;0.00017177389236167073;0.0036165728233754635
0.01654052734375;0.059783935546875;-1.01123046875;0.010061955079436302;0.00017177389236167073;0.0036165728233754635
0.01654052734375;0.059783935546875;-1.01123046875;0.010061955079436302;0.00017177389236167073;0.0036165728233754635
0.01654052734375;0.059783935546875;-1.01123046875;0.010061955079436302;0.00017177389236167073;0.0036165728233754635
0.01654052734375;0.059783935546875;-1.01123046875;0.010061955079436302;0.00017177389236167073;0.0036165728233754635
0.016510009765625;0.0577545166015625;-1.0124969482421875;0.010927482508122921;-0.0018269284628331661;0.0021084246691316366
0.016510009765625;0.0577545166015625;-1.0124969482421875;0.010927482508122921;-0.0018269284628331661;0.0021084246691316366
0.016510009765625;0.0577545166015625;-1.0124969482421875;0.010927482508122921;-0.0018269284628331661;0.0021084246691316366
0.016510009765625;0.0577545166015625;-1.0124969482421875;0.010927482508122921;-0.0018269284628331661;0.0021084246691316366
0.016510009765625;0.0577545166015625;-1.0124969482421875;0.010927482508122921;-0.0018269284628331661;0.0021084246691316366
0.01580810546875;0.0548248291015625;-1.0134429931640625;0.012584500946104527;-0.0019449065439403057;0.0022828616201877594
0.01580810546875;0.0548248291015625;-1.0134429931640625;0.012584500946104527;-0.0019449065439403057;0.0022828616201877594
0.01580810546875;0.0548248291015625;-1.0134429931640625;0.012584500946104527;-0.0019449065439403057;0.0022828616201877594
0.01580810546875;0.0548248291015625;-1.0134429931640625;0.012584500946104527;-0.0019449065439403057;0.0022828616201877594
0.01580810546875;0.0548248291015625;-1.0134429931640625;0.011423629708588123;-0.0009590042755007744;0.003266899613663554
0.016387939453125;0.05194091796875;-1.012786865234375;0.011423629708588123;-0.0009590042755007744;0.003266899613663554
0.016387939453125;0.05194091796875;-1.012786865234375;0.011423629708588123;-0.0009590042755007744;0.003266899613663554
0.016387939453125;0.05194091796875;-1.012786865234375;0.011423629708588123;-0.0009590042755007744;0.003266899613663554
0.016387939453125;0.05194091796875;-1.012786865234375;0.011423629708588123;-0.0009590042755007744;0.003266899613663554
0.016387939453125;0.05194091796875;-1.012786865234375;0.011423629708588123;-0.0009590042755007744;0.003266899613663554
0.0158233642578125;0.0511474609375;-1.0130157470703125;0.012491556815803051;-0.0005755090969614685;0.0028043086640536785
0.0158233642578125;0.0511474609375;-1.0130157470703125;0.012491556815803051;-0.0005755090969614685;0.0028043086640536785
0.0158233642578125;0.0511474609375;-1.0130157470703125;0.012491556815803051;-0.0005755090969614685;0.0028043086640536785
0.0158233642578125;0.0511474609375;-1.0130157470703125;0.012491556815803051;-0.0005755090969614685;0.0028043086640536785
0.0158233642578125;0.0511474609375;-1.0130157470703125;0.012491556815803051;-0.0005755090969614685;0.0028043086640536785
0.015350341796875;0.051422119140625;-1.0113372802734375;0.010071542114019394;-0.0029081718530505896;0.001579787116497755
0.015350341796875;0.051422119140625;-1.0113372802734375;0.010071542114019394;-0.0029081718530505896;0.001579787116497755
0.015350341796875;0.051422119140625;-1.0113372802734375;0.010071542114019394;-0.0029081718530505896;0.001579787116497755
0.015350341796875;0.051422119140625;-1.0113372802734375;0.010071542114019394;-0.0029081718530505896;0.001579787116497755
0.015350341796875;0.051422119140625;-1.0113372802734375;0.010071542114019394;-0.0029081718530505896;0.001579787116497755
0.015045166015625;0.0517578125;-1.0120697021484375;0.011827098205685616;-0.002538258908316493;0.0022333269007503986
0.015045166015625;0.0517578125;-1.0120697021484375;0.011827098205685616;-0.002538258908316493;0.0022333269007503986
0.015045166015625;0.0517578125;-1.0120697021484375;0.011827098205685616;-0.002538258908316493;0.0022333269007503986
0.015045166015625;0.0517578125;-1.0120697021484375;0.011827098205685616;-0.002538258908316493;0.0022333269007503986
0.015045166015625;0.0517578125;-1.0120697021484375;0.013971742242574692;-7.137271313695237e-05;0.0031007183715701103
0.0159454345703125;0.0525665283203125;-1.01214599609375;0.013971742242574692;-7.137271313695237e-05;0.0031007183715701103
0.0159454345703125;0.0525665283203125;-1.01214599609375;0.013971742242574692;-7.137271313695237e-05;0.0031007183715701103
0.0159454345703125;0.0525665283203125;-1.01214599609375;0.013971742242574692;-7.137271313695237e-05;0.0031007183715701103
0.0159454345703125;0.0525665283203125;-1.01214599609375;0.013971742242574692;-7.137271313695237e-05;0.0031007183715701103
0.0159454345703125;0.0525665283203125;-1.01214599609375;0.013971742242574692;-7.137271313695237e-05;0.0031007183715701103
0.0173797607421875;0.0529632568359375;-1.01141357421875;0.020540961995720863;-0.0033688987605273724;0.003572896821424365
0.0173797607421875;0.0529632568359375;-1.01141357421875;0.020540961995720863;-0.0033688987605273724;0.003572896821424365
0.0173797607421875;0.0529632568359375;-1.01141357421875;0.020540961995720863;-0.0033688987605273724;0.003572896821424365
0.0173797607421875;0.0529632568359375;-1.01141357421875;0.020540961995720863;-0.0033688987605273724;0.003572896821424365
0.0174102783203125;0.05316162109375;-1.0122222900390625;0.022173212841153145;-0.003448793664574623;0.005056543741375208
0.0174102783203125;0.05316162109375;-1.0122222900390625;0.022173212841153145;-0.003448793664574623;0.005056543741375208
0.0174102783203125;0.05316162109375;-1.0122222900390625;0.022173212841153145;-0.003448793664574623;0.005056543741375208
0.0174102783203125;0.05316162109375;-1.0122222900390625;0.022173212841153145;-0.003448793664574623;0.005056543741375208
0.0174102783203125;0.05316162109375;-1.0122222900390625;0.022173212841153145;-0.003448793664574623;0.005056543741375208
0.017669677734375;0.0547027587890625;-1.0111083984375;0.02690831385552883;-0.007843275554478168;0.004592887591570616
0.017669677734375;0.0547027587890625;-1.0111083984375;0.02690831385552883;-0.007843275554478168;0.004592887591570616
0.017669677734375;0.0547027587890625;-1.0111083984375;0.02690831385552883;-0.007843275554478168;0.004592887591570616
0.017669677734375;0.0547027587890625;-1.0111083984375;0.02690831385552883;-0.007843275554478168;0.004592887591570616
0.017669677734375;0.0547027587890625;-1.0111083984375;0.02690831385552883;-0.007843275554478168;0.004592887591570616
0.0171356201171875;0.05352783203125;-1.0145111083984375;0.02858583815395832;-0.008505337871611118;0.004049336537718773
0.0171356201171875;0.05352783203125;-1.0145111083984375;0.02858583815395832;-0.008505337871611118;0.004049336537718773
0.0171356201171875;0.05352783203125;-1.0145111083984375;0.02858583815395832;-0.008505337871611118;0.004049336537718773
0.0171356201171875;0.05352783203125;-1.0145111083984375;0.02858583815395832;-0.008505337871611118;0.004049336537718773
0.0171356201171875;0.05352783203125;-1.0145111083984375;0.02858583815395832;-0.008505337871611118;0.004049336537718773
0.01800537109375;0.0528411865234375;-1.015472412109375;0.024945029988884926;-0.01149819791316986;0.0003736414946615696
0.01800537109375;0.0528411865234375;-1.015472412109375;0.024945029988884926;-0.01149819791316986;0.0003736414946615696
0.01800537109375;0.0528411865234375;-1.015472412109375;0.024945029988884926;-0.01149819791316986;0.0003736414946615696
0.01800537109375;0.0528411865234375;-1.015472412109375;0.024945029988884926;-0.01149819791316986;0.0003736414946615696
0.01800537109375;0.0528411865234375;-1.015472412109375;0.024945029988884926;-0.01149819791316986;0.0003736414946615696
0.0169219970703125;0.053192138671875;-1.0099945068359375;0.016202405095100403;-0.010702977888286114;0.004637096077203751
0.0169219970703125;0.053192138671875;-1.0099945068359375;0.016202405095100403;-0.010702977888286114;0.004637096077203751
0.0169219970703125;0.053192138671875;-1.0099945068359375;0.016202405095100403;-0.010702977888286114;0.004637096077203751
0.0169219970703125;0.053192138671875;-1.0099945068359375;0.016202405095100403;-0.010702977888286114;0.004637096077203751
0.0169219970703125;0.053192138671875;-1.0099945068359375;0.016202405095100403;-0.010702977888286114;0.004637096077203751
0.0157928466796875;0.05291748046875;-1.005767822265625;0.008359928615391254;-0.0062243398278951645;0.003236006945371628
0.0157928466796875;0.05291748046875;-1.005767822265625;0.008359928615391254;-0.0062243398278951645;0.003236006945371628
0.0157928466796875;0.05291748046875;-1.005767822265625;0.008359928615391254;-0.0062243398278951645;0.003236006945371628
0.0157928466796875;0.05291748046875;-1.005767822265625;0.008359928615391254;-0.0062243398278951645;0.003236006945371628
0.0157928466796875;0.05291748046875;-1.005767822265625;0.008359928615391254;-0.0062243398278951645;0.003236006945371628
0.0146942138671875;0.0516204833984375;-1.0074005126953125;0.014986672438681126;-0.0076304893009364605;0.008184692822396755
0.0146942138671875;0.0516204833984375;-1.0074005126953125;0.014986672438681126;-0.0076304893009364605;0.008184692822396755
0.0146942138671875;0.0516204833984375;-1.0074005126953125;0.014986672438681126;-0.0076304893009364605;0.008184692822396755
0.0146942138671875;0.0516204833984375;-1.0074005126953125;0.014986672438681126;-0.0076304893009364605;0.008184692822396755
0.0146942138671875;0.0516204833984375;-1.0074005126953125;0.014986672438681126;-0.0076304893009364605;0.008184692822396755
0.0152130126953125;0.050567626953125;-1.0123748779296875;0.023509586229920387;-0.007390538230538368;0.003566771512851119
0.0152130126953125;0.050567626953125;-1.0123748779296875;0.023509586229920387;-0.007390538230538368;0.003566771512851119
0.0152130126953125;0.050567626953125;-1.0123748779296875;0.023509586229920387;-0.007390538230538368;0.003566771512851119
0.0152130126953125;0.050567626953125;-1.0123748779296875;0.023509586229920387;-0.007390538230538368;0.003566771512851119
0.0152130126953125;0.050567626953125;-1.0123748779296875;0.023509586229920387;-0.007390538230538368;0.003566771512851119
0.016143798828125;0.0495758056640625;-1.0130767822265625;0.028140291571617126;-0.00250603468157351;0.00498170917853713
0.016143798828125;0.0495758056640625;-1.0130767822265625;0.028140291571617126;-0.00250603468157351;0.00498170917853713
0.016143798828125;0.0495758056640625;-1.0130767822265625;0.028140291571617126;-0.00250603468157351;0.00498170917853713
0.016143798828125;0.0495758056640625;-1.0130767822265625;0.028140291571617126;-0.00250603468157351;0.00498170917853713
0.016143798828125;0.0495758056640625;-1.0130767822265625;0.028140291571617126;-0.00250603468157351;0.00498170917853713
0.016357421875;0.0501251220703125;-1.01214599609375;0.02804708108305931;0.00036724991514347494;0.003777960315346718
0.016357421875;0.0501251220703125;-1.01214599609375;0.02804708108305931;0.00036724991514347494;0.003777960315346718
0.016357421875;0.0501251220703125;-1.01214599609375;0.02804708108305931;0.00036724991514347494;0.003777960315346718
0.016357421875;0.0501251220703125;-1.01214599609375;0.02804708108305931;0.00036724991514347494;0.003777960315346718
0.016357421875;0.0501251220703125;-1.01214599609375;0.02804708108305931;0.00036724991514347494;0.003777960315346718
0.0173187255859375;0.0508270263671875;-1.011871337890625;0.030132869258522987;0.003820038167759776;0.006299441214650869
0.0173187255859375;0.0508270263671875;-1.011871337890625;0.030132869258522987;0.003820038167759776;0.006299441214650869
0.0173187255859375;0.0508270263671875;-1.011871337890625;0.030132869258522987;0.003820038167759776;0.006299441214650869
0.0173187255859375;0.0508270263671875;-1.011871337890625;0.030132869258522987;0.003820038167759776;0.006299441214650869
0.0173187255859375;0.0508270263671875;-1.011871337890625;0.030132869258522987;0.003820038167759776;0.006299441214650869
0.01593017578125;0.0488433837890625;-1.0159759521484375;0.030062828212976456;0.00014993596414569765;0.0059782639145851135
0.01593017578125;0.0488433837890625;-1.0159759521484375;0.030062828212976456;0.00014993596414569765;0.0059782639145851135
0.01593017578125;0.0488433837890625;-1.0159759521484375;0.030062828212976456;0.00014993596414569765;0.0059782639145851135
0.01593017578125;0.0488433837890625;-1.0159759521484375;0.030062828212976456;0.00014993596414569765;0.0059782639145851135
0.01593017578125;0.0488433837890625;-1.0159759521484375;0.030062828212976456;0.00014993596414569765;0.0059782639145851135
0.0152740478515625;0.0472564697265625;-1.01629638671875;0.02389574609696865;-0.0004772384709212929;0.0035169704351574183
0.0152740478515625;0.0472564697265625;-1.01629638671875;0.02389574609696865;-0.0004772384709212929;0.0035169704351574183
0.0152740478515625;0.0472564697265625;-1.01629638671875;0.02389574609696865;-0.0004772384709212929;0.0035169704351574183
0.0152740478515625;0.0472564697265625;-1.01629638671875;0.02389574609696865;-0.0004772384709212929;0.0035169704351574183
0.0152740478515625;0.0472564697265625;-1.01629638671875;0.02389574609696865;-0.0004772384709212929;0.0035169704351574183
0.0156402587890625;0.0462646484375;-1.0163726806640625;0.02143178880214691;-0.0018695390317589045;0.005278385244309902
0.0156402587890625;0.0462646484375;-1.0163726806640625;0.02143178880214691;-0.0018695390317589045;0.005278385244309902
0.0156402587890625;0.0462646484375;-1.0163726806640625;0.02143178880214691;-0.0018695390317589045;0.005278385244309902
0.0156402587890625;0.0462646484375;-1.0163726806640625;0.02143178880214691;-0.0018695390317589045;0.005278385244309902
0.0156402587890625;0.0462646484375;-1.0163726806640625;0.02143178880214691;-0.0018695390317589045;0.005278385244309902
0.016387939453125;0.0452117919921875;-1.01678466796875;0.01782107539474964;-0.005586246494203806;0.006173473782837391
0.016387939453125;0.0452117919921875;-1.01678466796875;0.01782107539474964;-0.005586246494203806;0.006173473782837391
0.016387939453125;0.0452117919921875;-1.01678466796875;0.01782107539474964;-0.005586246494203806;0.006173473782837391
0.016387939453125;0.0452117919921875;-1.01678466796875;0.01782107539474964;-0.005586246494203806;0.006173473782837391
0.016387939453125;0.0452117919921875;-1.01678466796875;0.01782107539474964;-0.005586246494203806;0.006173473782837391
0.0172271728515625;0.0455169677734375;-1.01715087890625;0.014372015371918678;-0.007799333427101374;0.004679440520703793
0.0172271728515625;0.0455169677734375;-1.01715087890625;0.014372015371918678;-0.007799333427101374;0.004679440520703793
0.0172271728515625;0.0455169677734375;-1.01715087890625;0.014372015371918678;-0.007799333427101374;0.004679440520703793
0.0172271728515625;0.0455169677734375;-1.01715087890625;0.014372015371918678;-0.007799333427101374;0.004679440520703793
0.0172271728515625;0.0455169677734375;-1.01715087890625;0.014372015371918678;-0.007799333427101374;0.004679440520703793
0.018646240234375;0.047271728515625;-1.0157623291015625;0.009784719906747341;-0.005835785064846277;0.004757470916956663
0.018646240234375;0.047271728515625;-1.0157623291015625;0.009784719906747341;-0.005835785064846277;0.004757470916956663
0.018646240234375;0.047271728515625;-1.0157623291015625;0.009784719906747341;-0.005835785064846277;0.004757470916956663
0.018646240234375;0.047271728515625;-1.0157623291015625;0.009784719906747341;-0.005835785064846277;0.004757470916956663
0.018646240234375;0.047271728515625;-1.0157623291015625;0.009784719906747341;-0.005835785064846277;0.004757470916956663
0.018798828125;0.0485992431640625;-1.01324462890625;0.008206796832382679;-0.005879194475710392;0.0027142937760800123
0.018798828125;0.0485992431640625;-1.01324462890625;0.008206796832382679;-0.005879194475710392;0.0027142937760800123
0.018798828125;0.0485992431640625;-1.01324462890625;0.008206796832382679;-0.005879194475710392;0.0027142937760800123
0.018798828125;0.0485992431640625;-1.01324462890625;0.008206796832382679;-0.005879194475710392;0.0027142937760800123
0.018798828125;0.0485992431640625;-1.01324462890625;0.008206796832382679;-0.005879194475710392;0.0027142937760800123
0.0188446044921875;0.050262451171875;-1.0127105712890625;0.0067756143398582935;-0.0076217008754611015;0.0024136228021234274
0.0188446044921875;0.050262451171875;-1.0127105712890625;0.0067756143398582935;-0.0076217008754611015;0.0024136228021234274
0.0188446044921875;0.050262451171875;-1.0127105712890625;0.0067756143398582935;-0.0076217008754611015;0.0024136228021234274
0.0188446044921875;0.050262451171875;-1.0127105712890625;0.0067756143398582935;-0.0076217008754611015;0.0024136228021234274
0.0188446044921875;0.050262451171875;-1.0127105712890625;0.0067756143398582935;-0.0076217008754611015;0.0024136228021234274
0.0190887451171875;0.052093505859375;-1.011749267578125;0.01082947850227356;-0.006759102921932936;0.0038511971943080425
0.0190887451171875;0.052093505859375;-1.011749267578125;0.01082947850227356;-0.006759102921932936;0.0038511971943080425
0.0190887451171875;0.052093505859375;-1.011749267578125;0.01082947850227356;-0.006759102921932936;0.0038511971943080425
0.0190887451171875;0.052093505859375;-1.011749267578125;0.01082947850227356;-0.006759102921932936;0.0038511971943080425
0.0190887451171875;0.052093505859375;-1.011749267578125;0.01082947850227356;-0.006759102921932936;0.0038511971943080425
0.018218994140625;0.0521392822265625;-1.011688232421875;0.014237791299819946;-0.00452684098854661;5.0333743274677545e-05
0.018218994140625;0.0521392822265625;-1.011688232421875;0.014237791299819946;-0.00452684098854661;5.0333743274677545e-05
0.018218994140625;0.0521392822265625;-1.011688232421875;0.014237791299819946;-0.00452684098854661;5.0333743274677545e-05
0.018218994140625;0.0521392822265625;-1.011688232421875;0.014237791299819946;-0.00452684098854661;5.0333743274677545e-05
0.018218994140625;0.0521392822265625;-1.011688232421875;0.014237791299819946;-0.00452684098854661;5.0333743274677545e-05
0.0188140869140625;0.052398681640625;-1.0105133056640625;0.012622850947082043;-0.0034551850985735655;0.002785133896395564
0.0188140869140625;0.052398681640625;-1.0105133056640625;0.012622850947082043;-0.0034551850985735655;0.002785133896395564
0.0188140869140625;0.052398681640625;-1.0105133056640625;0.012622850947082043;-0.0034551850985735655;0.002785133896395564
0.0188140869140625;0.052398681640625;-1.0105133056640625;0.012622850947082043;-0.0034551850985735655;0.002785133896395564
0.0188140869140625;0.052398681640625;-1.0105133056640625;0.012622850947082043;-0.0034551850985735655;0.002785133896395564
0.01812744140625;0.052001953125;-1.00958251953125;0.018132397904992104;-0.0036075180396437645;0.0037294907961040735
0.01812744140625;0.052001953125;-1.00958251953125;0.018132397904992104;-0.0036075180396437645;0.0037294907961040735
0.01812744140625;0.052001953125;-1.00958251953125;0.018132397904992104;-0.0036075180396437645;0.0037294907961040735
0.01812744140625;0.052001953125;-1.00958251953125;0.018132397904992104;-0.0036075180396437645;0.0037294907961040735
0.01812744140625;0.052001953125;-1.00958251953125;0.018132397904992104;-0.0036075180396437645;0.0037294907961040735
0.0163421630859375;0.0517425537109375;-1.0108184814453125;0.020603545010089874;-0.00469435378909111;-0.0008178567513823509
0.0163421630859375;0.0517425537109375;-1.0108184814453125;0.020603545010089874;-0.00469435378909111;-0.0008178567513823509
0.0163421630859375;0.0517425537109375;-1.0108184814453125;0.020603545010089874;-0.00469435378909111;-0.0008178567513823509
0.0163421630859375;0.0517425537109375;-1.0108184814453125;0.020603545010089874;-0.00469435378909111;-0.0008178567513823509
0.0163421630859375;0.0517425537109375;-1.0108184814453125;0.020603545010089874;-0.00469435378909111;-0.0008178567513823509
0.0157012939453125;0.0509796142578125;-1.0119476318359375;0.023609189316630363;-0.008117315359413624;0.0030562435276806355
0.0157012939453125;0.0509796142578125;-1.0119476318359375;0.023609189316630363;-0.008117315359413624;0.0030562435276806355
0.0157012939453125;0.0509796142578125;-1.0119476318359375;0.023609189316630363;-0.008117315359413624;0.0030562435276806355
0.0157012939453125;0.0509796142578125;-1.0119476318359375;0.023609189316630363;-0.008117315359413624;0.0030562435276806355
0.0157012939453125;0.0509796142578125;-1.0119476318359375;0.023609189316630363;-0.008117315359413624;0.0030562435276806355
0.0157623291015625;0.049957275390625;-1.0126800537109375;0.02400866337120533;-0.0016905746888369322;0.0013936321483924985
0.0157623291015625;0.049957275390625;-1.0126800537109375;0.02400866337120533;-0.0016905746888369322;0.0013936321483924985
0.0157623291015625;0.049957275390625;-1.0126800537109375;0.02400866337120533;-0.0016905746888369322;0.0013936321483924985
0.0157623291015625;0.049957275390625;-1.0126800537109375;0.02400866337120533;-0.0016905746888369322;0.0013936321483924985
0.0157623291015625;0.049957275390625;-1.0126800537109375;0.02400866337120533;-0.0016905746888369322;0.0013936321483924985
0.0168914794921875;0.0485687255859375;-1.0116119384765625;0.025553829967975616;-0.003306314582005143;0.003498062025755644
0.0168914794921875;0.0485687255859375;-1.0116119384765625;0.025553829967975616;-0.003306314582005143;0.003498062025755644
0.0168914794921875;0.0485687255859375;-1.0116119384765625;0.025553829967975616;-0.003306314582005143;0.003498062025755644
0.0168914794921875;0.0485687255859375;-1.0116119384765625;0.025553829967975616;-0.003306314582005143;0.003498062025755644
0.0168914794921875;0.0485687255859375;-1.0116119384765625;0.025553829967975616;-0.003306314582005143;0.003498062025755644
0.01629638671875;0.0476531982421875;-1.011322021484375;0.022654712200164795;-0.00011424961121520028;0.002129729837179184
0.01629638671875;0.0476531982421875;-1.011322021484375;0.022654712200164795;-0.00011424961121520028;0.002129729837179184
0.01629638671875;0.0476531982421875;-1.011322021484375;0.022654712200164795;-0.00011424961121520028;0.002129729837179184
0.01629638671875;0.0476531982421875;-1.011322021484375;0.022654712200164795;-0.00011424961121520028;0.002129729837179184
0.01629638671875;0.0476531982421875;-1.011322021484375;0.022654712200164795;-0.00011424961121520028;0.002129729837179184
0.0157470703125;0.0465850830078125;-1.011749267578125;0.02267654985189438;-0.00023941817926242948;0.0015893745003268123
0.0157470703125;0.0465850830078125;-1.011749267578125;0.02267654985189438;-0.00023941817926242948;0.0015893745003268123
0.0157470703125;0.0465850830078125;-1.011749267578125;0.02267654985189438;-0.00023941817926242948;0.0015893745003268123
0.0157470703125;0.0465850830078125;-1.011749267578125;0.02267654985189438;-0.00023941817926242948;0.0015893745003268123
0.0157470703125;0.0465850830078125;-1.011749267578125;0.02267654985189438;-0.00023941817926242948;0.0015893745003268123
0.0159912109375;0.0446624755859375;-1.0119171142578125;0.020854149013757706;-0.0005858954391442239;0.003138535423204303
0.0159912109375;0.0446624755859375;-1.0119171142578125;0.020854149013757706;-0.0005858954391442239;0.003138535423204303
0.0159912109375;0.0446624755859375;-1.0119171142578125;0.020854149013757706;-0.0005858954391442239;0.003138535423204303
0.0159912109375;0.0446624755859375;-1.0119171142578125;0.020854149013757706;-0.0005858954391442239;0.003138535423204303
0.01666259765625;0.0452423095703125;-1.01214599609375;0.015723569318652153;9.054747351910919e-05;-0.0011086739832535386
0.01666259765625;0.0452423095703125;-1.01214599609375;0.015723569318652153;9.054747351910919e-05;-0.0011086739832535386
0.01666259765625;0.0452423095703125;-1.01214599609375;0.015723569318652153;9.054747351910919e-05;-0.0011086739832535386
0.01666259765625;0.0452423095703125;-1.01214599609375;0.015723569318652153;9.054747351910919e-05;-0.0011086739832535386
0.01666259765625;0.0452423095703125;-1.01214599609375;0.015723569318652153;9.054747351910919e-05;-0.0011086739832535386
0.0168609619140625;0.0453643798828125;-1.0127716064453125;0.01561384741216898;-0.001460743835195899;0.0034847462084144354
0.0168609619140625;0.0453643798828125;-1.0127716064453125;0.01561384741216898;-0.001460743835195899;0.0034847462084144354
0.0168609619140625;0.0453643798828125;-1.0127716064453125;0.01561384741216898;-0.001460743835195899;0.0034847462084144354
0.0168609619140625;0.0453643798828125;-1.0127716064453125;0.01561384741216898;-0.001460743835195899;0.0034847462084144354
0.0168609619140625;0.0453643798828125;-1.0127716064453125;0.01561384741216898;-0.001460743835195899;0.0034847462084144354
0.016815185546875;0.0460662841796875;-1.01165771484375;0.018369952216744423;0.0006266417913138866;0.004570783115923405
0.016815185546875;0.0460662841796875;-1.01165771484375;0.018369952216744423;0.0006266417913138866;0.004570783115923405
0.016815185546875;0.0460662841796875;-1.01165771484375;0.018369952216744423;0.0006266417913138866;0.004570783115923405
0.016815185546875;0.0460662841796875;-1.01165771484375;0.018369952216744423;0.0006266417913138866;0.004570783115923405
0.016815185546875;0.0460662841796875;-1.01165771484375;0.018369952216744423;0.0006266417913138866;0.004570783115923405
0.0173492431640625;0.0466461181640625;-1.0117950439453125;0.01774277724325657;-0.001133174984715879;0.0030951257795095444
0.0173492431640625;0.0466461181640625;-1.0117950439453125;0.01774277724325657;-0.001133174984715879;0.0030951257795095444
0.0173492431640625;0.0466461181640625;-1.0117950439453125;0.01774277724325657;-0.001133174984715879;0.0030951257795095444
0.0173492431640625;0.0466461181640625;-1.0117950439453125;0.01774277724325657;-0.001133174984715879;0.0030951257795095444
0.0173492431640625;0.0466461181640625;-1.0117950439453125;0.018373148515820503;0.00010998855577781796;0.002039981307461858
0.0179443359375;0.0471649169921875;-1.01171875;0.018373148515820503;0.00010998855577781796;0.002039981307461858
0.0179443359375;0.0471649169921875;-1.01171875;0.018373148515820503;0.00010998855577781796;0.002039981307461858
0.0179443359375;0.0471649169921875;-1.01171875;0.018373148515820503;0.00010998855577781796;0.002039981307461858
0.0179443359375;0.0471649169921875;-1.01171875;0.018373148515820503;0.00010998855577781796;0.002039981307461858
0.0179443359375;0.0471649169921875;-1.01171875;0.018373148515820503;0.00010998855577781796;0.002039981307461858
0.0166473388671875;0.0468902587890625;-1.0119171142578125;0.01950499229133129;-0.0007076018955558538;0.003132410114631057
0.0166473388671875;0.0468902587890625;-1.0119171142578125;0.01950499229133129;-0.0007076018955558538;0.003132410114631057
0.0166473388671875;0.0468902587890625;-1.0119171142578125;0.01950499229133129;-0.0007076018955558538;0.003132410114631057
0.0166473388671875;0.0468902587890625;-1.0119171142578125;0.01950499229133129;-0.0007076018955558538;0.003132410114631057
0.0166473388671875;0.0468902587890625;-1.0119171142578125;0.01950499229133129;-0.0007076018955558538;0.003132410114631057
0.0168304443359375;0.046844482421875;-1.012298583984375;0.02250424399971962;-0.0008056062506511807;0.0028644960839301348
0.0168304443359375;0.046844482421875;-1.012298583984375;0.02250424399971962;-0.0008056062506511807;0.0028644960839301348
0.0168304443359375;0.046844482421875;-1.012298583984375;0.02250424399971962;-0.0008056062506511807;0.0028644960839301348
0.0168304443359375;0.046844482421875;-1.012298583984375;0.02250424399971962;-0.0008056062506511807;0.0028644960839301348
0.0168304443359375;0.046844482421875;-1.012298583984375;0.023935958743095398;-0.0018042916199192405;0.0031425300985574722
0.0169677734375;0.046478271484375;-1.0130767822265625;0.023935958743095398;-0.0018042916199192405;0.0031425300985574722
0.0169677734375;0.046478271484375;-1.0130767822265625;0.023935958743095398;-0.0018042916199192405;0.0031425300985574722
0.0169677734375;0.046478271484375;-1.0130767822265625;0.023935958743095398;-0.0018042916199192405;0.0031425300985574722
0.0169677734375;0.046478271484375;-1.0130767822265625;0.023935958743095398;-0.0018042916199192405;0.0031425300985574722
0.0169677734375;0.046478271484375;-1.0130767822265625;0.02586621791124344;0.0016170714516192675;0.0018676748732104897
0.0167388916015625;0.0459747314453125;-1.0133819580078125;0.02586621791124344;0.0016170714516192675;0.0018676748732104897
0.0167388916015625;0.0459747314453125;-1.0133819580078125;0.02586621791124344;0.0016170714516192675;0.0018676748732104897
0.0167388916015625;0.0459747314453125;-1.0133819580078125;0.02586621791124344;0.0016170714516192675;0.0018676748732104897
0.0167388916015625;0.0459747314453125;-1.0133819580078125;0.02586621791124344;0.0016170714516192675;0.0018676748732104897
0.0167388916015625;0.0459747314453125;-1.0133819580078125;0.023130886256694794;-0.00148125016130507;0.0005872269975952804
0.01629638671875;0.04522705078125;-1.0144195556640625;0.023130886256694794;-0.00148125016130507;0.0005872269975952804
0.01629638671875;0.04522705078125;-1.0144195556640625;0.023130886256694794;-0.00148125016130507;0.0005872269975952804
0.01629638671875;0.04522705078125;-1.0144195556640625;0.023130886256694794;-0.00148125016130507;0.0005872269975952804
0.01629638671875;0.04522705078125;-1.0144195556640625;0.023130886256694794;-0.00148125016130507;0.0005872269975952804
0.01641845703125;0.043670654296875;-1.0135650634765625;0.024341559037566185;-0.0012474246323108673;0.0017989652696996927
0.01641845703125;0.043670654296875;-1.0135650634765625;0.024341559037566185;-0.0012474246323108673;0.0017989652696996927
0.01641845703125;0.043670654296875;-1.0135650634765625;0.024341559037566185;-0.0012474246323108673;0.0017989652696996927
0.01641845703125;0.043670654296875;-1.0135650634765625;0.024341559037566185;-0.0012474246323108673;0.0017989652696996927
0.01641845703125;0.043670654296875;-1.0135650634765625;0.024341559037566185;-0.0012474246323108673;0.0017989652696996927
0.01641845703125;0.043670654296875;-1.0135650634765625;0.024716798216104507;-0.0027947211638092995;0.0022690133191645145
0.01641845703125;0.043975830078125;-1.013153076171875;0.024716798216104507;-0.0027947211638092995;0.0022690133191645145
0.01641845703125;0.043975830078125;-1.013153076171875;0.024716798216104507;-0.0027947211638092995;0.0022690133191645145
0.01641845703125;0.043975830078125;-1.013153076171875;0.024716798216104507;-0.0027947211638092995;0.0022690133191645145
0.01641845703125;0.043975830078125;-1.013153076171875;0.024716798216104507;-0.0027947211638092995;0.0022690133191645145
0.0167388916015625;0.0433197021484375;-1.0137786865234375;0.024157799780368805;-0.0029768813401460648;0.001529187080450356
0.0167388916015625;0.0433197021484375;-1.0137786865234375;0.024157799780368805;-0.0029768813401460648;0.001529187080450356
0.0167388916015625;0.0433197021484375;-1.0137786865234375;0.024157799780368805;-0.0029768813401460648;0.001529187080450356
0.0167388916015625;0.0433197021484375;-1.0137786865234375;0.024157799780368805;-0.0029768813401460648;0.001529187080450356
0.0167388916015625;0.0433197021484375;-1.0137786865234375;0.024157799780368805;-0.0029768813401460648;0.001529187080450356
0.0167694091796875;0.042327880859375;-1.0146942138671875;0.021800637245178223;-0.00022450447431765497;0.0025939189363271
0.0167694091796875;0.042327880859375;-1.0146942138671875;0.021800637245178223;-0.00022450447431765497;0.0025939189363271
0.0167694091796875;0.042327880859375;-1.0146942138671875;0.021800637245178223;-0.00022450447431765497;0.0025939189363271
0.0167694091796875;0.042327880859375;-1.0146942138671875;0.021800637245178223;-0.00022450447431765497;0.0025939189363271
0.0167694091796875;0.042327880859375;-1.0146942138671875;0.021800637245178223;-0.00022450447431765497;0.0025939189363271
0.016937255859375;0.042694091796875;-1.01495361328125;0.02425047755241394;-0.002469016704708338;0.002570216776803136
0.016937255859375;0.042694091796875;-1.01495361328125;0.02425047755241394;-0.002469016704708338;0.002570216776803136
0.016937255859375;0.042694091796875;-1.01495361328125;0.02425047755241394;-0.002469016704708338;0.002570216776803136
0.016937255859375;0.042694091796875;-1.01495361328125;0.02425047755241394;-0.002469016704708338;0.002570216776803136
0.016937255859375;0.042694091796875;-1.01495361328125;0.02425047755241394;-0.002469016704708338;0.002570216776803136
0.0168914794921875;0.043060302734375;-1.0149383544921875;0.02522439695894718;-0.001112668658606708;0.0011262508342042565
0.0168914794921875;0.043060302734375;-1.0149383544921875;0.02522439695894718;-0.001112668658606708;0.0011262508342042565
0.0168914794921875;0.043060302734375;-1.0149383544921875;0.02522439695894718;-0.001112668658606708;0.0011262508342042565
0.0168914794921875;0.043060302734375;-1.0149383544921875;0.02522439695894718;-0.001112668658606708;0.0011262508342042565
0.0168914794921875;0.043060302734375;-1.0149383544921875;0.02522439695894718;-0.001112668658606708;0.0011262508342042565
0.0162353515625;0.042816162109375;-1.0141754150390625;0.019935624673962593;-0.0005797701887786388;0.00195129809435457
0.0162353515625;0.042816162109375;-1.0141754150390625;0.019935624673962593;-0.0005797701887786388;0.00195129809435457
0.0162353515625;0.042816162109375;-1.0141754150390625;0.019935624673962593;-0.0005797701887786388;0.00195129809435457
0.0162353515625;0.042816162109375;-1.0141754150390625;0.019935624673962593;-0.0005797701887786388;0.00195129809435457
0.0162353515625;0.042816162109375;-1.0141754150390625;0.019935624673962593;-0.0005797701887786388;0.00195129809435457
0.01605224609375;0.04315185546875;-1.0117034912109375;0.022879216820001602;-0.0025094966404139996;0.0018122810870409012
0.01605224609375;0.04315185546875;-1.0117034912109375;0.022879216820001602;-0.0025094966404139996;0.0018122810870409012
0.01605224609375;0.04315185546875;-1.0117034912109375;0.022879216820001602;-0.0025094966404139996;0.0018122810870409012
0.01605224609375;0.04315185546875;-1.0117034912109375;0.022879216820001602;-0.0025094966404139996;0.0018122810870409012
0.01605224609375;0.04315185546875;-1.0117034912109375;0.022879216820001602;-0.0025094966404139996;0.0018122810870409012
0.0166168212890625;0.04351806640625;-1.011505126953125;0.02165735885500908;0.0007566040731035173;0.002323608146980405
0.0166168212890625;0.04351806640625;-1.011505126953125;0.02165735885500908;0.0007566040731035173;0.002323608146980405
0.0166168212890625;0.04351806640625;-1.011505126953125;0.02165735885500908;0.0007566040731035173;0.002323608146980405
0.0166168212890625;0.04351806640625;-1.011505126953125;0.02165735885500908;0.0007566040731035173;0.002323608146980405
0.0166168212890625;0.04351806640625;-1.011505126953125;0.02165735885500908;0.0007566040731035173;0.002323608146980405
0.0169525146484375;0.0437469482421875;-1.01092529296875;0.027850540354847908;-0.00036245622322894633;0.005851231049746275
0.0169525146484375;0.0437469482421875;-1.01092529296875;0.027850540354847908;-0.00036245622322894633;0.005851231049746275
0.0169525146484375;0.0437469482421875;-1.01092529296875;0.027850540354847908;-0.00036245622322894633;0.005851231049746275
0.0169525146484375;0.0437469482421875;-1.01092529296875;0.027850540354847908;-0.00036245622322894633;0.005851231049746275
0.0169525146484375;0.0437469482421875;-1.01092529296875;0.027850540354847908;-0.00036245622322894633;0.005851231049746275
0.01788330078125;0.0430908203125;-1.012481689453125;0.029858030378818512;-0.0022913836874067783;0.0059718722477555275
0.01788330078125;0.0430908203125;-1.012481689453125;0.029858030378818512;-0.0022913836874067783;0.0059718722477555275
0.01788330078125;0.0430908203125;-1.012481689453125;0.029858030378818512;-0.0022913836874067783;0.0059718722477555275
0.01788330078125;0.0430908203125;-1.012481689453125;0.029858030378818512;-0.0022913836874067783;0.0059718722477555275
0.01788330078125;0.0430908203125;-1.012481689453125;0.029858030378818512;-0.0022913836874067783;0.0059718722477555275
0.017974853515625;0.04278564453125;-1.016357421875;0.03343811631202698;0.0011789813870564103;0.0057614827528595924
0.017974853515625;0.04278564453125;-1.016357421875;0.03343811631202698;0.0011789813870564103;0.0057614827528595924
0.017974853515625;0.04278564453125;-1.016357421875;0.03343811631202698;0.0011789813870564103;0.0057614827528595924
0.017974853515625;0.04278564453125;-1.016357421875;0.03343811631202698;0.0011789813870564103;0.0057614827528595924
0.017974853515625;0.04278564453125;-1.016357421875;0.03343811631202698;0.0011789813870564103;0.0057614827528595924
0.0173187255859375;0.042266845703125;-1.0198516845703125;0.03334330767393112;0.00046871634549461305;0.004845887888222933
0.0173187255859375;0.042266845703125;-1.0198516845703125;0.03334330767393112;0.00046871634549461305;0.004845887888222933
0.0173187255859375;0.042266845703125;-1.0198516845703125;0.03334330767393112;0.00046871634549461305;0.004845887888222933
0.0173187255859375;0.042266845703125;-1.0198516845703125;0.03334330767393112;0.00046871634549461305;0.004845887888222933
0.0173187255859375;0.042266845703125;-1.0198516845703125;0.03334330767393112;0.00046871634549461305;0.004845887888222933
0.01776123046875;0.0410003662109375;-1.01776123046875;0.02646622806787491;-0.00047936898772604764;0.004054130055010319
0.01776123046875;0.0410003662109375;-1.01776123046875;0.02646622806787491;-0.00047936898772604764;0.004054130055010319
0.01776123046875;0.0410003662109375;-1.01776123046875;0.02646622806787491;-0.00047936898772604764;0.004054130055010319
0.01776123046875;0.0410003662109375;-1.01776123046875;0.02646622806787491;-0.00047936898772604764;0.004054130055010319
0.01776123046875;0.0410003662109375;-1.01776123046875;0.02646622806787491;-0.00047936898772604764;0.004054130055010319
0.0176239013671875;0.0392913818359375;-1.0135498046875;0.019119631499052048;0.00046046054922044277;0.004817924462258816
0.0176239013671875;0.0392913818359375;-1.0135498046875;0.019119631499052048;0.00046046054922044277;0.004817924462258816
0.0176239013671875;0.0392913818359375;-1.0135498046875;0.019119631499052048;0.00046046054922044277;0.004817924462258816
0.0176239013671875;0.0392913818359375;-1.0135498046875;0.019119631499052048;0.00046046054922044277;0.004817924462258816
0.0176239013671875;0.0392913818359375;-1.0135498046875;0.019119631499052048;0.00046046054922044277;0.004817924462258816
0.018463134765625;0.0374298095703125;-1.0124053955078125;0.009004414081573486;-0.004524976946413517;0.0005161206354387105
0.018463134765625;0.0374298095703125;-1.0124053955078125;0.009004414081573486;-0.004524976946413517;0.0005161206354387105
0.018463134765625;0.0374298095703125;-1.0124053955078125;0.009004414081573486;-0.004524976946413517;0.0005161206354387105
0.018463134765625;0.0374298095703125;-1.0124053955078125;0.009004414081573486;-0.004524976946413517;0.0005161206354387105
0.018463134765625;0.0374298095703125;-1.0124053955078125;0.009004414081573486;-0.004524976946413517;0.0005161206354387105
0.0195770263671875;0.0370635986328125;-1.0105133056640625;0.003567037871107459;-0.0062187472358345985;-0.0009483516332693398
0.0195770263671875;0.0370635986328125;-1.0105133056640625;0.003567037871107459;-0.0062187472358345985;-0.0009483516332693398
0.0195770263671875;0.0370635986328125;-1.0105133056640625;0.003567037871107459;-0.0062187472358345985;-0.0009483516332693398
0.0195770263671875;0.0370635986328125;-1.0105133056640625;0.003567037871107459;-0.0062187472358345985;-0.0009483516332693398
0.0195770263671875;0.0370635986328125;-1.0105133056640625;0.003567037871107459;-0.0062187472358345985;-0.0009483516332693398
0.0201568603515625;0.037689208984375;-1.011077880859375;-0.0008253136184066534;-0.007378021255135536;7.456851108145202e-06
0.0201568603515625;0.037689208984375;-1.011077880859375;-0.0008253136184066534;-0.007378021255135536;7.456851108145202e-06
0.0201568603515625;0.037689208984375;-1.011077880859375;-0.0008253136184066534;-0.007378021255135536;7.456851108145202e-06
0.0201568603515625;0.037689208984375;-1.011077880859375;-0.0008253136184066534;-0.007378021255135536;7.456851108145202e-06
0.0201568603515625;0.037689208984375;-1.011077880859375;-0.0008253136184066534;-0.007378021255135536;7.456851108145202e-06
0.02008056640625;0.0390472412109375;-1.0148773193359375;-8.255799002654385e-06;-0.003201385959982872;0.004364388529211283
0.02008056640625;0.0390472412109375;-1.0148773193359375;-8.255799002654385e-06;-0.003201385959982872;0.004364388529211283
0.02008056640625;0.0390472412109375;-1.0148773193359375;-8.255799002654385e-06;-0.003201385959982872;0.004364388529211283
0.02008056640625;0.0390472412109375;-1.0148773193359375;-8.255799002654385e-06;-0.003201385959982872;0.004364388529211283
0.02008056640625;0.0390472412109375;-1.0148773193359375;-8.255799002654385e-06;-0.003201385959982872;0.004364388529211283
0.0218963623046875;0.040283203125;-1.0051116943359375;-0.01637444645166397;0.014102236367762089;0.0060206083580851555
0.0218963623046875;0.040283203125;-1.0051116943359375;-0.01637444645166397;0.014102236367762089;0.0060206083580851555
0.0218963623046875;0.040283203125;-1.0051116943359375;-0.01637444645166397;0.014102236367762089;0.0060206083580851555
0.0218963623046875;0.040283203125;-1.0051116943359375;-0.01637444645166397;0.014102236367762089;0.0060206083580851555
0.0218963623046875;0.040283203125;-1.0051116943359375;-0.01637444645166397;0.014102236367762089;0.0060206083580851555
0.0190277099609375;0.042510986328125;-0.9934844970703125;-0.018145713955163956;0.018747055903077126;0.0022125542163848877
0.0190277099609375;0.042510986328125;-0.9934844970703125;-0.018145713955163956;0.018747055903077126;0.0022125542163848877
0.0190277099609375;0.042510986328125;-0.9934844970703125;-0.018145713955163956;0.018747055903077126;0.0022125542163848877
0.0190277099609375;0.042510986328125;-0.9934844970703125;-0.018145713955163956;0.018747055903077126;0.0022125542163848877
0.0190277099609375;0.042510986328125;-0.9934844970703125;-0.018145713955163956;0.018747055903077126;0.0022125542163848877
0.014892578125;0.044677734375;-1.007354736328125;0.0009361011325381696;0.004125502891838551;0.0017030915478244424
0.014892578125;0.044677734375;-1.007354736328125;0.0009361011325381696;0.004125502891838551;0.0017030915478244424
0.014892578125;0.044677734375;-1.007354736328125;0.0009361011325381696;0.004125502891838551;0.0017030915478244424
0.014892578125;0.044677734375;-1.007354736328125;0.0009361011325381696;0.004125502891838551;0.0017030915478244424
0.014892578125;0.044677734375;-1.007354736328125;0.0009361011325381696;0.004125502891838551;0.0017030915478244424
0.0105438232421875;0.046539306640625;-1.0248260498046875;0.029214344918727875;-0.010236125439405441;-0.0026642263401299715
0.0105438232421875;0.046539306640625;-1.0248260498046875;0.029214344918727875;-0.010236125439405441;-0.0026642263401299715
0.0105438232421875;0.046539306640625;-1.0248260498046875;0.029214344918727875;-0.010236125439405441;-0.0026642263401299715
0.0105438232421875;0.046539306640625;-1.0248260498046875;0.029214344918727875;-0.010236125439405441;-0.0026642263401299715
0.0105438232421875;0.046539306640625;-1.0248260498046875;0.029214344918727875;-0.010236125439405441;-0.0026642263401299715
0.0108795166015625;0.046905517578125;-1.0275115966796875;0.033062878996133804;-0.018800586462020874;-0.00464694993570447
0.0108795166015625;0.046905517578125;-1.0275115966796875;0.033062878996133804;-0.018800586462020874;-0.00464694993570447
0.0108795166015625;0.046905517578125;-1.0275115966796875;0.033062878996133804;-0.018800586462020874;-0.00464694993570447
0.0108795166015625;0.046905517578125;-1.0275115966796875;0.033062878996133804;-0.018800586462020874;-0.00464694993570447
0.0108795166015625;0.046905517578125;-1.0275115966796875;0.033062878996133804;-0.018800586462020874;-0.00464694993570447
0.016448974609375;0.046356201171875;-1.0157012939453125;0.015329954214394093;-0.019339876249432564;0.0005544701125472784
0.016448974609375;0.046356201171875;-1.0157012939453125;0.015329954214394093;-0.019339876249432564;0.0005544701125472784
0.016448974609375;0.046356201171875;-1.0157012939453125;0.015329954214394093;-0.019339876249432564;0.0005544701125472784
0.016448974609375;0.046356201171875;-1.0157012939453125;0.015329954214394093;-0.019339876249432564;0.0005544701125472784
0.016448974609375;0.046356201171875;-1.0157012939453125;0.015329954214394093;-0.019339876249432564;0.0005544701125472784
0.02032470703125;0.045166015625;-1.0056304931640625;0.0005041363765485585;-0.019514046609401703;0.003634948516264558
0.02032470703125;0.045166015625;-1.0056304931640625;0.0005041363765485585;-0.019514046609401703;0.003634948516264558
0.02032470703125;0.045166015625;-1.0056304931640625;0.0005041363765485585;-0.019514046609401703;0.003634948516264558
0.02032470703125;0.045166015625;-1.0056304931640625;0.0005041363765485585;-0.019514046609401703;0.003634948516264558
0.02032470703125;0.045166015625;-1.0056304931640625;0.0005041363765485585;-0.019514046609401703;0.003634948516264558
0.0184173583984375;0.042755126953125;-1.009490966796875;0.001761148450896144;-0.018702847883105278;0.008047806099057198
0.0184173583984375;0.042755126953125;-1.009490966796875;0.001761148450896144;-0.018702847883105278;0.008047806099057198
0.0184173583984375;0.042755126953125;-1.009490966796875;0.001761148450896144;-0.018702847883105278;0.008047806099057198
0.0184173583984375;0.042755126953125;-1.009490966796875;0.001761148450896144;-0.018702847883105278;0.008047806099057198
0.0184173583984375;0.042755126953125;-1.009490966796875;0.001761148450896144;-0.018702847883105278;0.008047806099057198
0.01641845703125;0.0404205322265625;-1.0081939697265625;0.006587595213204622;-0.0016871124971657991;0.010218016803264618
0.01641845703125;0.0404205322265625;-1.0081939697265625;0.006587595213204622;-0.0016871124971657991;0.010218016803264618
0.01641845703125;0.0404205322265625;-1.0081939697265625;0.006587595213204622;-0.0016871124971657991;0.010218016803264618
0.01641845703125;0.0404205322265625;-1.0081939697265625;0.006587595213204622;-0.0016871124971657991;0.010218016803264618
0.01641845703125;0.0404205322265625;-1.0081939697265625;0.006587595213204622;-0.0016871124971657991;0.010218016803264618
0.0164947509765625;0.0399017333984375;-1.002655029296875;0.016943030059337616;0.008203601464629173;0.012719789519906044
0.0164947509765625;0.0399017333984375;-1.002655029296875;0.016943030059337616;0.008203601464629173;0.012719789519906044
0.0164947509765625;0.0399017333984375;-1.002655029296875;0.016943030059337616;0.008203601464629173;0.012719789519906044
0.0164947509765625;0.0399017333984375;-1.002655029296875;0.016943030059337616;0.008203601464629173;0.012719789519906044
0.0164947509765625;0.0399017333984375;-1.002655029296875;0.016943030059337616;0.008203601464629173;0.012719789519906044
0.0162811279296875;0.037445068359375;-1.011505126953125;0.031200796365737915;0.005422195885330439;0.006602242588996887
0.0162811279296875;0.037445068359375;-1.011505126953125;0.031200796365737915;0.005422195885330439;0.006602242588996887
0.0162811279296875;0.037445068359375;-1.011505126953125;0.031200796365737915;0.005422195885330439;0.006602242588996887
0.0162811279296875;0.037445068359375;-1.011505126953125;0.031200796365737915;0.005422195885330439;0.006602242588996887
0.0162811279296875;0.037445068359375;-1.011505126953125;0.031200796365737915;0.005422195885330439;0.006602242588996887
0.015716552734375;0.037139892578125;-1.019012451171875;0.041297636926174164;0.002141714096069336;0.009549296461045742
0.015716552734375;0.037139892578125;-1.019012451171875;0.041297636926174164;0.002141714096069336;0.009549296461045742
0.015716552734375;0.037139892578125;-1.019012451171875;0.041297636926174164;0.002141714096069336;0.009549296461045742
0.015716552734375;0.037139892578125;-1.019012451171875;0.041297636926174164;0.002141714096069336;0.009549296461045742
0.015716552734375;0.037139892578125;-1.019012451171875;0.041297636926174164;0.002141714096069336;0.009549296461045742
0.0169830322265625;0.0378875732421875;-1.0220184326171875;0.03970560058951378;0.0030951257795095444;0.006159092765301466
0.0169830322265625;0.0378875732421875;-1.0220184326171875;0.03970560058951378;0.0030951257795095444;0.006159092765301466
0.0169830322265625;0.0378875732421875;-1.0220184326171875;0.03970560058951378;0.0030951257795095444;0.006159092765301466
0.0169830322265625;0.0378875732421875;-1.0220184326171875;0.03970560058951378;0.0030951257795095444;0.006159092765301466
0.0169830322265625;0.0378875732421875;-1.0220184326171875;0.03970560058951378;0.0030951257795095444;0.006159092765301466
0.0169677734375;0.0359039306640625;-1.0224456787109375;0.0320785753428936;0.0029792783316224813;0.0051867724396288395
0.0169677734375;0.0359039306640625;-1.0224456787109375;0.0320785753428936;0.0029792783316224813;0.0051867724396288395
0.0169677734375;0.0359039306640625;-1.0224456787109375;0.0320785753428936;0.0029792783316224813;0.0051867724396288395
0.0169677734375;0.0359039306640625;-1.0224456787109375;0.0320785753428936;0.0029792783316224813;0.0051867724396288395
0.0169677734375;0.0359039306640625;-1.0224456787109375;0.0320785753428936;0.0029792783316224813;0.0051867724396288395
0.0173797607421875;0.033935546875;-1.0207977294921875;0.018976088613271713;0.005438175052404404;0.0020295949652791023
0.0173797607421875;0.033935546875;-1.0207977294921875;0.018976088613271713;0.005438175052404404;0.0020295949652791023
0.0173797607421875;0.033935546875;-1.0207977294921875;0.018976088613271713;0.005438175052404404;0.0020295949652791023
0.0173797607421875;0.033935546875;-1.0207977294921875;0.018976088613271713;0.005438175052404404;0.0020295949652791023
0.0173797607421875;0.033935546875;-1.0207977294921875;0.018976088613271713;0.005438175052404404;0.0020295949652791023
0.0184478759765625;0.0315704345703125;-1.019256591796875;0.008790561929345131;0.004311125259846449;0.00170788518153131
0.0184478759765625;0.0315704345703125;-1.019256591796875;0.008790561929345131;0.004311125259846449;0.00170788518153131
0.0184478759765625;0.0315704345703125;-1.019256591796875;0.008790561929345131;0.004311125259846449;0.00170788518153131
0.0184478759765625;0.0315704345703125;-1.019256591796875;0.008790561929345131;0.004311125259846449;0.00170788518153131
0.0184478759765625;0.0315704345703125;-1.019256591796875;0.008790561929345131;0.004311125259846449;0.00170788518153131
0.01947021484375;0.0306854248046875;-1.0142059326171875;0.0001102548703784123;0.006783603690564632;-0.001336107961833477
0.01947021484375;0.0306854248046875;-1.0142059326171875;0.0001102548703784123;0.006783603690564632;-0.001336107961833477
0.01947021484375;0.0306854248046875;-1.0142059326171875;0.0001102548703784123;0.006783603690564632;-0.001336107961833477
0.01947021484375;0.0306854248046875;-1.0142059326171875;0.0001102548703784123;0.006783603690564632;-0.001336107961833477
0.01947021484375;0.0306854248046875;-1.0142059326171875;0.0001102548703784123;0.006783603690564632;-0.001336107961833477
0.019378662109375;0.030731201171875;-1.01275634765625;-0.004985703621059656;0.004095142707228661;-0.0011965582380071282
0.019378662109375;0.030731201171875;-1.01275634765625;-0.004985703621059656;0.004095142707228661;-0.0011965582380071282
0.019378662109375;0.030731201171875;-1.01275634765625;-0.004985703621059656;0.004095142707228661;-0.0011965582380071282
0.019378662109375;0.030731201171875;-1.01275634765625;-0.004985703621059656;0.004095142707228661;-0.0011965582380071282
0.019378662109375;0.030731201171875;-1.01275634765625;-0.004985703621059656;0.004095142707228661;-0.0011965582380071282
0.020477294921875;0.033935546875;-1.0118408203125;-0.006695719435811043;0.004174238536506891;-0.005005411338061094
0.020477294921875;0.033935546875;-1.0118408203125;-0.006695719435811043;0.004174238536506891;-0.005005411338061094
0.020477294921875;0.033935546875;-1.0118408203125;-0.006695719435811043;0.004174238536506891;-0.005005411338061094
0.020477294921875;0.033935546875;-1.0118408203125;-0.006695719435811043;0.004174238536506891;-0.005005411338061094
0.01947021484375;0.0388946533203125;-1.0121917724609375;-0.0038722362369298935;-0.0023499734234064817;0.00199284334667027
0.01947021484375;0.0388946533203125;-1.0121917724609375;-0.0038722362369298935;-0.0023499734234064817;0.00199284334667027
0.01947021484375;0.0388946533203125;-1.0121917724609375;-0.0038722362369298935;-0.0023499734234064817;0.00199284334667027
0.01947021484375;0.0388946533203125;-1.0121917724609375;-0.0038722362369298935;-0.0023499734234064817;0.00199284334667027
0.01947021484375;0.0388946533203125;-1.0121917724609375;-0.0038722362369298935;-0.0023499734234064817;0.00199284334667027
0.01947021484375;0.0388946533203125;-1.0121917724609375;0.0006567355012521148;-0.0024088292848318815;0.0023931164760142565
0.018768310546875;0.042144775390625;-1.014434814453125;0.0006567355012521148;-0.0024088292848318815;0.0023931164760142565
0.018768310546875;0.042144775390625;-1.014434814453125;0.0006567355012521148;-0.0024088292848318815;0.0023931164760142565
0.018768310546875;0.042144775390625;-1.014434814453125;0.0006567355012521148;-0.0024088292848318815;0.0023931164760142565
0.018768310546875;0.042144775390625;-1.014434814453125;0.0006567355012521148;-0.0024088292848318815;0.0023931164760142565
0.018768310546875;0.042144775390625;-1.014434814453125;0.007419566623866558;-0.0023007048293948174;0.0032352081034332514
0.018524169921875;0.0454254150390625;-1.0131988525390625;0.007419566623866558;-0.0023007048293948174;0.0032352081034332514
0.018524169921875;0.0454254150390625;-1.0131988525390625;0.007419566623866558;-0.0023007048293948174;0.0032352081034332514
0.018524169921875;0.0454254150390625;-1.0131988525390625;0.007419566623866558;-0.0023007048293948174;0.0032352081034332514
0.018524169921875;0.0454254150390625;-1.0131988525390625;0.007419566623866558;-0.0023007048293948174;0.0032352081034332514
0.018524169921875;0.0454254150390625;-1.0131988525390625;0.007735950406640768;-0.00313560594804585;0.0027864654548466206
0.018707275390625;0.0455780029296875;-1.013763427734375;0.007735950406640768;-0.00313560594804585;0.0027864654548466206
0.018707275390625;0.0455780029296875;-1.013763427734375;0.007735950406640768;-0.00313560594804585;0.0027864654548466206
0.018707275390625;0.0455780029296875;-1.013763427734375;0.007735950406640768;-0.00313560594804585;0.0027864654548466206
0.018707275390625;0.0455780029296875;-1.013763427734375;0.007735950406640768;-0.00313560594804585;0.0027864654548466206
0.0175323486328125;0.04364013671875;-1.012969970703125;0.01161457784473896;-0.004220843780785799;0.0027446537278592587
0.0175323486328125;0.04364013671875;-1.012969970703125;0.01161457784473896;-0.004220843780785799;0.0027446537278592587
0.0175323486328125;0.04364013671875;-1.012969970703125;0.01161457784473896;-0.004220843780785799;0.0027446537278592587
0.0175323486328125;0.04364013671875;-1.012969970703125;0.01161457784473896;-0.004220843780785799;0.0027446537278592587
0.0175323486328125;0.04364013671875;-1.012969970703125;0.01161457784473896;-0.004220843780785799;0.0027446537278592587
0.017974853515625;0.0413360595703125;-1.012481689453125;0.015934757888317108;-0.003879426745697856;0.005530586466193199
0.017974853515625;0.0413360595703125;-1.012481689453125;0.015934757888317108;-0.003879426745697856;0.005530586466193199
0.017974853515625;0.0413360595703125;-1.012481689453125;0.015934757888317108;-0.003879426745697856;0.005530586466193199
0.017974853515625;0.0413360595703125;-1.012481689453125;0.015934757888317108;-0.003879426745697856;0.005530586466193199
0.017974853515625;0.0413360595703125;-1.012481689453125;0.015934757888317108;-0.003879426745697856;0.005530586466193199
0.0183258056640625;0.038665771484375;-1.013763427734375;0.01930978149175644;-0.003431216813623905;0.004318049177527428
0.0183258056640625;0.038665771484375;-1.013763427734375;0.01930978149175644;-0.003431216813623905;0.004318049177527428
0.0183258056640625;0.038665771484375;-1.013763427734375;0.01930978149175644;-0.003431216813623905;0.004318049177527428
0.0183258056640625;0.038665771484375;-1.013763427734375;0.01930978149175644;-0.003431216813623905;0.004318049177527428
0.0183258056640625;0.038665771484375;-1.013763427734375;0.01930978149175644;-0.003431216813623905;0.004318049177527428
0.0189361572265625;0.0377044677734375;-1.01458740234375;0.01896410435438156;-0.002924683503806591;0.006180131807923317
0.0189361572265625;0.0377044677734375;-1.01458740234375;0.01896410435438156;-0.002924683503806591;0.006180131807923317
0.0189361572265625;0.0377044677734375;-1.01458740234375;0.01896410435438156;-0.002924683503806591;0.006180131807923317
0.0189361572265625;0.0377044677734375;-1.01458740234375;0.01896410435438156;-0.002924683503806591;0.006180131807923317
0.0189361572265625;0.0377044677734375;-1.01458740234375;0.01896410435438156;-0.002924683503806591;0.006180131807923317
0.01800537109375;0.0357666015625;-1.0134735107421875;0.016399214044213295;-0.0023611586075276136;0.0054245926439762115
0.01800537109375;0.0357666015625;-1.0134735107421875;0.016399214044213295;-0.0023611586075276136;0.0054245926439762115
0.01800537109375;0.0357666015625;-1.0134735107421875;0.016399214044213295;-0.0023611586075276136;0.0054245926439762115
0.01800537109375;0.0357666015625;-1.0134735107421875;0.016399214044213295;-0.0023611586075276136;0.0054245926439762115
0.01800537109375;0.0357666015625;-1.0134735107421875;0.016399214044213295;-0.0023611586075276136;0.0054245926439762115
0.0167236328125;0.033660888671875;-1.0116729736328125;0.012035890482366085;-0.002103897277265787;0.001924666459672153
0.0167236328125;0.033660888671875;-1.0116729736328125;0.012035890482366085;-0.002103897277265787;0.001924666459672153
0.0167236328125;0.033660888671875;-1.0116729736328125;0.012035890482366085;-0.002103897277265787;0.001924666459672153
0.0167236328125;0.033660888671875;-1.0116729736328125;0.012035890482366085;-0.002103897277265787;0.001924666459672153
0.0167236328125;0.033660888671875;-1.0116729736328125;0.012035890482366085;-0.002103897277265787;0.001924666459672153
0.016754150390625;0.0325775146484375;-1.0118255615234375;0.010428406298160553;-0.0025094966404139996;0.002177666872739792
0.016754150390625;0.0325775146484375;-1.0118255615234375;0.010428406298160553;-0.0025094966404139996;0.002177666872739792
0.016754150390625;0.0325775146484375;-1.0118255615234375;0.010428406298160553;-0.0025094966404139996;0.002177666872739792
0.016754150390625;0.0325775146484375;-1.0118255615234375;0.010428406298160553;-0.0025094966404139996;0.002177666872739792
0.016754150390625;0.0325775146484375;-1.0118255615234375;0.010428406298160553;-0.0025094966404139996;0.002177666872739792
0.0167236328125;0.032562255859375;-1.0135955810546875;0.007381217088550329;-0.0015547533985227346;0.0007691209320910275
0.0167236328125;0.032562255859375;-1.0135955810546875;0.007381217088550329;-0.0015547533985227346;0.0007691209320910275
0.0167236328125;0.032562255859375;-1.0135955810546875;0.007381217088550329;-0.0015547533985227346;0.0007691209320910275
0.0167236328125;0.032562255859375;-1.0135955810546875;0.007381217088550329;-0.0015547533985227346;0.0007691209320910275
0.0167236328125;0.032562255859375;-1.0135955810546875;0.007381217088550329;-0.0015547533985227346;0.0007691209320910275
0.0166473388671875;0.0344085693359375;-1.0130157470703125;0.012616991996765137;-0.002263953210785985;0.0011251855175942183
0.0166473388671875;0.0344085693359375;-1.0130157470703125;0.012616991996765137;-0.002263953210785985;0.0011251855175942183
0.0166473388671875;0.0344085693359375;-1.0130157470703125;0.012616991996765137;-0.002263953210785985;0.0011251855175942183
0.0166473388671875;0.0344085693359375;-1.0130157470703125;0.012616991996765137;-0.002263953210785985;0.0011251855175942183
0.0166473388671875;0.0344085693359375;-1.0130157470703125;0.012616991996765137;-0.002263953210785985;0.0011251855175942183
0.016937255859375;0.0354156494140625;-1.0135650634765625;0.011725631542503834;-0.0029526466969400644;0.004181162919849157
0.016937255859375;0.0354156494140625;-1.0135650634765625;0.011725631542503834;-0.0029526466969400644;0.004181162919849157
0.016937255859375;0.0354156494140625;-1.0135650634765625;0.011725631542503834;-0.0029526466969400644;0.004181162919849157
0.016937255859375;0.0354156494140625;-1.0135650634765625;0.011725631542503834;-0.0029526466969400644;0.004181162919849157
0.016937255859375;0.0354156494140625;-1.0135650634765625;0.011725631542503834;-0.0029526466969400644;0.004181162919849157
0.01678466796875;0.037200927734375;-1.0142974853515625;0.013885987922549248;-0.006612629164010286;0.0008205199264921248
0.01678466796875;0.037200927734375;-1.0142974853515625;0.013885987922549248;-0.006612629164010286;0.0008205199264921248
0.01678466796875;0.037200927734375;-1.0142974853515625;0.013885987922549248;-0.006612629164010286;0.0008205199264921248
0.01678466796875;0.037200927734375;-1.0142974853515625;0.013885987922549248;-0.006612629164010286;0.0008205199264921248
0.01678466796875;0.037200927734375;-1.0142974853515625;0.013885987922549248;-0.006612629164010286;0.0008205199264921248
0.0177764892578125;0.03778076171875;-1.0170135498046875;0.0073175677098333836;-0.007161772809922695;-0.0010815097484737635
0.0177764892578125;0.03778076171875;-1.0170135498046875;0.0073175677098333836;-0.007161772809922695;-0.0010815097484737635
0.0177764892578125;0.03778076171875;-1.0170135498046875;0.0073175677098333836;-0.007161772809922695;-0.0010815097484737635
0.0177764892578125;0.03778076171875;-1.0170135498046875;0.0073175677098333836;-0.007161772809922695;-0.0010815097484737635
0.0177764892578125;0.03778076171875;-1.0170135498046875;0.0073175677098333836;-0.007161772809922695;-0.0010815097484737635
0.019805908203125;0.0389862060546875;-1.0118560791015625;-0.0011584750609472394;-0.006192914675921202;-7.80306218075566e-05
0.019805908203125;0.0389862060546875;-1.0118560791015625;-0.0011584750609472394;-0.006192914675921202;-7.80306218075566e-05
0.019805908203125;0.0389862060546875;-1.0118560791015625;-0.0011584750609472394;-0.006192914675921202;-7.80306218075566e-05
0.019805908203125;0.0389862060546875;-1.0118560791015625;-0.0011584750609472394;-0.006192914675921202;-7.80306218075566e-05
0.019805908203125;0.0389862060546875;-1.0118560791015625;-0.0011584750609472394;-0.006192914675921202;-7.80306218075566e-05
0.01641845703125;0.0385589599609375;-1.0080718994140625;-0.005154281854629517;-0.006193447392433882;0.0010330402292311192
0.01641845703125;0.0385589599609375;-1.0080718994140625;-0.005154281854629517;-0.006193447392433882;0.0010330402292311192
0.01641845703125;0.0385589599609375;-1.0080718994140625;-0.005154281854629517;-0.006193447392433882;0.0010330402292311192
0.01641845703125;0.0385589599609375;-1.0080718994140625;-0.005154281854629517;-0.006193447392433882;0.0010330402292311192
0.01641845703125;0.0385589599609375;-1.0080718994140625;-0.005154281854629517;-0.006193447392433882;0.0010330402292311192
0.0153656005859375;0.039093017578125;-1.009033203125;0.004322843160480261;-0.003195260651409626;0.004993160720914602
0.0153656005859375;0.039093017578125;-1.009033203125;0.004322843160480261;-0.003195260651409626;0.004993160720914602
0.0153656005859375;0.039093017578125;-1.009033203125;0.004322843160480261;-0.003195260651409626;0.004993160720914602
0.0153656005859375;0.039093017578125;-1.009033203125;0.004322843160480261;-0.003195260651409626;0.004993160720914602
0.0153656005859375;0.039093017578125;-1.009033203125;0.004322843160480261;-0.003195260651409626;0.004993160720914602
0.015960693359375;0.0388946533203125;-1.0140228271484375;0.017291372641921043;2.663161103555467e-05;0.004279167391359806
0.015960693359375;0.0388946533203125;-1.0140228271484375;0.017291372641921043;2.663161103555467e-05;0.004279167391359806
0.015960693359375;0.0388946533203125;-1.0140228271484375;0.017291372641921043;2.663161103555467e-05;0.004279167391359806
0.015960693359375;0.0388946533203125;-1.0140228271484375;0.017291372641921043;2.663161103555467e-05;0.004279167391359806
0.015960693359375;0.0388946533203125;-1.0140228271484375;0.017291372641921043;2.663161103555467e-05;0.004279167391359806
0.017242431640625;0.038177490234375;-1.0124969482421875;0.015920110046863556;0.0010524812387302518;0.0046719834208488464
0.017242431640625;0.038177490234375;-1.0124969482421875;0.015920110046863556;0.0010524812387302518;0.0046719834208488464
0.017242431640625;0.038177490234375;-1.0124969482421875;0.015920110046863556;0.0010524812387302518;0.0046719834208488464
0.017242431640625;0.038177490234375;-1.0124969482421875;0.015920110046863556;0.0010524812387302518;0.0046719834208488464
0.017242431640625;0.038177490234375;-1.0124969482421875;0.015920110046863556;0.0010524812387302518;0.0046719834208488464
0.017486572265625;0.0386962890625;-1.0100860595703125;0.014038853347301483;0.003959055058658123;0.002734001260250807
0.017486572265625;0.0386962890625;-1.0100860595703125;0.014038853347301483;0.003959055058658123;0.002734001260250807
0.017486572265625;0.0386962890625;-1.0100860595703125;0.014038853347301483;0.003959055058658123;0.002734001260250807
0.017486572265625;0.0386962890625;-1.0100860595703125;0.014038853347301483;0.003959055058658123;0.002734001260250807
0.017486572265625;0.0386962890625;-1.0100860595703125;0.014038853347301483;0.003959055058658123;0.002734001260250807
0.017242431640625;0.0371551513671875;-1.0111083984375;0.008432366885244846;0.006366819143295288;0.0032812808640301228
0.017242431640625;0.0371551513671875;-1.0111083984375;0.008432366885244846;0.006366819143295288;0.0032812808640301228
0.017242431640625;0.0371551513671875;-1.0111083984375;0.008432366885244846;0.006366819143295288;0.0032812808640301228
0.017242431640625;0.0371551513671875;-1.0111083984375;0.008432366885244846;0.006366819143295288;0.0032812808640301228
0.017242431640625;0.0371551513671875;-1.0111083984375;0.008432366885244846;0.006366819143295288;0.0032812808640301228
0.0172119140625;0.0363616943359375;-1.014312744140625;0.010305901058018208;0.0062943813391029835;0.002356098499149084
0.0172119140625;0.0363616943359375;-1.014312744140625;0.010305901058018208;0.0062943813391029835;0.002356098499149084
0.0172119140625;0.0363616943359375;-1.014312744140625;0.010305901058018208;0.0062943813391029835;0.002356098499149084
0.0172119140625;0.0363616943359375;-1.014312744140625;0.010305901058018208;0.0062943813391029835;0.002356098499149084
0.0172119140625;0.0363616943359375;-1.014312744140625;0.010305901058018208;0.0062943813391029835;0.002356098499149084
0.01654052734375;0.0340576171875;-1.0167388916015625;0.014664696529507637;0.006585464812815189;0.003373426152393222
0.01654052734375;0.0340576171875;-1.0167388916015625;0.014664696529507637;0.006585464812815189;0.003373426152393222
0.01654052734375;0.0340576171875;-1.0167388916015625;0.014664696529507637;0.006585464812815189;0.003373426152393222
0.01654052734375;0.0340576171875;-1.0167388916015625;0.014664696529507637;0.006585464812815189;0.003373426152393222
0.01654052734375;0.0340576171875;-1.0167388916015625;0.014664696529507637;0.006585464812815189;0.003373426152393222
0.016571044921875;0.0317230224609375;-1.0180816650390625;0.009410013444721699;-0.0006466155173256993;0.004187554586678743
0.016571044921875;0.0317230224609375;-1.0180816650390625;0.009410013444721699;-0.0006466155173256993;0.004187554586678743
0.016571044921875;0.0317230224609375;-1.0180816650390625;0.009410013444721699;-0.0006466155173256993;0.004187554586678743
0.016571044921875;0.0317230224609375;-1.0180816650390625;0.009410013444721699;-0.0006466155173256993;0.004187554586678743
0.016571044921875;0.0317230224609375;-1.0180816650390625;0.009410013444721699;-0.0006466155173256993;0.004187554586678743
0.01641845703125;0.031341552734375;-1.018951416015625;0.006630206014961004;-0.003840810852125287;0.0041396175511181355
0.01641845703125;0.031341552734375;-1.018951416015625;0.006630206014961004;-0.003840810852125287;0.0041396175511181355
0.01641845703125;0.031341552734375;-1.018951416015625;0.006630206014961004;-0.003840810852125287;0.0041396175511181355
0.01641845703125;0.031341552734375;-1.018951416015625;0.006630206014961004;-0.003840810852125287;0.0041396175511181355
0.01641845703125;0.031341552734375;-1.018951416015625;0.006630206014961004;-0.003840810852125287;0.0041396175511181355
0.01708984375;0.030609130859375;-1.0162811279296875;0.0014346449170261621;-0.00782463327050209;0.0009616674506105483
0.01708984375;0.030609130859375;-1.0162811279296875;0.0014346449170261621;-0.00782463327050209;0.0009616674506105483
0.01708984375;0.030609130859375;-1.0162811279296875;0.0014346449170261621;-0.00782463327050209;0.0009616674506105483
0.01708984375;0.030609130859375;-1.0162811279296875;0.0014346449170261621;-0.00782463327050209;0.0009616674506105483
0.01708984375;0.030609130859375;-1.0162811279296875;0.0014346449170261621;-0.00782463327050209;0.0009616674506105483
0.0192718505859375;0.0308685302734375;-1.0146331787109375;-0.0015816513914614916;-0.00836951658129692;0.003865045728161931
0.0192718505859375;0.0308685302734375;-1.0146331787109375;-0.0015816513914614916;-0.00836951658129692;0.003865045728161931
0.0192718505859375;0.0308685302734375;-1.0146331787109375;-0.0015816513914614916;-0.00836951658129692;0.003865045728161931
0.0192718505859375;0.0308685302734375;-1.0146331787109375;-0.0015816513914614916;-0.00836951658129692;0.003865045728161931
0.0192718505859375;0.0308685302734375;-1.0146331787109375;-0.0015816513914614916;-0.00836951658129692;0.003865045728161931
0.01983642578125;0.0323333740234375;-1.01336669921875;-0.0026935210917145014;-0.00634817685931921;0.002517486223950982
0.01983642578125;0.0323333740234375;-1.01336669921875;-0.0026935210917145014;-0.00634817685931921;0.002517486223950982
0.01983642578125;0.0323333740234375;-1.01336669921875;-0.0026935210917145014;-0.00634817685931921;0.002517486223950982
0.01983642578125;0.0323333740234375;-1.01336669921875;-0.0026935210917145014;-0.00634817685931921;0.002517486223950982
0.01983642578125;0.0323333740234375;-1.01336669921875;-0.0026935210917145014;-0.00634817685931921;0.002517486223950982
0.018829345703125;0.035003662109375;-1.013031005859375;0.00020959076937288046;-0.005121524911373854;0.0027651600539684296
0.018829345703125;0.035003662109375;-1.013031005859375;0.00020959076937288046;-0.005121524911373854;0.0027651600539684296
0.018829345703125;0.035003662109375;-1.013031005859375;0.00020959076937288046;-0.005121524911373854;0.0027651600539684296
0.018829345703125;0.035003662109375;-1.013031005859375;0.00020959076937288046;-0.005121524911373854;0.0027651600539684296
0.018829345703125;0.035003662109375;-1.013031005859375;0.00020959076937288046;-0.005121524911373854;0.0027651600539684296
0.0186004638671875;0.0372772216796875;-1.0128631591796875;0.002235191175714135;-0.00857457984238863;0.00307621737010777
0.0186004638671875;0.0372772216796875;-1.0128631591796875;0.002235191175714135;-0.00857457984238863;0.00307621737010777
0.0186004638671875;0.0372772216796875;-1.0128631591796875;0.002235191175714135;-0.00857457984238863;0.00307621737010777
0.0186004638671875;0.0372772216796875;-1.0128631591796875;0.002235191175714135;-0.00857457984238863;0.00307621737010777
0.0186004638671875;0.0372772216796875;-1.0128631591796875;0.002235191175714135;-0.00857457984238863;0.00307621737010777
0.018707275390625;0.03765869140625;-1.0132293701171875;0.004831240512430668;-0.0068270135670900345;0.003893541404977441
0.018707275390625;0.03765869140625;-1.0132293701171875;0.004831240512430668;-0.0068270135670900345;0.003893541404977441
0.018707275390625;0.03765869140625;-1.0132293701171875;0.004831240512430668;-0.0068270135670900345;0.003893541404977441
0.018707275390625;0.03765869140625;-1.0132293701171875;0.004831240512430668;-0.0068270135670900345;0.003893541404977441
0.018707275390625;0.03765869140625;-1.0132293701171875;0.004831240512430668;-0.0068270135670900345;0.003893541404977441
0.01849365234375;0.038482666015625;-1.0115203857421875;-0.0010596717474982142;-0.002835467690601945;0.004639759194105864
0.01849365234375;0.038482666015625;-1.0115203857421875;-0.0010596717474982142;-0.002835467690601945;0.004639759194105864
0.01849365234375;0.038482666015625;-1.0115203857421875;-0.0010596717474982142;-0.002835467690601945;0.004639759194105864
0.01849365234375;0.038482666015625;-1.0115203857421875;-0.0010596717474982142;-0.002835467690601945;0.004639759194105864
0.01849365234375;0.038482666015625;-1.0115203857421875;-0.0010596717474982142;-0.002835467690601945;0.004639759194105864
0.0189971923828125;0.0383453369140625;-1.00909423828125;0.00017257283616345376;0.00021225394448265433;0.002778742229565978
0.0189971923828125;0.0383453369140625;-1.00909423828125;0.00017257283616345376;0.00021225394448265433;0.002778742229565978
0.0189971923828125;0.0383453369140625;-1.00909423828125;0.00017257283616345376;0.00021225394448265433;0.002778742229565978
0.0189971923828125;0.0383453369140625;-1.00909423828125;0.00017257283616345376;0.00021225394448265433;0.002778742229565978
0.0189971923828125;0.0383453369140625;-1.00909423828125;0.00017257283616345376;0.00021225394448265433;0.002778742229565978
0.018280029296875;0.0381011962890625;-1.009368896484375;0.0007957525085657835;-0.0026756778825074434;0.0002854908525478095
0.018280029296875;0.0381011962890625;-1.009368896484375;0.0007957525085657835;-0.0026756778825074434;0.0002854908525478095
0.018280029296875;0.0381011962890625;-1.009368896484375;0.0007957525085657835;-0.0026756778825074434;0.0002854908525478095
0.018280029296875;0.0381011962890625;-1.009368896484375;0.0007957525085657835;-0.0026756778825074434;0.0002854908525478095
0.018280029296875;0.0381011962890625;-1.009368896484375;0.0007957525085657835;-0.0026756778825074434;0.0002854908525478095
0.0177764892578125;0.038116455078125;-1.0126800537109375;0.0042131207883358;-0.004875448998063803;0.0011502192355692387
0.0177764892578125;0.038116455078125;-1.0126800537109375;0.0042131207883358;-0.004875448998063803;0.0011502192355692387
0.0177764892578125;0.038116455078125;-1.0126800537109375;0.0042131207883358;-0.004875448998063803;0.0011502192355692387
0.0177764892578125;0.038116455078125;-1.0126800537109375;0.0042131207883358;-0.004875448998063803;0.0011502192355692387
0.0177764892578125;0.038116455078125;-1.0126800537109375;0.0042131207883358;-0.004875448998063803;0.0011502192355692387
0.0170745849609375;0.036224365234375;-1.0133819580078125;0.006189452484250069;-0.000996554852463305;0.0018008295446634293
0.0170745849609375;0.036224365234375;-1.0133819580078125;0.006189452484250069;-0.000996554852463305;0.0018008295446634293
0.0170745849609375;0.036224365234375;-1.0133819580078125;0.006189452484250069;-0.000996554852463305;0.0018008295446634293
0.0170745849609375;0.036224365234375;-1.0133819580078125;0.006189452484250069;-0.000996554852463305;0.0018008295446634293
0.0170745849609375;0.036224365234375;-1.0133819580078125;0.006189452484250069;-0.000996554852463305;0.0018008295446634293
0.0171661376953125;0.03448486328125;-1.0132904052734375;0.007681355345994234;0.0010615360224619508;0.0017156084068119526
0.0171661376953125;0.03448486328125;-1.0132904052734375;0.007681355345994234;0.0010615360224619508;0.0017156084068119526
0.0171661376953125;0.03448486328125;-1.0132904052734375;0.007681355345994234;0.0010615360224619508;0.0017156084068119526
0.0171661376953125;0.03448486328125;-1.0132904052734375;0.007681355345994234;0.0010615360224619508;0.0017156084068119526
0.0171661376953125;0.03448486328125;-1.0132904052734375;0.007681355345994234;0.0010615360224619508;0.0017156084068119526
0.017333984375;0.03460693359375;-1.0131378173828125;0.004781439434736967;0.0027632960118353367;0.002743588527664542
0.017333984375;0.03460693359375;-1.0131378173828125;0.004781439434736967;0.0027632960118353367;0.002743588527664542
0.017333984375;0.03460693359375;-1.0131378173828125;0.004781439434736967;0.0027632960118353367;0.002743588527664542
0.017333984375;0.03460693359375;-1.0131378173828125;0.004781439434736967;0.0027632960118353367;0.002743588527664542
0.017333984375;0.03460693359375;-1.0131378173828125;0.006740194279700518;0.004079164005815983;0.0025843314360827208
0.017913818359375;0.033660888671875;-1.0128021240234375;0.006740194279700518;0.004079164005815983;0.0025843314360827208
0.017913818359375;0.033660888671875;-1.0128021240234375;0.006740194279700518;0.004079164005815983;0.0025843314360827208
0.017913818359375;0.033660888671875;-1.0128021240234375;0.006740194279700518;0.004079164005815983;0.0025843314360827208
0.017913818359375;0.033660888671875;-1.0128021240234375;0.006740194279700518;0.004079164005815983;0.0025843314360827208
0.018157958984375;0.0325469970703125;-1.014068603515625;0.006178800016641617;0.008081895299255848;0.002313754288479686
0.018157958984375;0.0325469970703125;-1.014068603515625;0.006178800016641617;0.008081895299255848;0.002313754288479686
0.018157958984375;0.0325469970703125;-1.014068603515625;0.006178800016641617;0.008081895299255848;0.002313754288479686
0.018157958984375;0.0325469970703125;-1.014068603515625;0.006178800016641617;0.008081895299255848;0.002313754288479686
0.018157958984375;0.0325469970703125;-1.014068603515625;0.006178800016641617;0.008081895299255848;0.002313754288479686
0.018157958984375;0.0325469970703125;-1.014068603515625;0.006427006796002388;0.004054929129779339;0.003406449221074581
0.0182342529296875;0.0335845947265625;-1.013763427734375;0.006427006796002388;0.004054929129779339;0.003406449221074581
0.0182342529296875;0.0335845947265625;-1.013763427734375;0.006427006796002388;0.004054929129779339;0.003406449221074581
0.0182342529296875;0.0335845947265625;-1.013763427734375;0.006427006796002388;0.004054929129779339;0.003406449221074581
0.0182342529296875;0.0335845947265625;-1.013763427734375;0.006427006796002388;0.004054929129779339;0.003406449221074581
0.0179290771484375;0.033843994140625;-1.0140838623046875;0.0054448326118290424;0.006414756178855896;0.0024549018125981092
0.0179290771484375;0.033843994140625;-1.0140838623046875;0.0054448326118290424;0.006414756178855896;0.0024549018125981092
0.0179290771484375;0.033843994140625;-1.0140838623046875;0.0054448326118290424;0.006414756178855896;0.0024549018125981092
0.0179290771484375;0.033843994140625;-1.0140838623046875;0.0054448326118290424;0.006414756178855896;0.0024549018125981092
0.0179290771484375;0.033843994140625;-1.0140838623046875;0.0054448326118290424;0.006414756178855896;0.0024549018125981092
0.018157958984375;0.0337982177734375;-1.0146942138671875;0.007852597162127495;0.0009568737586960196;0.001805889536626637
0.018157958984375;0.0337982177734375;-1.0146942138671875;0.007852597162127495;0.0009568737586960196;0.001805889536626637
0.018157958984375;0.0337982177734375;-1.0146942138671875;0.007852597162127495;0.0009568737586960196;0.001805889536626637
0.018157958984375;0.0337982177734375;-1.0146942138671875;0.007852597162127495;0.0009568737586960196;0.001805889536626637
0.018157958984375;0.0337982177734375;-1.0146942138671875;0.007852597162127495;0.0009568737586960196;0.001805889536626637
0.0181732177734375;0.0341644287109375;-1.014617919921875;0.004713795147836208;0.003757720347493887;0.0027742148377001286
0.0181732177734375;0.0341644287109375;-1.014617919921875;0.004713795147836208;0.003757720347493887;0.0027742148377001286
0.0181732177734375;0.0341644287109375;-1.014617919921875;0.004713795147836208;0.003757720347493887;0.0027742148377001286
0.0181732177734375;0.0341644287109375;-1.014617919921875;0.004713795147836208;0.003757720347493887;0.0027742148377001286
0.0181732177734375;0.0341644287109375;-1.014617919921875;0.004713795147836208;0.003757720347493887;0.0027742148377001286
0.0190582275390625;0.035858154296875;-1.0137939453125;0.00774686923250556;0.0009108011145144701;0.0029582392890006304
0.0190582275390625;0.035858154296875;-1.0137939453125;0.00774686923250556;0.0009108011145144701;0.0029582392890006304
0.0190582275390625;0.035858154296875;-1.0137939453125;0.00774686923250556;0.0009108011145144701;0.0029582392890006304
0.0190582275390625;0.035858154296875;-1.0137939453125;0.00774686923250556;0.0009108011145144701;0.0029582392890006304
0.0190582275390625;0.035858154296875;-1.0137939453125;0.00774686923250556;0.0009108011145144701;0.0029582392890006304
0.0188751220703125;0.0353240966796875;-1.0152587890625;0.00507039250805974;0.00341603672131896;0.0020636834669858217
0.0188751220703125;0.0353240966796875;-1.0152587890625;0.00507039250805974;0.00341603672131896;0.0020636834669858217
0.0188751220703125;0.0353240966796875;-1.0152587890625;0.00507039250805974;0.00341603672131896;0.0020636834669858217
0.0188751220703125;0.0353240966796875;-1.0152587890625;0.00507039250805974;0.00341603672131896;0.0020636834669858217
0.0188751220703125;0.0353240966796875;-1.0152587890625;0.00507039250805974;0.00341603672131896;0.0020636834669858217
0.0189666748046875;0.035064697265625;-1.0155029296875;0.004050667863339186;0.00043356261448934674;0.0023576964158564806
0.0189666748046875;0.035064697265625;-1.0155029296875;0.004050667863339186;0.00043356261448934674;0.0023576964158564806
0.0189666748046875;0.035064697265625;-1.0155029296875;0.004050667863339186;0.00043356261448934674;0.0023576964158564806
0.0189666748046875;0.035064697265625;-1.0155029296875;0.004050667863339186;0.00043356261448934674;0.0023576964158564806
0.0189666748046875;0.035064697265625;-1.0155029296875;0.004050667863339186;0.00043356261448934674;0.0023576964158564806
0.0194244384765625;0.034820556640625;-1.014617919921875;0.005367334932088852;0.0003091930120717734;0.003972104750573635
0.0194244384765625;0.034820556640625;-1.014617919921875;0.005367334932088852;0.0003091930120717734;0.003972104750573635
0.0194244384765625;0.034820556640625;-1.014617919921875;0.005367334932088852;0.0003091930120717734;0.003972104750573635
0.0194244384765625;0.034820556640625;-1.014617919921875;0.005367334932088852;0.0003091930120717734;0.003972104750573635
0.0194244384765625;0.034820556640625;-1.014617919921875;0.005367334932088852;0.0003091930120717734;0.003972104750573635
0.0189361572265625;0.0346832275390625;-1.0141143798828125;0.002481533447280526;-0.0012684636749327183;0.003569967346265912
0.0189361572265625;0.0346832275390625;-1.0141143798828125;0.002481533447280526;-0.0012684636749327183;0.003569967346265912
0.0189361572265625;0.0346832275390625;-1.0141143798828125;0.002481533447280526;-0.0012684636749327183;0.003569967346265912
0.0189361572265625;0.0346832275390625;-1.0141143798828125;0.002481533447280526;-0.0012684636749327183;0.003569967346265912
0.0189361572265625;0.0346832275390625;-1.0141143798828125;0.002481533447280526;-0.0012684636749327183;0.003569967346265912
0.018463134765625;0.0340576171875;-1.01336669921875;0.0062096924521028996;-0.0020626182667911053;0.00469515286386013
0.018463134765625;0.0340576171875;-1.01336669921875;0.0062096924521028996;-0.0020626182667911053;0.00469515286386013
0.018463134765625;0.0340576171875;-1.01336669921875;0.0062096924521028996;-0.0020626182667911053;0.00469515286386013
